     timestep     time              x             y              z              vx             vy             vz             ax             ay             az         v_magnitude      ELoss        Electronic      Nuclear
           0   0.000000e+00   1.000000e-01   1.337640e+01   1.971854e+01   1.125235e+06   6.244037e+05   2.290814e+06   0.000000e+00   0.000000e+00   0.000000e+00   2.627521e+06   0.000000e+00   0.000000e+00   0.000000e+00
        8000   7.999000e-08   1.900184e-01   1.342635e+01   1.990181e+01   1.125225e+06   6.244260e+05   2.290813e+06  -2.433527e+07   5.165784e+07  -2.127562e+06   2.627521e+06   5.447178e-26   0.000000e+00   0.000000e+00
       16000   1.599900e-07   2.800363e-01   1.347631e+01   2.008507e+01   1.125222e+06   6.244322e+05   2.290813e+06  -2.037040e+07   3.670728e+07   2.527603e+00   2.627521e+06   2.930086e-26   0.000000e+00   0.000000e+00
       24000   2.399900e-07   3.700540e-01   1.352626e+01   2.026834e+01   1.125222e+06   6.244322e+05   2.290813e+06   4.266064e+00  -7.687411e+00   7.009138e-23   2.627521e+06   1.285605e-39   0.000000e+00   0.000000e+00
       32000   3.199900e-07   4.600718e-01   1.357622e+01   2.045160e+01   1.125222e+06   6.244322e+05   2.290813e+06   7.339668e+00  -1.322602e+01  -2.714334e-20   2.627521e+06   3.802050e-39   0.000000e+00   0.000000e+00
       40000   3.999900e-07   5.500895e-01   1.362617e+01   2.063487e+01   1.125222e+06   6.244322e+05   2.290813e+06   8.220950e+00  -1.481408e+01   5.587355e-20   2.627521e+06   4.772422e-39   0.000000e+00   0.000000e+00
       48000   4.799900e-07   6.401073e-01   1.367612e+01   2.081813e+01   1.125222e+06   6.244322e+05   2.290813e+06  -4.854246e-01   8.747311e-01  -3.860708e-21   2.627521e+06   1.647358e-41   0.000000e+00   0.000000e+00
       56000   5.599900e-07   7.301250e-01   1.372608e+01   2.100140e+01   1.125222e+06   6.244322e+05   2.290813e+06   4.523531e+00  -8.151366e+00  -1.112492e-21   2.627521e+06   1.446837e-39   0.000000e+00   0.000000e+00
       64000   6.399900e-07   8.201427e-01   1.377603e+01   2.118466e+01   1.125222e+06   6.244322e+05   2.290813e+06   2.129319e+00  -3.837015e+00   1.810238e-20   2.627521e+06   3.197337e-40   0.000000e+00   0.000000e+00
       72000   7.199900e-07   9.101605e-01   1.382599e+01   2.136793e+01   1.125222e+06   6.244322e+05   2.290813e+06   5.614408e+00  -1.011712e+01   1.470799e-21   2.627521e+06   2.231414e-39   0.000000e+00   0.000000e+00
       80000   7.999900e-07   1.000178e+00   1.387594e+01   2.155119e+01   1.125222e+06   6.244322e+05   2.290813e+06   8.021041e+00  -1.445385e+01  -3.059464e-20   2.627521e+06   4.544681e-39   0.000000e+00   0.000000e+00
       88000   8.799900e-07   1.090196e+00   1.392590e+01   2.173446e+01   1.125222e+06   6.244322e+05   2.290813e+06   5.189149e+00  -9.350803e+00  -3.579318e-20   2.627521e+06   1.903722e-39   0.000000e+00   0.000000e+00
       96000   9.599900e-07   1.180214e+00   1.397585e+01   2.191772e+01   1.125222e+06   6.244322e+05   2.290813e+06   2.299902e+00  -4.144405e+00  -1.202181e-20   2.627521e+06   3.734981e-40   0.000000e+00   0.000000e+00
      104000   1.039990e-06   1.270231e+00   1.402581e+01   2.210099e+01   1.125222e+06   6.244322e+05   2.290813e+06   1.426316e+01  -2.570209e+01   9.475692e-20   2.627521e+06   1.436575e-38   0.000000e+00   0.000000e+00
      112000   1.119990e-06   1.360249e+00   1.407576e+01   2.228425e+01   1.125222e+06   6.244322e+05   2.290813e+06  -5.709089e+00   1.028773e+01   1.054484e-20   2.627521e+06   2.300437e-39   0.000000e+00   0.000000e+00
      120000   1.199990e-06   1.450267e+00   1.412572e+01   2.246752e+01   1.125222e+06   6.244322e+05   2.290813e+06   4.437607e+00  -7.996531e+00  -5.953849e-21   2.627521e+06   1.391477e-39   0.000000e+00   0.000000e+00
      128000   1.279990e-06   1.540285e+00   1.417567e+01   2.265078e+01   1.125222e+06   6.244322e+05   2.290813e+06   1.279740e+00  -2.306081e+00   9.560265e-21   2.627521e+06   1.160636e-40   0.000000e+00   0.000000e+00
      136000   1.359990e-06   1.630302e+00   1.422563e+01   2.283405e+01   1.125222e+06   6.244322e+05   2.290813e+06   2.774410e+00  -4.999464e+00  -1.400848e-21   2.627521e+06   5.446269e-40   0.000000e+00   0.000000e+00
      144000   1.439990e-06   1.720320e+00   1.427558e+01   2.301731e+01   1.125222e+06   6.244322e+05   2.290813e+06   8.782291e+00  -1.582562e+01  -1.526480e-20   2.627521e+06   5.454979e-39   0.000000e+00   0.000000e+00
      152000   1.519990e-06   1.810338e+00   1.432553e+01   2.320058e+01   1.125222e+06   6.244322e+05   2.290813e+06   1.296211e+00  -2.335762e+00   6.698220e-21   2.627521e+06   1.179745e-40   0.000000e+00   0.000000e+00
      160000   1.599990e-06   1.900356e+00   1.437549e+01   2.338384e+01   1.125222e+06   6.244322e+05   2.290813e+06   1.560729e+01  -2.812421e+01  -2.210180e-20   2.627521e+06   1.720532e-38   0.000000e+00   0.000000e+00
      168000   1.679990e-06   1.990373e+00   1.442544e+01   2.356711e+01   1.125222e+06   6.244322e+05   2.290813e+06   4.889071e+00  -8.810066e+00  -3.479116e-20   2.627521e+06   1.688939e-39   0.000000e+00   0.000000e+00
      176000   1.759990e-06   2.080391e+00   1.447540e+01   2.375037e+01   1.125222e+06   6.244322e+05   2.290813e+06   5.559884e+00  -1.001887e+01  -2.452220e-20   2.627521e+06   2.182629e-39   0.000000e+00   0.000000e+00
      184000   1.839990e-06   2.170409e+00   1.452535e+01   2.393364e+01   1.125222e+06   6.244322e+05   2.290813e+06   6.955860e+00  -1.253440e+01  -1.411866e-20   2.627521e+06   3.421630e-39   0.000000e+00   0.000000e+00
      192000   1.919990e-06   2.260427e+00   1.457531e+01   2.411690e+01   1.125222e+06   6.244322e+05   2.290813e+06  -3.579315e+00   6.449896e+00   2.423482e-21   2.627521e+06   9.045189e-40   0.000000e+00   0.000000e+00
      200000   1.999990e-06   2.350444e+00   1.462526e+01   2.430017e+01   1.125222e+06   6.244322e+05   2.290813e+06   7.987912e+00  -1.439415e+01   4.801321e-20   2.627521e+06   4.508212e-39   0.000000e+00   0.000000e+00
      208000   2.079990e-06   2.440462e+00   1.467522e+01   2.448343e+01   1.125222e+06   6.244322e+05   2.290813e+06   6.318984e+00  -1.138676e+01   3.651316e-20   2.627521e+06   2.821984e-39   0.000000e+00   0.000000e+00
      216000   2.159990e-06   2.530480e+00   1.472517e+01   2.466670e+01   1.125222e+06   6.244322e+05   2.290813e+06  -3.479677e-02   6.270349e-02  -2.512735e-22   2.627521e+06   8.196608e-44   0.000000e+00   0.000000e+00
      224000   2.239990e-06   2.620498e+00   1.477513e+01   2.484996e+01   1.125222e+06   6.244322e+05   2.290813e+06   3.833197e+00  -6.907390e+00   8.060798e-21   2.627521e+06   1.038213e-39   0.000000e+00   0.000000e+00
      232000   2.319990e-06   2.710515e+00   1.482508e+01   2.503323e+01   1.125222e+06   6.244322e+05   2.290813e+06   4.517563e+00  -8.140611e+00  -3.692054e-20   2.627521e+06   1.443317e-39   0.000000e+00   0.000000e+00
      240000   2.399990e-06   2.800533e+00   1.487503e+01   2.521649e+01   1.125222e+06   6.244322e+05   2.290813e+06   4.862449e+00  -8.762092e+00  -4.104051e-20   2.627521e+06   1.668902e-39   0.000000e+00   0.000000e+00
      248000   2.479990e-06   2.890551e+00   1.492499e+01   2.539976e+01   1.125222e+06   6.244322e+05   2.290813e+06  -1.768272e+01   3.186412e+01  -1.016607e-20   2.627521e+06   2.207170e-38   0.000000e+00   0.000000e+00
      256000   2.559990e-06   2.980569e+00   1.497494e+01   2.558302e+01   1.125222e+06   6.244322e+05   2.290813e+06   2.110599e+01  -3.803282e+01  -3.109930e-20   2.627521e+06   3.145436e-38   0.000000e+00   0.000000e+00
      264000   2.639990e-06   3.070586e+00   1.502490e+01   2.576629e+01   1.125222e+06   6.244322e+05   2.290813e+06  -4.962619e+00   8.942599e+00  -4.736500e-20   2.627521e+06   1.736850e-39   0.000000e+00   0.000000e+00
      272000   2.719990e-06   3.160604e+00   1.507485e+01   2.594955e+01   1.125222e+06   6.244322e+05   2.290813e+06   1.723345e+01  -3.105453e+01  -5.724734e-20   2.627521e+06   2.096544e-38   0.000000e+00   0.000000e+00
      280000   2.799990e-06   3.250622e+00   1.512481e+01   2.613282e+01   1.125222e+06   6.244322e+05   2.290813e+06   6.155843e-01  -1.109278e+00   5.459319e-21   2.627521e+06   2.672440e-41   0.000000e+00   0.000000e+00
      288000   2.879990e-06   3.340640e+00   1.517476e+01   2.631608e+01   1.125222e+06   6.244322e+05   2.290813e+06   1.201967e+01  -2.165934e+01   8.492842e-20   2.627521e+06   1.019988e-38   0.000000e+00   0.000000e+00
      296000   2.959990e-06   3.430657e+00   1.522472e+01   2.649935e+01   1.125222e+06   6.244322e+05   2.290813e+06   6.261068e+00  -1.128239e+01   8.030799e-21   2.627521e+06   2.768455e-39   0.000000e+00   0.000000e+00
      304000   3.039990e-06   3.520675e+00   1.527467e+01   2.668261e+01   1.125222e+06   6.244322e+05   2.290813e+06   7.546270e+00  -1.359832e+01   5.315175e-21   2.627521e+06   4.021263e-39   0.000000e+00   0.000000e+00
      312000   3.119990e-06   3.610693e+00   1.532463e+01   2.686588e+01   1.125222e+06   6.244322e+05   2.290813e+06   1.225829e+00  -2.208933e+00  -6.643338e-21   2.627521e+06   1.064976e-40   0.000000e+00   0.000000e+00
      320000   3.199990e-06   3.700710e+00   1.537458e+01   2.704914e+01   1.125222e+06   6.244322e+05   2.290813e+06   1.589367e+01  -2.864026e+01  -3.895403e-20   2.627521e+06   1.783393e-38   0.000000e+00   0.000000e+00
      328000   3.279990e-06   3.790728e+00   1.542454e+01   2.723241e+01   1.125222e+06   6.244322e+05   2.290813e+06   1.834972e+00  -3.306605e+00   1.163364e-20   2.627521e+06   2.385279e-40   0.000000e+00   0.000000e+00
      336000   3.359990e-06   3.880746e+00   1.547449e+01   2.741567e+01   1.125222e+06   6.244322e+05   2.290813e+06  -6.923277e+00   1.247569e+01   3.677671e-20   2.627521e+06   3.381253e-39   0.000000e+00   0.000000e+00
      344000   3.439990e-06   3.970764e+00   1.552444e+01   2.759894e+01   1.125222e+06   6.244322e+05   2.290813e+06  -2.089903e+00   3.765988e+00   1.077404e-20   2.627521e+06   3.075209e-40   0.000000e+00   0.000000e+00
      352000   3.519990e-06   4.060781e+00   1.557440e+01   2.778220e+01   1.125222e+06   6.244322e+05   2.290813e+06   1.269651e+01  -2.287901e+01   9.991341e-20   2.627521e+06   1.138162e-38   0.000000e+00   0.000000e+00
      360000   3.599990e-06   4.150799e+00   1.562435e+01   2.796547e+01   1.125222e+06   6.244322e+05   2.290813e+06   6.137957e+00  -1.106055e+01   5.698155e-21   2.627521e+06   2.659414e-39   0.000000e+00   0.000000e+00
      368000   3.679990e-06   4.240817e+00   1.567431e+01   2.814873e+01   1.125222e+06   6.244322e+05   2.290813e+06   1.372723e+00  -2.473636e+00  -5.781704e-21   2.627521e+06   1.328628e-40   0.000000e+00   0.000000e+00
      376000   3.759990e-06   4.330835e+00   1.572426e+01   2.833200e+01   1.125222e+06   6.244322e+05   2.290813e+06   1.273765e+01  -2.295314e+01  -3.430108e-20   2.627521e+06   1.146180e-38   0.000000e+00   0.000000e+00
      384000   3.839990e-06   4.420852e+00   1.577422e+01   2.851526e+01   1.125222e+06   6.244322e+05   2.290813e+06   9.434989e+00  -1.700177e+01  -5.260784e-20   2.627521e+06   6.287226e-39   0.000000e+00   0.000000e+00
      392000   3.919990e-06   4.510870e+00   1.582417e+01   2.869853e+01   1.125222e+06   6.244322e+05   2.290813e+06   1.058583e+01  -1.907557e+01  -5.698604e-20   2.627521e+06   7.912233e-39   0.000000e+00   0.000000e+00
      400000   3.999990e-06   4.600888e+00   1.587413e+01   2.888179e+01   1.125222e+06   6.244322e+05   2.290813e+06   1.747805e+01  -3.149531e+01  -7.680117e-20   2.627521e+06   2.156843e-38   0.000000e+00   0.000000e+00
      408000   4.079990e-06   4.690906e+00   1.592408e+01   2.906506e+01   1.125222e+06   6.244322e+05   2.290813e+06  -4.648911e+00   8.377299e+00  -1.059671e-20   2.627521e+06   1.523489e-39   0.000000e+00   0.000000e+00
      416000   4.159990e-06   4.780923e+00   1.597404e+01   2.924832e+01   1.125222e+06   6.244322e+05   2.290813e+06  -1.277990e+01   2.302927e+01   7.670808e-21   2.627521e+06   1.153473e-38   0.000000e+00   0.000000e+00
      424000   4.239990e-06   4.870941e+00   1.602399e+01   2.943159e+01   1.125222e+06   6.244322e+05   2.290813e+06   1.572143e+01  -2.832989e+01  -2.209283e-20   2.627521e+06   1.745815e-38   0.000000e+00   0.000000e+00
      432000   4.319990e-06   4.960959e+00   1.607394e+01   2.961485e+01   1.125222e+06   6.244322e+05   2.290813e+06  -7.371844e+00   1.328400e+01  -3.006587e-20   2.627521e+06   3.831818e-39   0.000000e+00   0.000000e+00
      440000   4.399990e-06   5.050977e+00   1.612390e+01   2.979812e+01   1.125222e+06   6.244322e+05   2.290813e+06   3.001690e+00  -4.599249e+01   1.106229e+01   2.627521e+06   3.735065e-38   0.000000e+00   0.000000e+00
      448000   4.479990e-06   5.140994e+00   1.617385e+01   2.998138e+01   1.125222e+06   6.244322e+05   2.290813e+06   2.827598e+01  -3.115084e+01  -5.397719e+00   2.627521e+06   2.989935e-38   0.000000e+00   0.000000e+00
      456000   4.559990e-06   5.231012e+00   1.622381e+01   3.016465e+01   1.125222e+06   6.244322e+05   2.290813e+06   1.534389e+00  -3.751353e-01  -6.514201e-01   2.627521e+06   4.876046e-41   0.000000e+00   0.000000e+00
      464000   4.639990e-06   5.321030e+00   1.627376e+01   3.034791e+01   1.125222e+06   6.244322e+05   2.290813e+06   3.212541e+00  -5.788972e+00  -4.379314e-21   2.627521e+06   7.282450e-40   0.000000e+00   0.000000e+00
      472000   4.719990e-06   5.411048e+00   1.632372e+01   3.053118e+01   1.125222e+06   6.244322e+05   2.290813e+06   1.391247e+01  -2.507016e+01   2.355746e-20   2.627521e+06   1.368059e-38   0.000000e+00   0.000000e+00
      480000   4.799990e-06   5.501065e+00   1.637367e+01   3.071444e+01   1.125222e+06   6.244322e+05   2.290813e+06   9.340577e+00  -1.683164e+01  -3.740192e-20   2.627521e+06   6.154575e-39   0.000000e+00   0.000000e+00
      488000   4.879990e-06   5.591083e+00   1.642363e+01   3.089771e+01   1.125222e+06   6.244322e+05   2.290813e+06   2.345131e+01  -4.225906e+01  -7.813684e-20   2.627521e+06   3.882477e-38   0.000000e+00   0.000000e+00
      496000   4.959990e-06   5.681101e+00   1.647358e+01   3.108097e+01   1.125222e+06   6.244322e+05   2.290813e+06   2.968302e+01  -5.348856e+01   1.079543e-19   2.627521e+06   6.221807e-38   0.000000e+00   0.000000e+00
      504000   5.039990e-06   5.771119e+00   1.652354e+01   3.126424e+01   1.125222e+06   6.244322e+05   2.290813e+06   1.115641e+01  -2.010376e+01   8.742928e-20   2.627521e+06   8.787763e-39   0.000000e+00   0.000000e+00
      512000   5.119990e-06   5.861136e+00   1.657349e+01   3.144750e+01   1.125222e+06   6.244322e+05   2.290813e+06   1.885326e+01  -3.397342e+01   9.604210e-21   2.627521e+06   2.509936e-38   0.000000e+00   0.000000e+00
      520000   5.199990e-06   5.951154e+00   1.662344e+01   3.163077e+01   1.125222e+06   6.244322e+05   2.290813e+06   1.317144e+01  -2.373483e+01   5.319549e-20   2.627521e+06   1.224831e-38   0.000000e+00   0.000000e+00
      528000   5.279990e-06   6.041172e+00   1.667340e+01   3.181403e+01   1.125222e+06   6.244322e+05   2.290813e+06   7.628152e+00  -1.374587e+01   1.153201e-20   2.627521e+06   4.108142e-39   0.000000e+00   0.000000e+00
      536000   5.359990e-06   6.131190e+00   1.672335e+01   3.199730e+01   1.125222e+06   6.244322e+05   2.290813e+06  -4.405346e+00   7.938398e+00  -9.245904e-21   2.627521e+06   1.369970e-39   0.000000e+00   0.000000e+00
      544000   5.439990e-06   6.221207e+00   1.677331e+01   3.218056e+01   1.125222e+06   6.244322e+05   2.290813e+06   6.761334e+00  -1.218387e+01   1.023335e-21   2.627521e+06   3.229812e-39   0.000000e+00   0.000000e+00
      552000   5.519990e-06   6.311225e+00   1.682326e+01   3.236383e+01   1.125222e+06   6.244322e+05   2.290813e+06  -2.995535e+00   5.397930e+00  -2.242787e-21   2.627521e+06   6.341031e-40   0.000000e+00   0.000000e+00
      560000   5.599990e-06   6.401243e+00   1.687322e+01   3.254709e+01   1.125222e+06   6.244322e+05   2.290813e+06   8.030069e+00  -1.447012e+01   1.476406e-21   2.627521e+06   4.560339e-39   0.000000e+00   0.000000e+00
      568000   5.679990e-06   6.491261e+00   1.692317e+01   3.273036e+01   1.125222e+06   6.244322e+05   2.290813e+06  -8.488886e+00   1.529690e+01  -3.557786e-20   2.627521e+06   5.087718e-39   0.000000e+00   0.000000e+00
      576000   5.759990e-06   6.581278e+00   1.697313e+01   3.291362e+01   1.125222e+06   6.244322e+05   2.290813e+06   9.989126e+00  -1.800032e+01  -3.320429e-20   2.627521e+06   7.041807e-39   0.000000e+00   0.000000e+00
      584000   5.839990e-06   6.671296e+00   1.702308e+01   3.309689e+01   1.125222e+06   6.244322e+05   2.290813e+06   1.684003e+01  -3.034559e+01  -1.944057e-20   2.627521e+06   2.002944e-38   0.000000e+00   0.000000e+00
      592000   5.919990e-06   6.761314e+00   1.707304e+01   3.328015e+01   1.125222e+06   6.244322e+05   2.290813e+06  -4.507082e+00   8.121724e+00   8.070611e-21   2.627521e+06   1.433601e-39   0.000000e+00   0.000000e+00
      600000   5.999990e-06   6.851331e+00   1.712299e+01   3.346342e+01   1.125222e+06   6.244322e+05   2.290813e+06   6.455389e+00  -1.163256e+01  -3.162190e-20   2.627521e+06   2.944064e-39   0.000000e+00   0.000000e+00
      608000   6.079990e-06   6.941349e+00   1.717295e+01   3.364668e+01   1.125222e+06   6.244322e+05   2.290813e+06   9.228311e+00  -1.662934e+01  -1.901217e-20   2.627521e+06   6.013242e-39   0.000000e+00   0.000000e+00
      616000   6.159990e-06   7.031367e+00   1.722290e+01   3.382995e+01   1.125222e+06   6.244322e+05   2.290813e+06   1.900759e+00  -3.425152e+00  -1.144369e-20   2.627521e+06   2.553958e-40   0.000000e+00   0.000000e+00
      624000   6.239990e-06   7.121385e+00   1.727285e+01   3.401321e+01   1.125222e+06   6.244322e+05   2.290813e+06   1.511133e+01  -2.723049e+01   6.477572e-20   2.627521e+06   1.612708e-38   0.000000e+00   0.000000e+00
      632000   6.319990e-06   7.211402e+00   1.732281e+01   3.419648e+01   1.125222e+06   6.244322e+05   2.290813e+06   4.638538e+00  -8.358607e+00  -1.149135e-20   2.627521e+06   1.515205e-39   0.000000e+00   0.000000e+00
      640000   6.399990e-06   7.301420e+00   1.737276e+01   3.437974e+01   1.125222e+06   6.244322e+05   2.290813e+06   1.107709e+01  -1.996083e+01   2.424884e-20   2.627521e+06   8.654770e-39   0.000000e+00   0.000000e+00
      648000   6.479990e-06   7.391438e+00   1.742272e+01   3.456301e+01   1.125222e+06   6.244322e+05   2.290813e+06   1.888082e+01  -3.402307e+01   1.249265e-19   2.627521e+06   2.516799e-38   0.000000e+00   0.000000e+00
      656000   6.559990e-06   7.481456e+00   1.747267e+01   3.474627e+01   1.125222e+06   6.244322e+05   2.290813e+06   1.561058e+01  -2.813013e+01  -2.059904e-20   2.627521e+06   1.721913e-38   0.000000e+00   0.000000e+00
      664000   6.639990e-06   7.571473e+00   1.752263e+01   3.492954e+01   1.125222e+06   6.244322e+05   2.290813e+06   8.302329e-01  -1.496073e+00   2.554343e-21   2.627521e+06   4.754328e-41   0.000000e+00   0.000000e+00
      672000   6.719990e-06   7.661491e+00   1.757258e+01   3.511280e+01   1.125222e+06   6.244322e+05   2.290813e+06   2.982923e+01  -5.375203e+01  -2.151640e-20   2.627521e+06   6.283904e-38   0.000000e+00   0.000000e+00
      680000   6.799990e-06   7.751509e+00   1.762254e+01   3.529607e+01   1.125222e+06   6.244322e+05   2.290813e+06  -8.799864e+00   1.585728e+01   2.964027e-21   2.627521e+06   5.467738e-39   0.000000e+00   0.000000e+00
      688000   6.879990e-06   7.841527e+00   1.767249e+01   3.547933e+01   1.125222e+06   6.244322e+05   2.290813e+06  -2.293610e+00   4.133067e+00  -1.292080e-20   2.627521e+06   3.715376e-40   0.000000e+00   0.000000e+00
      696000   6.959990e-06   7.931544e+00   1.772245e+01   3.566260e+01   1.125222e+06   6.244322e+05   2.290813e+06  -2.416339e+00   4.354223e+00   9.296931e-22   2.627521e+06   4.117010e-40   0.000000e+00   0.000000e+00
      704000   7.039990e-06   8.021562e+00   1.777240e+01   3.584586e+01   1.125222e+06   6.244322e+05   2.290813e+06   4.611295e+00  -8.309516e+00  -6.741396e-21   2.627521e+06   1.501730e-39   0.000000e+00   0.000000e+00
      712000   7.119990e-06   8.111580e+00   1.782235e+01   3.602913e+01   1.125222e+06   6.244322e+05   2.290813e+06   5.651512e+00  -1.018398e+01   1.677148e-21   2.627521e+06   2.262386e-39   0.000000e+00   0.000000e+00
      720000   7.199990e-06   8.201598e+00   1.787231e+01   3.621239e+01   1.125222e+06   6.244322e+05   2.290813e+06   3.577096e+00  -6.445898e+00  -1.057540e-21   2.627521e+06   9.034948e-40   0.000000e+00   0.000000e+00
      728000   7.279990e-06   8.291615e+00   1.792226e+01   3.639566e+01   1.125222e+06   6.244322e+05   2.290813e+06  -7.000973e+00   1.261570e+01   2.960663e-21   2.627521e+06   3.461597e-39   0.000000e+00   0.000000e+00
      736000   7.359990e-06   8.381633e+00   1.797222e+01   3.657892e+01   1.125222e+06   6.244322e+05   2.290813e+06   2.693391e+01  -4.853469e+01  -1.353853e-19   2.627521e+06   5.122332e-38   0.000000e+00   0.000000e+00
      744000   7.439990e-06   8.471651e+00   1.802217e+01   3.676219e+01   1.125222e+06   6.244322e+05   2.290813e+06   4.081228e+00  -7.354339e+00  -6.832796e-21   2.627521e+06   1.177124e-39   0.000000e+00   0.000000e+00
      752000   7.519990e-06   8.561669e+00   1.807213e+01   3.694545e+01   1.125222e+06   6.244322e+05   2.290813e+06   7.034316e+00  -1.267578e+01  -3.138583e-20   2.627521e+06   3.494977e-39   0.000000e+00   0.000000e+00
      760000   7.599990e-06   8.651686e+00   1.812208e+01   3.712872e+01   1.125222e+06   6.244322e+05   2.290813e+06  -9.334288e+00   1.682031e+01  -4.386604e-20   2.627521e+06   6.152174e-39   0.000000e+00   0.000000e+00
      768000   7.679990e-06   8.741704e+00   1.817204e+01   3.731198e+01   1.125222e+06   6.244322e+05   2.290813e+06  -5.734221e+00   1.033302e+01  -9.767385e-21   2.627521e+06   2.326154e-39   0.000000e+00   0.000000e+00
      776000   7.759990e-06   8.831722e+00   1.822199e+01   3.749525e+01   1.125222e+06   6.244322e+05   2.290813e+06  -5.134516e+00   9.252357e+00   5.844506e-21   2.627521e+06   1.857767e-39   0.000000e+00   0.000000e+00
      784000   7.839990e-06   8.921740e+00   1.827195e+01   3.767851e+01   1.125222e+06   6.244322e+05   2.290813e+06   1.170977e+01  -2.110091e+01  -4.041249e-20   2.627521e+06   9.669250e-39   0.000000e+00   0.000000e+00
      792000   7.919990e-06   9.011757e+00   1.832190e+01   3.786178e+01   1.125222e+06   6.244322e+05   2.290813e+06   8.789915e+00  -1.583935e+01  -2.694652e-20   2.627521e+06   5.467447e-39   0.000000e+00   0.000000e+00
      800000   7.999990e-06   9.101775e+00   1.837186e+01   3.804504e+01   1.125222e+06   6.244322e+05   2.290813e+06  -9.238678e+00   1.664802e+01  -9.513934e-21   2.627521e+06   6.033075e-39   0.000000e+00   0.000000e+00
      808000   8.079990e-06   9.191793e+00   1.842181e+01   3.822831e+01   1.125222e+06   6.244322e+05   2.290813e+06  -2.972285e+00   5.356034e+00   3.660905e-20   2.627521e+06   6.254375e-40   0.000000e+00   0.000000e+00
      816000   8.159990e-06   9.281811e+00   1.847176e+01   3.841157e+01   1.125222e+06   6.244322e+05   2.290813e+06   2.692448e+01  -4.851768e+01   5.776209e-20   2.627521e+06   5.118665e-38   0.000000e+00   0.000000e+00
      824000   8.239990e-06   9.371828e+00   1.852172e+01   3.859484e+01   1.125222e+06   6.244322e+05   2.290813e+06   7.353495e+00  -1.325094e+01   1.315589e-20   2.627521e+06   3.815117e-39   0.000000e+00   0.000000e+00
      832000   8.319990e-06   9.461846e+00   1.857167e+01   3.877810e+01   1.125222e+06   6.244322e+05   2.290813e+06  -1.348941e+01   2.430780e+01   2.740520e-20   2.627521e+06   1.284854e-38   0.000000e+00   0.000000e+00
      840000   8.399990e-06   9.551864e+00   1.862163e+01   3.896137e+01   1.125222e+06   6.244322e+05   2.290813e+06   1.195961e+01  -2.155112e+01   8.026033e-20   2.627521e+06   1.008936e-38   0.000000e+00   0.000000e+00
      848000   8.479990e-06   9.641881e+00   1.867158e+01   3.914464e+01   1.125222e+06   6.244322e+05   2.290813e+06  -3.279145e+01   5.908992e+01   9.487579e-20   2.627521e+06   7.591405e-38   0.000000e+00   0.000000e+00
      856000   8.559990e-06   9.731899e+00   1.872154e+01   3.932790e+01   1.125222e+06   6.244322e+05   2.290813e+06   2.223210e+00  -4.006205e+00   2.939776e-21   2.627521e+06   3.487387e-40   0.000000e+00   0.000000e+00
      864000   8.639990e-06   9.821917e+00   1.877149e+01   3.951117e+01   1.125222e+06   6.244322e+05   2.290813e+06  -1.211204e+01   2.182580e+01   1.129145e-20   2.627521e+06   1.035749e-38   0.000000e+00   0.000000e+00
      872000   8.719990e-06   9.911935e+00   1.882145e+01   3.969443e+01   1.125222e+06   6.244322e+05   2.290813e+06   6.425395e+00  -1.157851e+01   7.339361e-20   2.627521e+06   2.903946e-39   0.000000e+00   0.000000e+00
      880000   8.799990e-06   1.000195e+01   1.887140e+01   3.987770e+01   1.125222e+06   6.244322e+05   2.290813e+06   1.082454e+01  -1.950574e+01  -3.650364e-21   2.627521e+06   8.268304e-39   0.000000e+00   0.000000e+00
      888000   8.879990e-06   1.009197e+01   1.892136e+01   4.006096e+01   1.125222e+06   6.244322e+05   2.290813e+06  -2.852546e+01   5.140265e+01   1.161657e-19   2.627521e+06   5.745322e-38   0.000000e+00   0.000000e+00
      896000   8.959990e-06   1.018199e+01   1.897131e+01   4.024423e+01   1.125222e+06   6.244322e+05   2.290813e+06  -2.765455e+01   4.983328e+01  -3.472054e-21   2.627521e+06   5.402469e-38   0.000000e+00   0.000000e+00
      904000   9.039990e-06   1.027201e+01   1.902126e+01   4.042749e+01   1.125222e+06   6.244322e+05   2.290813e+06   3.430499e+00  -6.181731e+00  -2.012101e-20   2.627521e+06   8.285594e-40   0.000000e+00   0.000000e+00
      912000   9.119990e-06   1.036202e+01   1.907122e+01   4.061076e+01   1.125222e+06   6.244322e+05   2.290813e+06  -1.904274e+01   3.431487e+01  -7.546215e-20   2.627521e+06   2.561320e-38   0.000000e+00   0.000000e+00
      920000   9.199990e-06   1.045204e+01   1.912117e+01   4.079402e+01   1.125222e+06   6.244322e+05   2.290813e+06  -3.803128e+01   6.853206e+01  -1.062251e-20   2.627521e+06   1.021140e-37   0.000000e+00   0.000000e+00
      928000   9.279990e-06   1.054206e+01   1.917113e+01   4.097729e+01   1.125222e+06   6.244322e+05   2.290813e+06  -1.052771e+01   1.897084e+01   1.005605e-19   2.627521e+06   7.828808e-39   0.000000e+00   0.000000e+00
      936000   9.359990e-06   1.063208e+01   1.922108e+01   4.116055e+01   1.125222e+06   6.244322e+05   2.290813e+06  -2.340814e+01   4.218128e+01  -2.085126e-19   2.627521e+06   3.872194e-38   0.000000e+00   0.000000e+00
      944000   9.439990e-06   1.072209e+01   1.927104e+01   4.134382e+01   1.125222e+06   6.244322e+05   2.290813e+06   9.492965e-01  -1.710624e+00   4.234575e-21   2.627521e+06   6.269843e-41   0.000000e+00   0.000000e+00
      952000   9.519990e-06   1.081211e+01   1.932099e+01   4.152708e+01   1.125222e+06   6.244322e+05   2.290813e+06  -2.735206e+01   4.928819e+01  -1.508817e-20   2.627521e+06   5.283273e-38   0.000000e+00   0.000000e+00
      960000   9.599990e-06   1.090213e+01   1.937095e+01   4.171035e+01   1.125222e+06   6.244322e+05   2.290813e+06  -6.077093e+00   1.095087e+01  -2.007812e-20   2.627521e+06   2.609948e-39   0.000000e+00   0.000000e+00
      968000   9.679990e-06   1.099215e+01   1.942090e+01   4.189361e+01   1.125222e+06   6.244322e+05   2.290813e+06  -5.722770e+01   1.031238e+02   4.301215e-19   2.627521e+06   2.312208e-37   0.000000e+00   0.000000e+00
      976000   9.759990e-06   1.108217e+01   1.947086e+01   4.207688e+01   1.125222e+06   6.244322e+05   2.290813e+06  -4.157825e+01   7.492367e+01   1.679616e-19   2.627521e+06   1.221150e-37   0.000000e+00   0.000000e+00
      984000   9.839990e-06   1.117218e+01   1.952081e+01   4.226014e+01   1.125222e+06   6.244322e+05   2.290813e+06   1.386722e+00  -2.498861e+00  -1.036036e-20   2.627521e+06   1.350603e-40   0.000000e+00   0.000000e+00
      992000   9.919990e-06   1.126220e+01   1.957077e+01   4.244341e+01   1.125222e+06   6.244322e+05   2.290813e+06  -3.096480e+01   5.579832e+01   1.217438e-19   2.627521e+06   6.769127e-38   0.000000e+00   0.000000e+00
     1000000   9.999990e-06   1.135222e+01   1.962072e+01   4.262667e+01   1.125222e+06   6.244322e+05   2.290813e+06  -2.775298e+01   5.001064e+01   3.067650e-20   2.627521e+06   5.444747e-38   0.000000e+00   0.000000e+00
     1008000   1.007999e-05   1.144224e+01   1.967067e+01   4.280994e+01   1.125222e+06   6.244322e+05   2.290813e+06  -4.939554e+00   8.901035e+00  -1.939711e-20   2.627521e+06   1.725700e-39   0.000000e+00   0.000000e+00
     1016000   1.015999e-05   1.153225e+01   1.972063e+01   4.299320e+01   1.125222e+06   6.244322e+05   2.290813e+06  -4.688359e+01   8.448384e+01   1.536337e-19   2.627521e+06   1.551680e-37   0.000000e+00   0.000000e+00
     1024000   1.023999e-05   1.162227e+01   1.977058e+01   4.317647e+01   1.125222e+06   6.244322e+05   2.290813e+06  -6.942095e+01   1.250960e+02  -8.504731e-20   2.627521e+06   3.403649e-37   0.000000e+00   0.000000e+00
     1032000   1.031999e-05   1.171229e+01   1.982054e+01   4.335973e+01   1.125222e+06   6.244322e+05   2.290813e+06  -1.009327e+01   1.818799e+01  -2.171265e-20   2.627521e+06   7.208147e-39   0.000000e+00   0.000000e+00
     1040000   1.039999e-05   1.180231e+01   1.987049e+01   4.354300e+01   1.125222e+06   6.244322e+05   2.290813e+06  -5.168611e+01   9.313794e+01  -1.717634e-20   2.627521e+06   1.886287e-37   0.000000e+00   0.000000e+00
     1048000   1.047999e-05   1.189233e+01   1.992045e+01   4.372626e+01   1.125222e+06   6.244322e+05   2.290813e+06  -6.090195e+01   1.097448e+02  -6.168587e-19   2.627521e+06   2.619699e-37   0.000000e+00   0.000000e+00
     1056000   1.055999e-05   1.198234e+01   1.997040e+01   4.390953e+01   1.125222e+06   6.244322e+05   2.290813e+06  -8.488966e+00   1.529705e+01   4.225057e-20   2.627521e+06   5.099148e-39   0.000000e+00   0.000000e+00
     1064000   1.063999e-05   1.207236e+01   2.002036e+01   4.409279e+01   1.125222e+06   6.244322e+05   2.290813e+06  -1.032968e+00   1.861400e+00  -1.140479e-20   2.627521e+06   7.724177e-41   0.000000e+00   0.000000e+00
     1072000   1.071999e-05   1.216238e+01   2.007031e+01   4.427606e+01   1.125222e+06   6.244322e+05   2.290813e+06  -4.735264e+01   8.532907e+01   2.315104e-19   2.627521e+06   1.583544e-37   0.000000e+00   0.000000e+00
     1080000   1.079999e-05   1.225240e+01   2.012027e+01   4.445932e+01   1.125222e+06   6.244322e+05   2.290813e+06  -3.365394e+01   6.064412e+01  -3.096158e-19   2.627521e+06   8.007518e-38   0.000000e+00   0.000000e+00
     1088000   1.087999e-05   1.234241e+01   2.017022e+01   4.464259e+01   1.125222e+06   6.244322e+05   2.290813e+06  -5.161757e+01   9.301444e+01   4.757965e-19   2.627521e+06   1.881790e-37   0.000000e+00   0.000000e+00
     1096000   1.095999e-05   1.243243e+01   2.022017e+01   4.482585e+01   1.125222e+06   6.244322e+05   2.290813e+06  -5.831781e+01   1.050882e+02   1.384333e-20   2.627521e+06   2.402685e-37   0.000000e+00   0.000000e+00
     1104000   1.103999e-05   1.252245e+01   2.027013e+01   4.500912e+01   1.125222e+06   6.244322e+05   2.290813e+06  -6.732723e+01   1.213231e+02   2.162675e-19   2.627521e+06   3.202070e-37   0.000000e+00   0.000000e+00
     1112000   1.111999e-05   1.261247e+01   2.032008e+01   4.519238e+01   1.125222e+06   6.244322e+05   2.290813e+06  -6.513570e+01   1.173740e+02   2.919887e-19   2.627521e+06   2.996932e-37   0.000000e+00   0.000000e+00
     1120000   1.119999e-05   1.270248e+01   2.037004e+01   4.537565e+01   1.125222e+06   6.244322e+05   2.290813e+06  -9.588286e+01   1.727801e+02   3.872457e-19   2.627521e+06   6.494195e-37   0.000000e+00   0.000000e+00
     1128000   1.127999e-05   1.279250e+01   2.041999e+01   4.555891e+01   1.125222e+06   6.244322e+05   2.290813e+06  -3.816530e+01   6.877357e+01  -1.599095e-19   2.627521e+06   1.029580e-37   0.000000e+00   0.000000e+00
     1136000   1.135999e-05   1.288252e+01   2.046995e+01   4.574218e+01   1.125222e+06   6.244322e+05   2.290813e+06  -1.039241e+02   1.872703e+02   1.553181e-19   2.627521e+06   7.627562e-37   0.000000e+00   0.000000e+00
     1144000   1.143999e-05   1.297254e+01   2.051990e+01   4.592544e+01   1.125222e+06   6.244322e+05   2.290813e+06  -5.524997e+01   9.955999e+01  -1.072657e-19   2.627521e+06   2.157535e-37   0.000000e+00   0.000000e+00
     1152000   1.151999e-05   1.306256e+01   2.056986e+01   4.610871e+01   1.125222e+06   6.244322e+05   2.290813e+06  -8.169719e+01   1.472177e+02   6.764577e-19   2.627521e+06   4.714092e-37   0.000000e+00   0.000000e+00
     1160000   1.159999e-05   1.315257e+01   2.061981e+01   4.629197e+01   1.125222e+06   6.244322e+05   2.290813e+06  -1.094944e+02   1.973080e+02   3.029296e-19   2.627521e+06   8.467605e-37   0.000000e+00   0.000000e+00
     1168000   1.167999e-05   1.324259e+01   2.066977e+01   4.647524e+01   1.125222e+06   6.244322e+05   2.290813e+06  -1.070655e+02   1.929311e+02   3.101160e-19   2.627521e+06   8.097031e-37   0.000000e+00   0.000000e+00
     1176000   1.175999e-05   1.333261e+01   2.071972e+01   4.665850e+01   1.125222e+06   6.244322e+05   2.290813e+06  -1.198808e+02   2.160243e+02   7.631692e-19   2.627521e+06   1.015029e-36   0.000000e+00   0.000000e+00
     1184000   1.183999e-05   1.342263e+01   2.076968e+01   4.684177e+01   1.125222e+06   6.244322e+05   2.290813e+06  -1.175263e+02   2.117814e+02  -6.553837e-20   2.627521e+06   9.757738e-37   0.000000e+00   0.000000e+00
     1192000   1.191999e-05   1.351264e+01   2.081963e+01   4.702503e+01   1.125222e+06   6.244322e+05   2.290813e+06  -1.168434e+02   2.105508e+02   5.162858e-19   2.627521e+06   9.642397e-37   0.000000e+00   0.000000e+00
     1200000   1.199999e-05   1.360266e+01   2.086958e+01   4.720830e+01   1.125222e+06   6.244322e+05   2.290813e+06  -1.435537e+02   2.586825e+02  -8.402004e-19   2.627521e+06   1.455662e-36   0.000000e+00   0.000000e+00
     1208000   1.207999e-05   1.369268e+01   2.091954e+01   4.739156e+01   1.125222e+06   6.244322e+05   2.290813e+06  -1.553611e+02   2.799594e+02   1.633703e-18   2.627521e+06   1.704880e-36   0.000000e+00   0.000000e+00
     1216000   1.215999e-05   1.378270e+01   2.096949e+01   4.757483e+01   1.125222e+06   6.244322e+05   2.290813e+06  -1.734940e+02   3.126347e+02  -5.133612e-19   2.627521e+06   2.126119e-36   0.000000e+00   0.000000e+00
     1224000   1.223999e-05   1.387272e+01   2.101945e+01   4.775809e+01   1.125222e+06   6.244322e+05   2.290813e+06  -1.580563e+02   2.848161e+02  -4.617918e-19   2.627521e+06   1.764400e-36   0.000000e+00   0.000000e+00
     1232000   1.231999e-05   1.396273e+01   2.106940e+01   4.794136e+01   1.125222e+06   6.244322e+05   2.290813e+06  -2.369347e+02   4.269543e+02   8.377757e-20   2.627521e+06   3.964955e-36   0.000000e+00   0.000000e+00
     1240000   1.239999e-05   1.405275e+01   2.111936e+01   4.812462e+01   1.125222e+06   6.244322e+05   2.290813e+06  -1.634598e+02   2.945532e+02   4.533393e-20   2.627521e+06   1.887421e-36   0.000000e+00   0.000000e+00
     1248000   1.247999e-05   1.414277e+01   2.116931e+01   4.830789e+01   1.125222e+06   6.244322e+05   2.290813e+06  -2.261155e+02   4.074583e+02   5.182953e-19   2.627521e+06   3.611310e-36   0.000000e+00   0.000000e+00
     1256000   1.255999e-05   1.423279e+01   2.121927e+01   4.849115e+01   1.125222e+06   6.244322e+05   2.290813e+06  -2.135815e+02   3.848720e+02   5.159447e-19   2.627521e+06   3.222006e-36   0.000000e+00   0.000000e+00
     1264000   1.263999e-05   1.432280e+01   2.126922e+01   4.867442e+01   1.125222e+06   6.244322e+05   2.290813e+06  -2.145195e+02   3.865623e+02  -7.267802e-19   2.627521e+06   3.250690e-36   0.000000e+00   0.000000e+00
     1272000   1.271999e-05   1.441282e+01   2.131918e+01   4.885768e+01   1.125222e+06   6.244322e+05   2.290813e+06  -2.249960e+02   4.054410e+02  -3.389692e-19   2.627521e+06   3.576130e-36   0.000000e+00   0.000000e+00
     1280000   1.279999e-05   1.450284e+01   2.136913e+01   4.904095e+01   1.125222e+06   6.244322e+05   2.290813e+06  -2.224716e+02   4.008921e+02  -1.271955e-18   2.627521e+06   3.496344e-36   0.000000e+00   0.000000e+00
     1288000   1.287999e-05   1.459286e+01   2.141908e+01   4.922421e+01   1.125222e+06   6.244322e+05   2.290813e+06  -2.727639e+02   4.915182e+02  -2.781053e-19   2.627521e+06   5.254989e-36   0.000000e+00   0.000000e+00
     1296000   1.295999e-05   1.468288e+01   2.146904e+01   4.940748e+01   1.125222e+06   6.244322e+05   2.290813e+06  -3.052766e+02   5.501059e+02  -2.642710e-19   2.627521e+06   6.582829e-36   0.000000e+00   0.000000e+00
     1304000   1.303999e-05   1.477289e+01   2.151899e+01   4.959074e+01   1.125222e+06   6.244321e+05   2.290813e+06  -2.881386e+02   5.192235e+02  -6.712993e-19   2.627521e+06   5.864984e-36   0.000000e+00   0.000000e+00
     1312000   1.311999e-05   1.486291e+01   2.156895e+01   4.977401e+01   1.125238e+06   6.243829e+05   2.290818e+06   5.044420e+08  -1.510782e+09   1.639978e+08   2.627521e+06   4.262764e-23   0.000000e+00   0.000000e+00
     1320000   1.319999e-05   1.495293e+01   2.161889e+01   4.995727e+01   1.125253e+06   6.243386e+05   2.290823e+06   0.000000e+00   0.000000e+00   0.000000e+00   2.627521e+06   0.000000e+00   0.000000e+00   0.000000e+00
