     timestep     time              x             y              z              vx             vy             vz             ax             ay             az         v_magnitude      ELoss        Electronic      Nuclear
           0   0.000000e+00   1.000000e-01   1.242689e+01   1.456747e+01   1.087474e+06   1.680723e+05   4.202084e+05   0.000000e+00   0.000000e+00   0.000000e+00   1.177889e+06   0.000000e+00   0.000000e+00   0.000000e+00
        8000   7.999000e-08   1.869979e-01   1.244034e+01   1.460109e+01   1.087474e+06   1.680723e+05   4.202084e+05   0.000000e+00   0.000000e+00   0.000000e+00   1.177889e+06   0.000000e+00   0.000000e+00   0.000000e+00
       16000   1.599900e-07   2.739958e-01   1.245379e+01   1.463470e+01   1.087474e+06   1.680723e+05   4.202084e+05   0.000000e+00   0.000000e+00   0.000000e+00   1.177889e+06   0.000000e+00   0.000000e+00   0.000000e+00
       24000   2.399900e-07   3.609937e-01   1.246723e+01   1.466832e+01   1.087474e+06   1.680723e+05   4.202084e+05   0.000000e+00   0.000000e+00   0.000000e+00   1.177889e+06   0.000000e+00   0.000000e+00   0.000000e+00
       32000   3.199900e-07   4.479917e-01   1.248068e+01   1.470194e+01   1.087474e+06   1.680723e+05   4.202084e+05   0.000000e+00   0.000000e+00   0.000000e+00   1.177889e+06   0.000000e+00   0.000000e+00   0.000000e+00
       40000   3.999900e-07   5.349896e-01   1.249412e+01   1.473555e+01   1.087474e+06   1.680723e+05   4.202084e+05   0.000000e+00   0.000000e+00   0.000000e+00   1.177889e+06   0.000000e+00   0.000000e+00   0.000000e+00
       48000   4.799900e-07   6.219875e-01   1.250757e+01   1.476917e+01   1.087474e+06   1.680723e+05   4.202084e+05   0.000000e+00   0.000000e+00   0.000000e+00   1.177889e+06   0.000000e+00   0.000000e+00   0.000000e+00
       56000   5.599900e-07   7.089854e-01   1.252101e+01   1.480279e+01   1.087474e+06   1.680723e+05   4.202084e+05   0.000000e+00   0.000000e+00   0.000000e+00   1.177889e+06   0.000000e+00   0.000000e+00   0.000000e+00
       64000   6.399900e-07   7.959833e-01   1.253446e+01   1.483640e+01   1.087474e+06   1.680723e+05   4.202084e+05   0.000000e+00   0.000000e+00   0.000000e+00   1.177889e+06   0.000000e+00   0.000000e+00   0.000000e+00
       72000   7.199900e-07   8.829812e-01   1.254791e+01   1.487002e+01   1.087474e+06   1.680723e+05   4.202084e+05   0.000000e+00   0.000000e+00   0.000000e+00   1.177889e+06   0.000000e+00   0.000000e+00   0.000000e+00
       80000   7.999900e-07   9.699792e-01   1.256135e+01   1.490364e+01   1.087474e+06   1.680723e+05   4.202084e+05   0.000000e+00   0.000000e+00   0.000000e+00   1.177889e+06   0.000000e+00   0.000000e+00   0.000000e+00
       88000   8.799900e-07   1.056977e+00   1.257480e+01   1.493725e+01   1.087474e+06   1.680723e+05   4.202084e+05   0.000000e+00   0.000000e+00   0.000000e+00   1.177889e+06   0.000000e+00   0.000000e+00   0.000000e+00
       96000   9.599900e-07   1.143975e+00   1.258824e+01   1.497087e+01   1.087474e+06   1.680723e+05   4.202084e+05   0.000000e+00   0.000000e+00   0.000000e+00   1.177889e+06   0.000000e+00   0.000000e+00   0.000000e+00
      104000   1.039990e-06   1.230973e+00   1.260169e+01   1.500449e+01   1.087474e+06   1.680723e+05   4.202084e+05   0.000000e+00   0.000000e+00   0.000000e+00   1.177889e+06   0.000000e+00   0.000000e+00   0.000000e+00
      112000   1.119990e-06   1.317971e+00   1.261513e+01   1.503810e+01   1.087474e+06   1.680723e+05   4.202084e+05   0.000000e+00   0.000000e+00   0.000000e+00   1.177889e+06   0.000000e+00   0.000000e+00   0.000000e+00
      120000   1.199990e-06   1.404969e+00   1.262858e+01   1.507172e+01   1.087474e+06   1.680723e+05   4.202084e+05   0.000000e+00   0.000000e+00   0.000000e+00   1.177889e+06   0.000000e+00   0.000000e+00   0.000000e+00
      128000   1.279990e-06   1.491967e+00   1.264203e+01   1.510534e+01   1.087474e+06   1.680723e+05   4.202084e+05   0.000000e+00   0.000000e+00   0.000000e+00   1.177889e+06   0.000000e+00   0.000000e+00   0.000000e+00
      136000   1.359990e-06   1.578965e+00   1.265547e+01   1.513895e+01   1.087474e+06   1.680723e+05   4.202084e+05   0.000000e+00   0.000000e+00   0.000000e+00   1.177889e+06   0.000000e+00   0.000000e+00   0.000000e+00
      144000   1.439990e-06   1.665962e+00   1.266892e+01   1.517257e+01   1.087474e+06   1.680723e+05   4.202084e+05   0.000000e+00   0.000000e+00   0.000000e+00   1.177889e+06   0.000000e+00   0.000000e+00   0.000000e+00
      152000   1.519990e-06   1.752960e+00   1.268236e+01   1.520619e+01   1.087474e+06   1.680723e+05   4.202084e+05   0.000000e+00   0.000000e+00   0.000000e+00   1.177889e+06   0.000000e+00   0.000000e+00   0.000000e+00
      160000   1.599990e-06   1.839958e+00   1.269581e+01   1.523980e+01   1.087474e+06   1.680723e+05   4.202084e+05   0.000000e+00   0.000000e+00   0.000000e+00   1.177889e+06   0.000000e+00   0.000000e+00   0.000000e+00
      168000   1.679990e-06   1.926956e+00   1.270926e+01   1.527342e+01   1.087474e+06   1.680723e+05   4.202084e+05   0.000000e+00   0.000000e+00   0.000000e+00   1.177889e+06   0.000000e+00   0.000000e+00   0.000000e+00
      176000   1.759990e-06   2.013954e+00   1.272270e+01   1.530704e+01   1.087474e+06   1.680723e+05   4.202084e+05   0.000000e+00   0.000000e+00   0.000000e+00   1.177889e+06   0.000000e+00   0.000000e+00   0.000000e+00
      184000   1.839990e-06   2.100952e+00   1.273615e+01   1.534065e+01   1.087474e+06   1.680723e+05   4.202084e+05   0.000000e+00   0.000000e+00   0.000000e+00   1.177889e+06   0.000000e+00   0.000000e+00   0.000000e+00
      192000   1.919990e-06   2.187950e+00   1.274959e+01   1.537427e+01   1.087474e+06   1.680723e+05   4.202084e+05   0.000000e+00   0.000000e+00   0.000000e+00   1.177889e+06   0.000000e+00   0.000000e+00   0.000000e+00
      200000   1.999990e-06   2.274948e+00   1.276304e+01   1.540789e+01   1.087474e+06   1.680723e+05   4.202084e+05   0.000000e+00   0.000000e+00   0.000000e+00   1.177889e+06   0.000000e+00   0.000000e+00   0.000000e+00
      208000   2.079990e-06   2.361946e+00   1.277648e+01   1.544150e+01   1.087474e+06   1.680723e+05   4.202084e+05   0.000000e+00   0.000000e+00   0.000000e+00   1.177889e+06   0.000000e+00   0.000000e+00   0.000000e+00
      216000   2.159990e-06   2.448944e+00   1.278993e+01   1.547512e+01   1.087474e+06   1.680723e+05   4.202084e+05   0.000000e+00   0.000000e+00   0.000000e+00   1.177889e+06   0.000000e+00   0.000000e+00   0.000000e+00
      224000   2.239990e-06   2.535942e+00   1.280338e+01   1.550874e+01   1.087474e+06   1.680723e+05   4.202084e+05   0.000000e+00   0.000000e+00   0.000000e+00   1.177889e+06   0.000000e+00   0.000000e+00   0.000000e+00
      232000   2.319990e-06   2.622940e+00   1.281682e+01   1.554235e+01   1.087474e+06   1.680723e+05   4.202084e+05   0.000000e+00   0.000000e+00   0.000000e+00   1.177889e+06   0.000000e+00   0.000000e+00   0.000000e+00
      240000   2.399990e-06   2.709937e+00   1.283027e+01   1.557597e+01   1.087474e+06   1.680723e+05   4.202084e+05   0.000000e+00   0.000000e+00   0.000000e+00   1.177889e+06   0.000000e+00   0.000000e+00   0.000000e+00
      248000   2.479990e-06   2.796935e+00   1.284371e+01   1.560959e+01   1.087474e+06   1.680723e+05   4.202084e+05   0.000000e+00   0.000000e+00   0.000000e+00   1.177889e+06   0.000000e+00   0.000000e+00   0.000000e+00
      256000   2.559990e-06   2.883933e+00   1.285716e+01   1.564320e+01   1.087474e+06   1.680723e+05   4.202084e+05   0.000000e+00   0.000000e+00   0.000000e+00   1.177889e+06   0.000000e+00   0.000000e+00   0.000000e+00
      264000   2.639990e-06   2.970931e+00   1.287060e+01   1.567682e+01   1.087474e+06   1.680723e+05   4.202084e+05   0.000000e+00   0.000000e+00   0.000000e+00   1.177889e+06   0.000000e+00   0.000000e+00   0.000000e+00
      272000   2.719990e-06   3.057929e+00   1.288405e+01   1.571044e+01   1.087474e+06   1.680723e+05   4.202084e+05   0.000000e+00   0.000000e+00   0.000000e+00   1.177889e+06   0.000000e+00   0.000000e+00   0.000000e+00
      280000   2.799990e-06   3.144927e+00   1.289750e+01   1.574405e+01   1.087474e+06   1.680723e+05   4.202084e+05   0.000000e+00   0.000000e+00   0.000000e+00   1.177889e+06   0.000000e+00   0.000000e+00   0.000000e+00
      288000   2.879990e-06   3.231925e+00   1.291094e+01   1.577767e+01   1.087474e+06   1.680723e+05   4.202084e+05   0.000000e+00   0.000000e+00   0.000000e+00   1.177889e+06   0.000000e+00   0.000000e+00   0.000000e+00
      296000   2.959990e-06   3.318923e+00   1.292439e+01   1.581129e+01   1.087474e+06   1.680723e+05   4.202084e+05   0.000000e+00   0.000000e+00   0.000000e+00   1.177889e+06   0.000000e+00   0.000000e+00   0.000000e+00
      304000   3.039990e-06   3.405921e+00   1.293783e+01   1.584490e+01   1.087474e+06   1.680723e+05   4.202084e+05   0.000000e+00   0.000000e+00   0.000000e+00   1.177889e+06   0.000000e+00   0.000000e+00   0.000000e+00
      312000   3.119990e-06   3.492919e+00   1.295128e+01   1.587852e+01   1.087474e+06   1.680723e+05   4.202084e+05   0.000000e+00   0.000000e+00   0.000000e+00   1.177889e+06   0.000000e+00   0.000000e+00   0.000000e+00
      320000   3.199990e-06   3.579917e+00   1.296473e+01   1.591214e+01   1.087474e+06   1.680723e+05   4.202084e+05   0.000000e+00   0.000000e+00   0.000000e+00   1.177889e+06   0.000000e+00   0.000000e+00   0.000000e+00
      328000   3.279990e-06   3.666915e+00   1.297817e+01   1.594575e+01   1.087474e+06   1.680723e+05   4.202084e+05   0.000000e+00   0.000000e+00   0.000000e+00   1.177889e+06   0.000000e+00   0.000000e+00   0.000000e+00
      336000   3.359990e-06   3.753912e+00   1.299162e+01   1.597937e+01   1.087474e+06   1.680723e+05   4.202084e+05   0.000000e+00   0.000000e+00   0.000000e+00   1.177889e+06   0.000000e+00   0.000000e+00   0.000000e+00
      344000   3.439990e-06   3.840910e+00   1.300506e+01   1.601299e+01   1.087474e+06   1.680723e+05   4.202084e+05   0.000000e+00   0.000000e+00   0.000000e+00   1.177889e+06   0.000000e+00   0.000000e+00   0.000000e+00
      352000   3.519990e-06   3.927908e+00   1.301851e+01   1.604660e+01   1.087474e+06   1.680723e+05   4.202084e+05   0.000000e+00   0.000000e+00   0.000000e+00   1.177889e+06   0.000000e+00   0.000000e+00   0.000000e+00
      360000   3.599990e-06   4.014906e+00   1.303195e+01   1.608022e+01   1.087474e+06   1.680723e+05   4.202084e+05   0.000000e+00   0.000000e+00   0.000000e+00   1.177889e+06   0.000000e+00   0.000000e+00   0.000000e+00
      368000   3.679990e-06   4.101904e+00   1.304540e+01   1.611384e+01   1.087474e+06   1.680723e+05   4.202084e+05   0.000000e+00   0.000000e+00   0.000000e+00   1.177889e+06   0.000000e+00   0.000000e+00   0.000000e+00
      376000   3.759990e-06   4.188902e+00   1.305885e+01   1.614745e+01   1.087474e+06   1.680723e+05   4.202084e+05   0.000000e+00   0.000000e+00   0.000000e+00   1.177889e+06   0.000000e+00   0.000000e+00   0.000000e+00
      384000   3.839990e-06   4.275900e+00   1.307229e+01   1.618107e+01   1.087474e+06   1.680723e+05   4.202084e+05   0.000000e+00   0.000000e+00   0.000000e+00   1.177889e+06   0.000000e+00   0.000000e+00   0.000000e+00
      392000   3.919990e-06   4.362898e+00   1.308574e+01   1.621469e+01   1.087474e+06   1.680723e+05   4.202084e+05   0.000000e+00   0.000000e+00   0.000000e+00   1.177889e+06   0.000000e+00   0.000000e+00   0.000000e+00
      400000   3.999990e-06   4.449896e+00   1.309918e+01   1.624830e+01   1.087474e+06   1.680723e+05   4.202084e+05   0.000000e+00   0.000000e+00   0.000000e+00   1.177889e+06   0.000000e+00   0.000000e+00   0.000000e+00
      408000   4.079990e-06   4.536894e+00   1.311263e+01   1.628192e+01   1.087474e+06   1.680723e+05   4.202084e+05   0.000000e+00   0.000000e+00   0.000000e+00   1.177889e+06   0.000000e+00   0.000000e+00   0.000000e+00
      416000   4.159990e-06   4.623892e+00   1.312607e+01   1.631554e+01   1.087474e+06   1.680723e+05   4.202084e+05   0.000000e+00   0.000000e+00   0.000000e+00   1.177889e+06   0.000000e+00   0.000000e+00   0.000000e+00
      424000   4.239990e-06   4.710890e+00   1.313952e+01   1.634915e+01   1.087474e+06   1.680723e+05   4.202084e+05   0.000000e+00   0.000000e+00   0.000000e+00   1.177889e+06   0.000000e+00   0.000000e+00   0.000000e+00
      432000   4.319990e-06   4.797887e+00   1.315297e+01   1.638277e+01   1.087474e+06   1.680723e+05   4.202084e+05   0.000000e+00   0.000000e+00   0.000000e+00   1.177889e+06   0.000000e+00   0.000000e+00   0.000000e+00
      440000   4.399990e-06   4.884885e+00   1.316641e+01   1.641639e+01   1.087474e+06   1.680723e+05   4.202084e+05   0.000000e+00   0.000000e+00   0.000000e+00   1.177889e+06   0.000000e+00   0.000000e+00   0.000000e+00
      448000   4.479990e-06   4.971883e+00   1.317986e+01   1.645000e+01   1.087474e+06   1.680723e+05   4.202084e+05   0.000000e+00   0.000000e+00   0.000000e+00   1.177889e+06   0.000000e+00   0.000000e+00   0.000000e+00
      456000   4.559990e-06   5.058881e+00   1.319330e+01   1.648362e+01   1.087474e+06   1.680723e+05   4.202084e+05   0.000000e+00   0.000000e+00   0.000000e+00   1.177889e+06   0.000000e+00   0.000000e+00   0.000000e+00
      464000   4.639990e-06   5.145879e+00   1.320675e+01   1.651724e+01   1.087474e+06   1.680723e+05   4.202084e+05   0.000000e+00   0.000000e+00   0.000000e+00   1.177889e+06   0.000000e+00   0.000000e+00   0.000000e+00
      472000   4.719990e-06   5.232877e+00   1.322020e+01   1.655085e+01   1.087474e+06   1.680723e+05   4.202084e+05   0.000000e+00   0.000000e+00   0.000000e+00   1.177889e+06   0.000000e+00   0.000000e+00   0.000000e+00
      480000   4.799990e-06   5.319875e+00   1.323364e+01   1.658447e+01   1.087474e+06   1.680723e+05   4.202084e+05   0.000000e+00   0.000000e+00   0.000000e+00   1.177889e+06   0.000000e+00   0.000000e+00   0.000000e+00
      488000   4.879990e-06   5.406873e+00   1.324709e+01   1.661809e+01   1.087474e+06   1.680723e+05   4.202084e+05   0.000000e+00   0.000000e+00   0.000000e+00   1.177889e+06   0.000000e+00   0.000000e+00   0.000000e+00
      496000   4.959990e-06   5.493871e+00   1.326053e+01   1.665170e+01   1.087474e+06   1.680723e+05   4.202084e+05   0.000000e+00   0.000000e+00   0.000000e+00   1.177889e+06   0.000000e+00   0.000000e+00   0.000000e+00
      504000   5.039990e-06   5.580869e+00   1.327398e+01   1.668532e+01   1.087474e+06   1.680723e+05   4.202084e+05   0.000000e+00   0.000000e+00   0.000000e+00   1.177889e+06   0.000000e+00   0.000000e+00   0.000000e+00
      512000   5.119990e-06   5.667867e+00   1.328742e+01   1.671894e+01   1.087474e+06   1.680723e+05   4.202084e+05   0.000000e+00   0.000000e+00   0.000000e+00   1.177889e+06   0.000000e+00   0.000000e+00   0.000000e+00
      520000   5.199990e-06   5.754864e+00   1.330087e+01   1.675255e+01   1.087474e+06   1.680723e+05   4.202084e+05   0.000000e+00   0.000000e+00   0.000000e+00   1.177889e+06   0.000000e+00   0.000000e+00   0.000000e+00
      528000   5.279990e-06   5.841862e+00   1.331432e+01   1.678617e+01   1.087474e+06   1.680723e+05   4.202084e+05   0.000000e+00   0.000000e+00   0.000000e+00   1.177889e+06   0.000000e+00   0.000000e+00   0.000000e+00
      536000   5.359990e-06   5.928860e+00   1.332776e+01   1.681979e+01   1.087474e+06   1.680723e+05   4.202084e+05   0.000000e+00   0.000000e+00   0.000000e+00   1.177889e+06   0.000000e+00   0.000000e+00   0.000000e+00
      544000   5.439990e-06   6.015858e+00   1.334121e+01   1.685340e+01   1.087474e+06   1.680723e+05   4.202084e+05   0.000000e+00   0.000000e+00   0.000000e+00   1.177889e+06   0.000000e+00   0.000000e+00   0.000000e+00
      552000   5.519990e-06   6.102856e+00   1.335465e+01   1.688702e+01   1.087474e+06   1.680723e+05   4.202084e+05   0.000000e+00   0.000000e+00   0.000000e+00   1.177889e+06   0.000000e+00   0.000000e+00   0.000000e+00
      560000   5.599990e-06   6.189854e+00   1.336810e+01   1.692064e+01   1.087474e+06   1.680723e+05   4.202084e+05   0.000000e+00   0.000000e+00   0.000000e+00   1.177889e+06   0.000000e+00   0.000000e+00   0.000000e+00
      568000   5.679990e-06   6.276852e+00   1.338154e+01   1.695425e+01   1.087474e+06   1.680723e+05   4.202084e+05   0.000000e+00   0.000000e+00   0.000000e+00   1.177889e+06   0.000000e+00   0.000000e+00   0.000000e+00
      576000   5.759990e-06   6.363850e+00   1.339499e+01   1.698787e+01   1.087474e+06   1.680723e+05   4.202084e+05   0.000000e+00   0.000000e+00   0.000000e+00   1.177889e+06   0.000000e+00   0.000000e+00   0.000000e+00
      584000   5.839990e-06   6.450848e+00   1.340844e+01   1.702149e+01   1.087474e+06   1.680723e+05   4.202084e+05   0.000000e+00   0.000000e+00   0.000000e+00   1.177889e+06   0.000000e+00   0.000000e+00   0.000000e+00
      592000   5.919990e-06   6.537846e+00   1.342188e+01   1.705510e+01   1.087474e+06   1.680723e+05   4.202084e+05   0.000000e+00   0.000000e+00   0.000000e+00   1.177889e+06   0.000000e+00   0.000000e+00   0.000000e+00
      600000   5.999990e-06   6.624844e+00   1.343533e+01   1.708872e+01   1.087474e+06   1.680723e+05   4.202084e+05   0.000000e+00   0.000000e+00   0.000000e+00   1.177889e+06   0.000000e+00   0.000000e+00   0.000000e+00
      608000   6.079990e-06   6.711842e+00   1.344877e+01   1.712234e+01   1.087474e+06   1.680723e+05   4.202084e+05   0.000000e+00   0.000000e+00   0.000000e+00   1.177889e+06   0.000000e+00   0.000000e+00   0.000000e+00
      616000   6.159990e-06   6.798839e+00   1.346222e+01   1.715595e+01   1.087474e+06   1.680723e+05   4.202084e+05   0.000000e+00   0.000000e+00   0.000000e+00   1.177889e+06   0.000000e+00   0.000000e+00   0.000000e+00
      624000   6.239990e-06   6.885837e+00   1.347567e+01   1.718957e+01   1.087474e+06   1.680723e+05   4.202084e+05   0.000000e+00   0.000000e+00   0.000000e+00   1.177889e+06   0.000000e+00   0.000000e+00   0.000000e+00
      632000   6.319990e-06   6.972835e+00   1.348911e+01   1.722319e+01   1.087474e+06   1.680723e+05   4.202084e+05   0.000000e+00   0.000000e+00   0.000000e+00   1.177889e+06   0.000000e+00   0.000000e+00   0.000000e+00
      640000   6.399990e-06   7.059833e+00   1.350256e+01   1.725680e+01   1.087474e+06   1.680723e+05   4.202084e+05   0.000000e+00   0.000000e+00   0.000000e+00   1.177889e+06   0.000000e+00   0.000000e+00   0.000000e+00
      648000   6.479990e-06   7.146831e+00   1.351600e+01   1.729042e+01   1.087474e+06   1.680723e+05   4.202084e+05   0.000000e+00   0.000000e+00   0.000000e+00   1.177889e+06   0.000000e+00   0.000000e+00   0.000000e+00
      656000   6.559990e-06   7.233829e+00   1.352945e+01   1.732404e+01   1.087474e+06   1.680723e+05   4.202084e+05   0.000000e+00   0.000000e+00   0.000000e+00   1.177889e+06   0.000000e+00   0.000000e+00   0.000000e+00
      664000   6.639990e-06   7.320827e+00   1.354289e+01   1.735765e+01   1.087474e+06   1.680723e+05   4.202084e+05   0.000000e+00   0.000000e+00   0.000000e+00   1.177889e+06   0.000000e+00   0.000000e+00   0.000000e+00
      672000   6.719990e-06   7.407825e+00   1.355634e+01   1.739127e+01   1.087474e+06   1.680723e+05   4.202084e+05   0.000000e+00   0.000000e+00   0.000000e+00   1.177889e+06   0.000000e+00   0.000000e+00   0.000000e+00
      680000   6.799990e-06   7.494823e+00   1.356979e+01   1.742489e+01   1.087474e+06   1.680723e+05   4.202084e+05   0.000000e+00   0.000000e+00   0.000000e+00   1.177889e+06   0.000000e+00   0.000000e+00   0.000000e+00
      688000   6.879990e-06   7.581821e+00   1.358323e+01   1.745850e+01   1.087474e+06   1.680723e+05   4.202084e+05   0.000000e+00   0.000000e+00   0.000000e+00   1.177889e+06   0.000000e+00   0.000000e+00   0.000000e+00
      696000   6.959990e-06   7.668819e+00   1.359668e+01   1.749212e+01   1.087474e+06   1.680723e+05   4.202084e+05   0.000000e+00   0.000000e+00   0.000000e+00   1.177889e+06   0.000000e+00   0.000000e+00   0.000000e+00
      704000   7.039990e-06   7.755817e+00   1.361012e+01   1.752574e+01   1.087474e+06   1.680723e+05   4.202084e+05   0.000000e+00   0.000000e+00   0.000000e+00   1.177889e+06   0.000000e+00   0.000000e+00   0.000000e+00
      712000   7.119990e-06   7.842814e+00   1.362357e+01   1.755935e+01   1.087474e+06   1.680723e+05   4.202084e+05   0.000000e+00   0.000000e+00   0.000000e+00   1.177889e+06   0.000000e+00   0.000000e+00   0.000000e+00
      720000   7.199990e-06   7.929812e+00   1.363701e+01   1.759297e+01   1.087474e+06   1.680723e+05   4.202084e+05   0.000000e+00   0.000000e+00   0.000000e+00   1.177889e+06   0.000000e+00   0.000000e+00   0.000000e+00
      728000   7.279990e-06   8.016810e+00   1.365046e+01   1.762659e+01   1.087474e+06   1.680723e+05   4.202084e+05   0.000000e+00   0.000000e+00   0.000000e+00   1.177889e+06   0.000000e+00   0.000000e+00   0.000000e+00
      736000   7.359990e-06   8.103808e+00   1.366391e+01   1.766020e+01   1.087474e+06   1.680723e+05   4.202084e+05   0.000000e+00   0.000000e+00   0.000000e+00   1.177889e+06   0.000000e+00   0.000000e+00   0.000000e+00
      744000   7.439990e-06   8.190806e+00   1.367735e+01   1.769382e+01   1.087474e+06   1.680723e+05   4.202084e+05   0.000000e+00   0.000000e+00   0.000000e+00   1.177889e+06   0.000000e+00   0.000000e+00   0.000000e+00
      752000   7.519990e-06   8.277804e+00   1.369080e+01   1.772744e+01   1.087474e+06   1.680723e+05   4.202084e+05   0.000000e+00   0.000000e+00   0.000000e+00   1.177889e+06   0.000000e+00   0.000000e+00   0.000000e+00
      760000   7.599990e-06   8.364802e+00   1.370424e+01   1.776105e+01   1.087474e+06   1.680723e+05   4.202084e+05   0.000000e+00   0.000000e+00   0.000000e+00   1.177889e+06   0.000000e+00   0.000000e+00   0.000000e+00
      768000   7.679990e-06   8.451800e+00   1.371769e+01   1.779467e+01   1.087474e+06   1.680723e+05   4.202084e+05   0.000000e+00   0.000000e+00   0.000000e+00   1.177889e+06   0.000000e+00   0.000000e+00   0.000000e+00
      776000   7.759990e-06   8.538798e+00   1.373114e+01   1.782829e+01   1.087474e+06   1.680723e+05   4.202084e+05   0.000000e+00   0.000000e+00   0.000000e+00   1.177889e+06   0.000000e+00   0.000000e+00   0.000000e+00
      784000   7.839990e-06   8.625796e+00   1.374458e+01   1.786190e+01   1.087474e+06   1.680723e+05   4.202084e+05   0.000000e+00   0.000000e+00   0.000000e+00   1.177889e+06   0.000000e+00   0.000000e+00   0.000000e+00
      792000   7.919990e-06   8.712794e+00   1.375803e+01   1.789552e+01   1.087474e+06   1.680723e+05   4.202084e+05   0.000000e+00   0.000000e+00   0.000000e+00   1.177889e+06   0.000000e+00   0.000000e+00   0.000000e+00
      800000   7.999990e-06   8.799792e+00   1.377147e+01   1.792914e+01   1.087474e+06   1.680723e+05   4.202084e+05   0.000000e+00   0.000000e+00   0.000000e+00   1.177889e+06   0.000000e+00   0.000000e+00   0.000000e+00
      808000   8.079990e-06   8.886789e+00   1.378492e+01   1.796275e+01   1.087474e+06   1.680723e+05   4.202084e+05   0.000000e+00   0.000000e+00   0.000000e+00   1.177889e+06   0.000000e+00   0.000000e+00   0.000000e+00
      816000   8.159990e-06   8.973787e+00   1.379836e+01   1.799637e+01   1.087474e+06   1.680723e+05   4.202084e+05   0.000000e+00   0.000000e+00   0.000000e+00   1.177889e+06   0.000000e+00   0.000000e+00   0.000000e+00
      824000   8.239990e-06   9.060785e+00   1.381181e+01   1.802999e+01   1.087474e+06   1.680723e+05   4.202084e+05   0.000000e+00   0.000000e+00   0.000000e+00   1.177889e+06   0.000000e+00   0.000000e+00   0.000000e+00
      832000   8.319990e-06   9.147783e+00   1.382526e+01   1.806360e+01   1.087474e+06   1.680723e+05   4.202084e+05   0.000000e+00   0.000000e+00   0.000000e+00   1.177889e+06   0.000000e+00   0.000000e+00   0.000000e+00
      840000   8.399990e-06   9.234781e+00   1.383870e+01   1.809722e+01   1.087474e+06   1.680723e+05   4.202084e+05   0.000000e+00   0.000000e+00   0.000000e+00   1.177889e+06   0.000000e+00   0.000000e+00   0.000000e+00
      848000   8.479990e-06   9.321779e+00   1.385215e+01   1.813084e+01   1.087474e+06   1.680723e+05   4.202084e+05   0.000000e+00   0.000000e+00   0.000000e+00   1.177889e+06   0.000000e+00   0.000000e+00   0.000000e+00
      856000   8.559990e-06   9.408777e+00   1.386559e+01   1.816445e+01   1.087474e+06   1.680723e+05   4.202084e+05   0.000000e+00   0.000000e+00   0.000000e+00   1.177889e+06   0.000000e+00   0.000000e+00   0.000000e+00
      864000   8.639990e-06   9.495775e+00   1.387904e+01   1.819807e+01   1.087474e+06   1.680723e+05   4.202084e+05   0.000000e+00   0.000000e+00   0.000000e+00   1.177889e+06   0.000000e+00   0.000000e+00   0.000000e+00
      872000   8.719990e-06   9.582773e+00   1.389248e+01   1.823169e+01   1.087474e+06   1.680723e+05   4.202084e+05   0.000000e+00   0.000000e+00   0.000000e+00   1.177889e+06   0.000000e+00   0.000000e+00   0.000000e+00
      880000   8.799990e-06   9.669771e+00   1.390593e+01   1.826530e+01   1.087474e+06   1.680723e+05   4.202084e+05   0.000000e+00   0.000000e+00   0.000000e+00   1.177889e+06   0.000000e+00   0.000000e+00   0.000000e+00
      888000   8.879990e-06   9.756769e+00   1.391938e+01   1.829892e+01   1.087474e+06   1.680723e+05   4.202084e+05   0.000000e+00   0.000000e+00   0.000000e+00   1.177889e+06   0.000000e+00   0.000000e+00   0.000000e+00
      896000   8.959990e-06   9.843767e+00   1.393282e+01   1.833254e+01   1.087474e+06   1.680723e+05   4.202084e+05   0.000000e+00   0.000000e+00   0.000000e+00   1.177889e+06   0.000000e+00   0.000000e+00   0.000000e+00
      904000   9.039990e-06   9.930764e+00   1.394627e+01   1.836615e+01   1.087474e+06   1.680723e+05   4.202084e+05   0.000000e+00   0.000000e+00   0.000000e+00   1.177889e+06   0.000000e+00   0.000000e+00   0.000000e+00
      912000   9.119990e-06   1.001776e+01   1.395971e+01   1.839977e+01   1.087474e+06   1.680723e+05   4.202084e+05   0.000000e+00   0.000000e+00   0.000000e+00   1.177889e+06   0.000000e+00   0.000000e+00   0.000000e+00
      920000   9.199990e-06   1.010476e+01   1.397316e+01   1.843339e+01   1.087474e+06   1.680723e+05   4.202084e+05   0.000000e+00   0.000000e+00   0.000000e+00   1.177889e+06   0.000000e+00   0.000000e+00   0.000000e+00
      928000   9.279990e-06   1.019176e+01   1.398660e+01   1.846700e+01   1.087474e+06   1.680723e+05   4.202084e+05   0.000000e+00   0.000000e+00   0.000000e+00   1.177889e+06   0.000000e+00   0.000000e+00   0.000000e+00
      936000   9.359990e-06   1.027876e+01   1.400005e+01   1.850062e+01   1.087474e+06   1.680723e+05   4.202084e+05   0.000000e+00   0.000000e+00   0.000000e+00   1.177889e+06   0.000000e+00   0.000000e+00   0.000000e+00
      944000   9.439990e-06   1.036575e+01   1.401350e+01   1.853424e+01   1.087474e+06   1.680723e+05   4.202084e+05   0.000000e+00   0.000000e+00   0.000000e+00   1.177889e+06   0.000000e+00   0.000000e+00   0.000000e+00
      952000   9.519990e-06   1.045275e+01   1.402694e+01   1.856785e+01   1.087474e+06   1.680723e+05   4.202084e+05   0.000000e+00   0.000000e+00   0.000000e+00   1.177889e+06   0.000000e+00   0.000000e+00   0.000000e+00
      960000   9.599990e-06   1.053975e+01   1.404039e+01   1.860147e+01   1.087474e+06   1.680723e+05   4.202084e+05   0.000000e+00   0.000000e+00   0.000000e+00   1.177889e+06   0.000000e+00   0.000000e+00   0.000000e+00
      968000   9.679990e-06   1.062675e+01   1.405383e+01   1.863509e+01   1.087474e+06   1.680723e+05   4.202084e+05   0.000000e+00   0.000000e+00   0.000000e+00   1.177889e+06   0.000000e+00   0.000000e+00   0.000000e+00
      976000   9.759990e-06   1.071375e+01   1.406728e+01   1.866870e+01   1.087474e+06   1.680723e+05   4.202084e+05   0.000000e+00   0.000000e+00   0.000000e+00   1.177889e+06   0.000000e+00   0.000000e+00   0.000000e+00
      984000   9.839990e-06   1.080074e+01   1.408073e+01   1.870232e+01   1.087474e+06   1.680723e+05   4.202084e+05   0.000000e+00   0.000000e+00   0.000000e+00   1.177889e+06   0.000000e+00   0.000000e+00   0.000000e+00
      992000   9.919990e-06   1.088774e+01   1.409417e+01   1.873594e+01   1.087474e+06   1.680723e+05   4.202084e+05   0.000000e+00   0.000000e+00   0.000000e+00   1.177889e+06   0.000000e+00   0.000000e+00   0.000000e+00
     1000000   9.999990e-06   1.097474e+01   1.410762e+01   1.876955e+01   1.087474e+06   1.680723e+05   4.202084e+05   0.000000e+00   0.000000e+00   0.000000e+00   1.177889e+06   0.000000e+00   0.000000e+00   0.000000e+00
     1008000   1.007999e-05   1.106174e+01   1.412106e+01   1.880317e+01   1.087474e+06   1.680723e+05   4.202084e+05   0.000000e+00   0.000000e+00   0.000000e+00   1.177889e+06   0.000000e+00   0.000000e+00   0.000000e+00
     1016000   1.015999e-05   1.114874e+01   1.413451e+01   1.883679e+01   1.087474e+06   1.680723e+05   4.202084e+05   0.000000e+00   0.000000e+00   0.000000e+00   1.177889e+06   0.000000e+00   0.000000e+00   0.000000e+00
     1024000   1.023999e-05   1.123573e+01   1.414795e+01   1.887040e+01   1.087474e+06   1.680723e+05   4.202084e+05   0.000000e+00   0.000000e+00   0.000000e+00   1.177889e+06   0.000000e+00   0.000000e+00   0.000000e+00
     1032000   1.031999e-05   1.132273e+01   1.416140e+01   1.890402e+01   1.087474e+06   1.680723e+05   4.202084e+05   0.000000e+00   0.000000e+00   0.000000e+00   1.177889e+06   0.000000e+00   0.000000e+00   0.000000e+00
     1040000   1.039999e-05   1.140973e+01   1.417485e+01   1.893764e+01   1.087474e+06   1.680723e+05   4.202084e+05   0.000000e+00   0.000000e+00   0.000000e+00   1.177889e+06   0.000000e+00   0.000000e+00   0.000000e+00
     1048000   1.047999e-05   1.149673e+01   1.418829e+01   1.897125e+01   1.087474e+06   1.680723e+05   4.202084e+05   0.000000e+00   0.000000e+00   0.000000e+00   1.177889e+06   0.000000e+00   0.000000e+00   0.000000e+00
     1056000   1.055999e-05   1.158372e+01   1.420174e+01   1.900487e+01   1.087474e+06   1.680723e+05   4.202084e+05   0.000000e+00   0.000000e+00   0.000000e+00   1.177889e+06   0.000000e+00   0.000000e+00   0.000000e+00
     1064000   1.063999e-05   1.167072e+01   1.421518e+01   1.903849e+01   1.087474e+06   1.680723e+05   4.202084e+05   0.000000e+00   0.000000e+00   0.000000e+00   1.177889e+06   0.000000e+00   0.000000e+00   0.000000e+00
     1072000   1.071999e-05   1.175772e+01   1.422863e+01   1.907210e+01   1.087474e+06   1.680723e+05   4.202084e+05   0.000000e+00   0.000000e+00   0.000000e+00   1.177889e+06   0.000000e+00   0.000000e+00   0.000000e+00
     1080000   1.079999e-05   1.184472e+01   1.424207e+01   1.910572e+01   1.087474e+06   1.680723e+05   4.202084e+05   0.000000e+00   0.000000e+00   0.000000e+00   1.177889e+06   0.000000e+00   0.000000e+00   0.000000e+00
     1088000   1.087999e-05   1.193172e+01   1.425552e+01   1.913934e+01   1.087474e+06   1.680723e+05   4.202084e+05   0.000000e+00   0.000000e+00   0.000000e+00   1.177889e+06   0.000000e+00   0.000000e+00   0.000000e+00
     1096000   1.095999e-05   1.201871e+01   1.426897e+01   1.917295e+01   1.087474e+06   1.680723e+05   4.202084e+05   0.000000e+00   0.000000e+00   0.000000e+00   1.177889e+06   0.000000e+00   0.000000e+00   0.000000e+00
     1104000   1.103999e-05   1.210571e+01   1.428241e+01   1.920657e+01   1.087474e+06   1.680723e+05   4.202084e+05   0.000000e+00   0.000000e+00   0.000000e+00   1.177889e+06   0.000000e+00   0.000000e+00   0.000000e+00
     1112000   1.111999e-05   1.219271e+01   1.429586e+01   1.924019e+01   1.087474e+06   1.680723e+05   4.202084e+05   0.000000e+00   0.000000e+00   0.000000e+00   1.177889e+06   0.000000e+00   0.000000e+00   0.000000e+00
     1120000   1.119999e-05   1.227971e+01   1.430930e+01   1.927380e+01   1.087474e+06   1.680723e+05   4.202084e+05   0.000000e+00   0.000000e+00   0.000000e+00   1.177889e+06   0.000000e+00   0.000000e+00   0.000000e+00
     1128000   1.127999e-05   1.236671e+01   1.432275e+01   1.930742e+01   1.087474e+06   1.680723e+05   4.202084e+05   0.000000e+00   0.000000e+00   0.000000e+00   1.177889e+06   0.000000e+00   0.000000e+00   0.000000e+00
     1136000   1.135999e-05   1.245370e+01   1.433620e+01   1.934104e+01   1.087474e+06   1.680723e+05   4.202084e+05   0.000000e+00   0.000000e+00   0.000000e+00   1.177889e+06   0.000000e+00   0.000000e+00   0.000000e+00
     1144000   1.143999e-05   1.254070e+01   1.434964e+01   1.937465e+01   1.087474e+06   1.680723e+05   4.202084e+05   0.000000e+00   0.000000e+00   0.000000e+00   1.177889e+06   0.000000e+00   0.000000e+00   0.000000e+00
     1152000   1.151999e-05   1.262770e+01   1.436309e+01   1.940827e+01   1.087474e+06   1.680723e+05   4.202084e+05   0.000000e+00   0.000000e+00   0.000000e+00   1.177889e+06   0.000000e+00   0.000000e+00   0.000000e+00
     1160000   1.159999e-05   1.271470e+01   1.437653e+01   1.944189e+01   1.087474e+06   1.680723e+05   4.202084e+05   0.000000e+00   0.000000e+00   0.000000e+00   1.177889e+06   0.000000e+00   0.000000e+00   0.000000e+00
     1168000   1.167999e-05   1.280170e+01   1.438998e+01   1.947550e+01   1.087474e+06   1.680723e+05   4.202084e+05   0.000000e+00   0.000000e+00   0.000000e+00   1.177889e+06   0.000000e+00   0.000000e+00   0.000000e+00
     1176000   1.175999e-05   1.288869e+01   1.440342e+01   1.950912e+01   1.087474e+06   1.680723e+05   4.202084e+05   0.000000e+00   0.000000e+00   0.000000e+00   1.177889e+06   0.000000e+00   0.000000e+00   0.000000e+00
     1184000   1.183999e-05   1.297569e+01   1.441687e+01   1.954274e+01   1.087474e+06   1.680725e+05   4.202088e+05  -4.535219e+06   5.183107e+06   9.663750e+06   1.177889e+06   4.705255e-28   0.000000e+00   0.000000e+00
     1192000   1.191999e-05   1.306269e+01   1.443032e+01   1.957635e+01   1.087474e+06   1.680727e+05   4.202091e+05   0.000000e+00   0.000000e+00   0.000000e+00   1.177889e+06   0.000000e+00   0.000000e+00   0.000000e+00
     1200000   1.199999e-05   1.314969e+01   1.444376e+01   1.960997e+01   1.087473e+06   1.680730e+05   4.202097e+05  -2.886207e+06   3.243547e+06   6.171967e+06   1.177889e+06   1.903627e-28   0.000000e+00   0.000000e+00
     1208000   1.207999e-05   1.323669e+01   1.445721e+01   1.964359e+01   1.087472e+06   1.680745e+05   4.202125e+05  -4.368198e+07   4.870254e+07   9.356523e+07   1.177889e+06   4.355165e-26   0.000000e+00   0.000000e+00
     1216000   1.215999e-05   1.332368e+01   1.447065e+01   1.967720e+01   1.087468e+06   1.680786e+05   4.202205e+05  -1.780622e+07   1.967164e+07   3.821166e+07   1.177889e+06   7.232927e-27   0.000000e+00   0.000000e+00
     1224000   1.223999e-05   1.341068e+01   1.448410e+01   1.971082e+01   1.087465e+06   1.680820e+05   4.202271e+05  -3.845429e+07   4.237939e+07   8.256128e+07   1.177889e+06   3.373214e-26   0.000000e+00   0.000000e+00
     1232000   1.231999e-05   1.349768e+01   1.449755e+01   1.974444e+01   1.087464e+06   1.680838e+05   4.202305e+05  -1.859457e+06   2.065878e+06   3.985553e+06   1.177889e+06   7.929251e-29   0.000000e+00   0.000000e+00
     1240000   1.239999e-05   1.358467e+01   1.451099e+01   1.977806e+01   1.087458e+06   1.680902e+05   4.202433e+05  -5.447036e+07   5.946892e+07   1.171656e+08   1.177889e+06   6.762391e-26   0.000000e+00   0.000000e+00
     1248000   1.247999e-05   1.367167e+01   1.452444e+01   1.981168e+01   1.087450e+06   1.680984e+05   4.202594e+05  -1.008740e+08   1.091508e+08   2.173595e+08   1.177889e+06   2.317112e-25   0.000000e+00   0.000000e+00
     1256000   1.255999e-05   1.375867e+01   1.453789e+01   1.984530e+01   1.087444e+06   1.681053e+05   4.202732e+05  -5.736389e+07   6.161492e+07   1.237819e+08   1.177889e+06   7.490227e-26   0.000000e+00   0.000000e+00
     1264000   1.263999e-05   1.384566e+01   1.455134e+01   1.987892e+01   1.087438e+06   1.681111e+05   4.202850e+05  -8.697259e+07   9.291944e+07   1.878643e+08   1.177889e+06   1.720795e-25   0.000000e+00   0.000000e+00
     1272000   1.271999e-05   1.393266e+01   1.456479e+01   1.991255e+01   1.087432e+06   1.681177e+05   4.202984e+05  -6.703637e+07   7.115085e+07   1.449822e+08   1.177889e+06   1.021694e-25   0.000000e+00   0.000000e+00
     1280000   1.279999e-05   1.401965e+01   1.457824e+01   1.994617e+01   1.087427e+06   1.681231e+05   4.203094e+05   7.426422e+06  -7.634541e+06  -1.615988e+07   1.177889e+06   1.248829e-27   0.000000e+00   0.000000e+00
     1288000   1.287999e-05   1.410664e+01   1.459169e+01   1.997980e+01   1.087430e+06   1.681203e+05   4.203036e+05  -5.182131e+07   5.443705e+07   1.122999e+08   1.177889e+06   6.101283e-26   0.000000e+00   0.000000e+00
     1296000   1.295999e-05   1.419364e+01   1.460514e+01   2.001342e+01   1.087427e+06   1.681236e+05   4.203103e+05   6.542150e+01  -4.666624e+02   1.740585e+01   1.177889e+06   7.431192e-37   0.000000e+00   0.000000e+00
     1304000   1.303999e-05   1.428063e+01   1.461859e+01   2.004705e+01   1.087427e+06   1.681236e+05   4.203103e+05   9.569623e+01  -5.411256e+02  -3.113575e+01   1.177889e+06   1.012392e-36   0.000000e+00   0.000000e+00
     1312000   1.311999e-05   1.436763e+01   1.463204e+01   2.008067e+01   1.087427e+06   1.681236e+05   4.203103e+05   6.372923e+01  -4.831670e+02   2.838594e+01   1.177889e+06   7.964699e-37   0.000000e+00   0.000000e+00
     1320000   1.319999e-05   1.445462e+01   1.464549e+01   2.011430e+01   1.087427e+06   1.681236e+05   4.203103e+05   8.586900e+01  -5.574052e+02   8.010872e-01   1.177889e+06   1.062942e-36   0.000000e+00   0.000000e+00
     1328000   1.327999e-05   1.454162e+01   1.465894e+01   2.014792e+01   1.087427e+06   1.681236e+05   4.203103e+05   8.221349e+01  -5.392739e+02   3.006106e+00   1.177889e+06   9.945193e-37   0.000000e+00   0.000000e+00
     1336000   1.335999e-05   1.462861e+01   1.467239e+01   2.018154e+01   1.087427e+06   1.681236e+05   4.203103e+05   7.445731e+01  -4.881941e+02   2.641091e+00   1.177889e+06   8.150793e-37   0.000000e+00   0.000000e+00
     1344000   1.343999e-05   1.471560e+01   1.468584e+01   2.021517e+01   1.087427e+06   1.681236e+05   4.203103e+05   8.350383e+01  -5.401045e+02   1.017222e-19   1.177889e+06   9.982104e-37   0.000000e+00   0.000000e+00
     1352000   1.351999e-05   1.480260e+01   1.469929e+01   2.024879e+01   1.087427e+06   1.681236e+05   4.203103e+05   7.966586e+01  -5.152804e+02  -3.544821e-20   1.177889e+06   9.085762e-37   0.000000e+00   0.000000e+00
     1360000   1.359999e-05   1.488959e+01   1.471274e+01   2.028242e+01   1.087427e+06   1.681236e+05   4.203103e+05   8.815654e+01  -5.701983e+02   1.192937e-19   1.177889e+06   1.112509e-36   0.000000e+00   0.000000e+00
     1368000   1.367999e-05   1.497659e+01   1.472619e+01   2.031604e+01   1.087427e+06   1.681236e+05   4.203103e+05   9.257704e+01  -5.987902e+02   6.262533e-20   1.177889e+06   1.226881e-36   0.000000e+00   0.000000e+00
     1376000   1.375999e-05   1.506358e+01   1.473964e+01   2.034967e+01   1.087427e+06   1.681236e+05   4.203103e+05   9.572104e+01  -6.191257e+02   1.006185e-19   1.177889e+06   1.311649e-36   0.000000e+00   0.000000e+00
     1384000   1.383999e-05   1.515057e+01   1.475309e+01   2.038329e+01   1.087427e+06   1.681236e+05   4.203103e+05   9.919513e+01  -6.415961e+02  -8.514408e-21   1.177889e+06   1.408557e-36   0.000000e+00   0.000000e+00
     1392000   1.391999e-05   1.523757e+01   1.476654e+01   2.041692e+01   1.087427e+06   1.681236e+05   4.203103e+05   9.428824e+01  -6.098583e+02   3.896443e-20   1.177889e+06   1.272682e-36   0.000000e+00   0.000000e+00
     1400000   1.399999e-05   1.532456e+01   1.477998e+01   2.045054e+01   1.087427e+06   1.681236e+05   4.203103e+05   1.047552e+02  -6.775588e+02   7.350405e-20   1.177889e+06   1.570919e-36   0.000000e+00   0.000000e+00
     1408000   1.407999e-05   1.541156e+01   1.479343e+01   2.048417e+01   1.087427e+06   1.681236e+05   4.203103e+05   1.136162e+02  -7.348722e+02  -3.712511e-20   1.177889e+06   1.847856e-36   0.000000e+00   0.000000e+00
     1416000   1.415999e-05   1.549855e+01   1.480688e+01   2.051779e+01   1.087427e+06   1.681236e+05   4.203103e+05   9.810051e+01  -6.345161e+02  -2.942057e-20   1.177889e+06   1.377692e-36   0.000000e+00   0.000000e+00
     1424000   1.423999e-05   1.558555e+01   1.482033e+01   2.055142e+01   1.087427e+06   1.681236e+05   4.203103e+05   1.202352e+02  -7.776838e+02   7.166021e-21   1.177889e+06   2.069419e-36   0.000000e+00   0.000000e+00
     1432000   1.431999e-05   1.567254e+01   1.483378e+01   2.058504e+01   1.087427e+06   1.681236e+05   4.203103e+05   9.901482e+01  -6.404299e+02  -7.875795e-20   1.177889e+06   1.403522e-36   0.000000e+00   0.000000e+00
     1440000   1.439999e-05   1.575953e+01   1.484723e+01   2.061867e+01   1.087427e+06   1.681236e+05   4.203103e+05   1.061746e+02  -6.867398e+02   1.843486e-19   1.177889e+06   1.613787e-36   0.000000e+00   0.000000e+00
     1448000   1.447999e-05   1.584653e+01   1.486068e+01   2.065229e+01   1.087427e+06   1.681236e+05   4.203103e+05   1.090884e+02  -7.055858e+02  -9.699127e-20   1.177889e+06   1.703579e-36   0.000000e+00   0.000000e+00
     1456000   1.455999e-05   1.593352e+01   1.487413e+01   2.068592e+01   1.087427e+06   1.681236e+05   4.203103e+05   1.236675e+02  -7.998841e+02   1.641826e-19   1.177889e+06   2.189279e-36   0.000000e+00   0.000000e+00
     1464000   1.463999e-05   1.602052e+01   1.488758e+01   2.071954e+01   1.087427e+06   1.681236e+05   4.203103e+05   1.159946e+02  -7.502557e+02  -4.653451e-20   1.177889e+06   1.926066e-36   0.000000e+00   0.000000e+00
     1472000   1.471999e-05   1.610751e+01   1.490103e+01   2.075317e+01   1.087427e+06   1.681236e+05   4.203103e+05   1.172772e+02  -7.585514e+02  -2.269640e-20   1.177889e+06   1.968942e-36   0.000000e+00   0.000000e+00
     1480000   1.479999e-05   1.619450e+01   1.491448e+01   2.078679e+01   1.087427e+06   1.681236e+05   4.203103e+05   1.147121e+02  -7.419605e+02  -3.131840e-20   1.177889e+06   1.883755e-36   0.000000e+00   0.000000e+00
     1488000   1.487999e-05   1.628150e+01   1.492793e+01   2.082042e+01   1.087427e+06   1.681236e+05   4.203103e+05   1.221532e+02  -7.900897e+02   7.785161e-21   1.177889e+06   2.136020e-36   0.000000e+00   0.000000e+00
     1496000   1.495999e-05   1.636849e+01   1.494138e+01   2.085404e+01   1.087427e+06   1.681236e+05   4.203103e+05   1.103384e+02  -7.136713e+02   2.102852e-19   1.177889e+06   1.742897e-36   0.000000e+00   0.000000e+00
     1504000   1.503999e-05   1.645549e+01   1.495483e+01   2.088767e+01   1.087427e+06   1.681236e+05   4.203103e+05   1.437420e+02  -9.297263e+02   2.739916e-20   1.177889e+06   2.957642e-36   0.000000e+00   0.000000e+00
     1512000   1.511999e-05   1.654248e+01   1.496828e+01   2.092129e+01   1.087427e+06   1.681236e+05   4.203103e+05   1.223403e+02  -7.912995e+02  -1.035551e-19   1.177889e+06   2.142650e-36   0.000000e+00   0.000000e+00
     1520000   1.519999e-05   1.662947e+01   1.498173e+01   2.095492e+01   1.087427e+06   1.681236e+05   4.203103e+05   1.152988e+02  -7.457552e+02   2.518239e-19   1.177889e+06   1.903073e-36   0.000000e+00   0.000000e+00
     1528000   1.527999e-05   1.671647e+01   1.499518e+01   2.098854e+01   1.087427e+06   1.681236e+05   4.203103e+05   1.375534e+02  -8.896983e+02   1.621581e-19   1.177889e+06   2.708546e-36   0.000000e+00   0.000000e+00
     1536000   1.535999e-05   1.680346e+01   1.500863e+01   2.102217e+01   1.087427e+06   1.681236e+05   4.203103e+05   1.311132e+02  -8.480430e+02  -5.570054e-20   1.177889e+06   2.460939e-36   0.000000e+00   0.000000e+00
     1544000   1.543999e-05   1.689046e+01   1.502208e+01   2.105579e+01   1.087427e+06   1.681236e+05   4.203103e+05   1.255059e+02  -8.117746e+02  -1.258150e-20   1.177889e+06   2.254947e-36   0.000000e+00   0.000000e+00
     1552000   1.551999e-05   1.697745e+01   1.503553e+01   2.108941e+01   1.087427e+06   1.681236e+05   4.203103e+05   1.408554e+02  -9.110554e+02  -1.767037e-19   1.177889e+06   2.840150e-36   0.000000e+00   0.000000e+00
     1560000   1.559999e-05   1.706445e+01   1.504898e+01   2.112304e+01   1.087427e+06   1.681236e+05   4.203103e+05   1.289463e+02  -8.340273e+02  -4.390093e-20   1.177889e+06   2.380315e-36   0.000000e+00   0.000000e+00
     1568000   1.567999e-05   1.715144e+01   1.506243e+01   2.115666e+01   1.087427e+06   1.681236e+05   4.203103e+05   1.357730e+02  -8.781824e+02  -3.031233e-20   1.177889e+06   2.638920e-36   0.000000e+00   0.000000e+00
     1576000   1.575999e-05   1.723843e+01   1.507588e+01   2.119029e+01   1.087427e+06   1.681236e+05   4.203103e+05   1.396982e+02  -9.035708e+02  -5.488065e-20   1.177889e+06   2.793728e-36   0.000000e+00   0.000000e+00
     1584000   1.583999e-05   1.732543e+01   1.508933e+01   2.122391e+01   1.087427e+06   1.681236e+05   4.203103e+05   1.365117e+02  -8.829603e+02   1.587932e-19   1.177889e+06   2.667750e-36   0.000000e+00   0.000000e+00
     1592000   1.591999e-05   1.741242e+01   1.510278e+01   2.125754e+01   1.087427e+06   1.681236e+05   4.203103e+05   1.375150e+02  -8.894502e+02   1.213821e-19   1.177889e+06   2.707087e-36   0.000000e+00   0.000000e+00
     1600000   1.599999e-05   1.749942e+01   1.511623e+01   2.129116e+01   1.087427e+06   1.681236e+05   4.203103e+05   1.394328e+02  -9.018545e+02  -5.843062e-20   1.177889e+06   2.783120e-36   0.000000e+00   0.000000e+00
     1608000   1.607999e-05   1.758641e+01   1.512968e+01   2.132479e+01   1.087427e+06   1.681236e+05   4.203103e+05   1.420633e+02  -9.188687e+02  -1.891225e-19   1.177889e+06   2.889134e-36   0.000000e+00   0.000000e+00
     1616000   1.615999e-05   1.767340e+01   1.514313e+01   2.135841e+01   1.087427e+06   1.681236e+05   4.203103e+05   1.393732e+02  -9.014686e+02  -3.211558e-19   1.177889e+06   2.780771e-36   0.000000e+00   0.000000e+00
     1624000   1.623999e-05   1.776040e+01   1.515658e+01   2.139204e+01   1.087427e+06   1.681236e+05   4.203103e+05   1.469514e+02  -9.504849e+02   9.091176e-20   1.177889e+06   3.091340e-36   0.000000e+00   0.000000e+00
     1632000   1.631999e-05   1.784739e+01   1.517003e+01   2.142566e+01   1.087427e+06   1.681236e+05   4.203103e+05   1.484192e+02  -9.599783e+02  -1.547264e-19   1.177889e+06   3.153391e-36   0.000000e+00   0.000000e+00
     1640000   1.639999e-05   1.793439e+01   1.518348e+01   2.145929e+01   1.087427e+06   1.681236e+05   4.203103e+05   1.431649e+02  -9.259939e+02   6.472382e-20   1.177889e+06   2.934125e-36   0.000000e+00   0.000000e+00
     1648000   1.647999e-05   1.802138e+01   1.519693e+01   2.149291e+01   1.087427e+06   1.681236e+05   4.203103e+05   1.437483e+02  -9.297669e+02  -1.544620e-20   1.177889e+06   2.958065e-36   0.000000e+00   0.000000e+00
     1656000   1.655999e-05   1.810837e+01   1.521038e+01   2.152654e+01   1.087427e+06   1.681236e+05   4.203103e+05   1.461548e+02  -9.453322e+02   1.384713e-19   1.177889e+06   3.057969e-36   0.000000e+00   0.000000e+00
     1664000   1.663999e-05   1.819537e+01   1.522383e+01   2.156016e+01   1.087427e+06   1.681236e+05   4.203103e+05   1.412796e+02  -9.137995e+02  -2.268060e-19   1.177889e+06   2.857367e-36   0.000000e+00   0.000000e+00
     1672000   1.671999e-05   1.828236e+01   1.523728e+01   2.159379e+01   1.087427e+06   1.681236e+05   4.203103e+05   1.479369e+02  -9.568588e+02  -1.171150e-21   1.177889e+06   3.132954e-36   0.000000e+00   0.000000e+00
     1680000   1.679999e-05   1.836936e+01   1.525073e+01   2.162741e+01   1.087427e+06   1.681236e+05   4.203103e+05   1.449907e+02  -9.378029e+02  -1.583347e-19   1.177889e+06   3.009451e-36   0.000000e+00   0.000000e+00
     1688000   1.687999e-05   1.845635e+01   1.526418e+01   2.166104e+01   1.087427e+06   1.681236e+05   4.203103e+05   1.456082e+02  -9.417969e+02  -9.024694e-20   1.177889e+06   3.035126e-36   0.000000e+00   0.000000e+00
     1696000   1.695999e-05   1.854335e+01   1.527763e+01   2.169466e+01   1.087427e+06   1.681236e+05   4.203103e+05   1.491250e+02  -9.645436e+02   2.241564e-19   1.177889e+06   3.183473e-36   0.000000e+00   0.000000e+00
     1704000   1.703999e-05   1.863034e+01   1.529108e+01   2.172829e+01   1.087427e+06   1.681236e+05   4.203103e+05   1.506644e+02  -9.745006e+02   3.409082e-20   1.177889e+06   3.249538e-36   0.000000e+00   0.000000e+00
     1712000   1.711999e-05   1.871733e+01   1.530453e+01   2.176191e+01   1.087427e+06   1.681236e+05   4.203103e+05   1.455363e+02  -9.413320e+02  -4.102846e-20   1.177889e+06   3.032149e-36   0.000000e+00   0.000000e+00
     1720000   1.719999e-05   1.880433e+01   1.531798e+01   2.179554e+01   1.087427e+06   1.681236e+05   4.203103e+05   1.466302e+02  -9.484070e+02  -5.953433e-20   1.177889e+06   3.077828e-36   0.000000e+00   0.000000e+00
     1728000   1.727999e-05   1.889132e+01   1.533143e+01   2.182916e+01   1.087427e+06   1.681236e+05   4.203103e+05   1.455395e+02  -9.413526e+02   9.142293e-21   1.177889e+06   3.032259e-36   0.000000e+00   0.000000e+00
     1736000   1.735999e-05   1.897832e+01   1.534488e+01   2.186279e+01   1.087427e+06   1.681236e+05   4.203103e+05   1.366254e+02  -8.836956e+02   2.027231e-19   1.177889e+06   2.672220e-36   0.000000e+00   0.000000e+00
     1744000   1.743999e-05   1.906531e+01   1.535833e+01   2.189641e+01   1.087427e+06   1.681236e+05   4.203103e+05   1.463388e+02  -9.465222e+02   1.350032e-19   1.177889e+06   3.065607e-36   0.000000e+00   0.000000e+00
     1752000   1.751999e-05   1.915230e+01   1.537178e+01   2.193004e+01   1.087427e+06   1.681236e+05   4.203103e+05   1.365176e+02  -8.829988e+02  -4.238674e-20   1.177889e+06   2.668002e-36   0.000000e+00   0.000000e+00
     1760000   1.759999e-05   1.923930e+01   1.538523e+01   2.196366e+01   1.087427e+06   1.681236e+05   4.203103e+05   1.301434e+02  -8.417699e+02  -7.375663e-20   1.177889e+06   2.424651e-36   0.000000e+00   0.000000e+00
     1768000   1.767999e-05   1.932629e+01   1.539868e+01   2.199729e+01   1.087427e+06   1.681236e+05   4.203103e+05   1.303533e+02  -8.431278e+02  -1.766790e-19   1.177889e+06   2.432495e-36   0.000000e+00   0.000000e+00
     1776000   1.775999e-05   1.941329e+01   1.541213e+01   2.203091e+01   1.087427e+06   1.681236e+05   4.203103e+05   1.289402e+02  -8.339878e+02  -6.704139e-21   1.177889e+06   2.380041e-36   0.000000e+00   0.000000e+00
     1784000   1.783999e-05   1.950028e+01   1.542558e+01   2.206453e+01   1.087427e+06   1.681236e+05   4.203103e+05   1.290247e+02  -8.345343e+02  -6.381669e-20   1.177889e+06   2.383122e-36   0.000000e+00   0.000000e+00
     1792000   1.791999e-05   1.958728e+01   1.543903e+01   2.209816e+01   1.087427e+06   1.681236e+05   4.203103e+05   1.320120e+02  -8.538567e+02  -1.286304e-19   1.177889e+06   2.494756e-36   0.000000e+00   0.000000e+00
     1800000   1.799999e-05   1.967427e+01   1.545248e+01   2.213178e+01   1.087427e+06   1.681236e+05   4.203103e+05   1.271776e+02  -8.225876e+02   9.627209e-20   1.177889e+06   2.315369e-36   0.000000e+00   0.000000e+00
     1808000   1.807999e-05   1.976126e+01   1.546593e+01   2.216541e+01   1.087427e+06   1.681236e+05   4.203103e+05   1.012597e+02  -6.549499e+02  -1.537673e-19   1.177889e+06   1.467889e-36   0.000000e+00   0.000000e+00
     1816000   1.815999e-05   1.984826e+01   1.547938e+01   2.219903e+01   1.087427e+06   1.681236e+05   4.203103e+05   1.153164e+02  -7.458687e+02  -2.876220e-20   1.177889e+06   1.903644e-36   0.000000e+00   0.000000e+00
     1824000   1.823999e-05   1.993525e+01   1.549283e+01   2.223266e+01   1.087427e+06   1.681236e+05   4.203103e+05   1.130028e+02  -7.309042e+02   8.982720e-20   1.177889e+06   1.828000e-36   0.000000e+00   0.000000e+00
     1832000   1.831999e-05   2.002225e+01   1.550628e+01   2.226628e+01   1.087427e+06   1.681236e+05   4.203103e+05   1.015567e+02  -6.568710e+02   8.366633e-22   1.177889e+06   1.476496e-36   0.000000e+00   0.000000e+00
     1840000   1.839999e-05   2.010924e+01   1.551973e+01   2.229991e+01   1.087427e+06   1.681236e+05   4.203103e+05   9.748744e+01  -6.305508e+02   5.297477e-20   1.177889e+06   1.360568e-36   0.000000e+00   0.000000e+00
     1848000   1.847999e-05   2.019623e+01   1.553318e+01   2.233353e+01   1.087427e+06   1.681236e+05   4.203103e+05   8.446931e+01  -5.463493e+02  -6.927562e-20   1.177889e+06   1.021457e-36   0.000000e+00   0.000000e+00
     1856000   1.855999e-05   2.028323e+01   1.554663e+01   2.236716e+01   1.087427e+06   1.681236e+05   4.203103e+05   8.503437e+01  -5.500041e+02   5.711923e-20   1.177889e+06   1.035124e-36   0.000000e+00   0.000000e+00
     1864000   1.863999e-05   2.037022e+01   1.556008e+01   2.240078e+01   1.087427e+06   1.681236e+05   4.203103e+05   7.538991e+01  -4.876235e+02  -8.619268e-20   1.177889e+06   8.136734e-37   0.000000e+00   0.000000e+00
     1872000   1.871999e-05   2.045722e+01   1.557353e+01   2.243441e+01   1.087427e+06   1.681236e+05   4.203103e+05   6.696865e+01  -4.331546e+02   2.092520e-20   1.177889e+06   6.420264e-37   0.000000e+00   0.000000e+00
     1880000   1.879999e-05   2.054421e+01   1.558698e+01   2.246803e+01   1.087427e+06   1.681236e+05   4.203103e+05   6.544582e+01  -4.233049e+02   1.047212e-20   1.177889e+06   6.131573e-37   0.000000e+00   0.000000e+00
     1888000   1.887999e-05   2.063120e+01   1.560043e+01   2.250166e+01   1.087427e+06   1.681236e+05   4.203103e+05   5.155614e+01  -3.334662e+02   4.568924e-20   1.177889e+06   3.805323e-37   0.000000e+00   0.000000e+00
     1896000   1.895999e-05   2.071820e+01   1.561388e+01   2.253528e+01   1.087427e+06   1.681236e+05   4.203103e+05   4.247364e+01  -2.747204e+02  -3.222460e-20   1.177889e+06   2.582478e-37   0.000000e+00   0.000000e+00
     1904000   1.903999e-05   2.080519e+01   1.562733e+01   2.256891e+01   1.087427e+06   1.681236e+05   4.203103e+05   3.414158e+01  -2.208285e+02  -1.314754e-20   1.177889e+06   1.669006e-37   0.000000e+00   0.000000e+00
     1912000   1.911999e-05   2.089219e+01   1.564078e+01   2.260253e+01   1.087427e+06   1.681236e+05   4.203103e+05   2.408332e+01  -1.557714e+02   2.831284e-21   1.177889e+06   8.303632e-38   0.000000e+00   0.000000e+00
     1920000   1.919999e-05   2.097918e+01   1.565423e+01   2.263616e+01   1.087427e+06   1.681236e+05   4.203103e+05   5.061527e+00  -3.273806e+01   6.343900e-21   1.177889e+06   3.670960e-39   0.000000e+00   0.000000e+00
     1928000   1.927999e-05   2.106618e+01   1.566768e+01   2.266978e+01   1.087427e+06   1.681236e+05   4.203103e+05  -1.788073e+00   1.156529e+01  -1.441284e-21   1.177889e+06   4.568421e-40   0.000000e+00   0.000000e+00
     1936000   1.935999e-05   2.115317e+01   1.568113e+01   2.270341e+01   1.087427e+06   1.681236e+05   4.203103e+05  -2.571737e+01   1.663405e+02  -3.165865e-22   1.177889e+06   9.465875e-38   0.000000e+00   0.000000e+00
     1944000   1.943999e-05   2.124016e+01   1.569458e+01   2.273703e+01   1.087427e+06   1.681236e+05   4.203103e+05  -1.999518e+01   1.293293e+02   1.385724e-20   1.177889e+06   5.723171e-38   0.000000e+00   0.000000e+00
     1952000   1.951999e-05   2.132716e+01   1.570803e+01   2.277066e+01   1.087427e+06   1.681236e+05   4.203103e+05  -3.489173e+01   2.256804e+02  -6.048616e-20   1.177889e+06   1.742382e-37   0.000000e+00   0.000000e+00
     1960000   1.959999e-05   2.141415e+01   1.572148e+01   2.280428e+01   1.087427e+06   1.681236e+05   4.203103e+05  -4.898335e+01   3.168254e+02  -6.820050e-20   1.177889e+06   3.434492e-37   0.000000e+00   0.000000e+00
     1968000   1.967999e-05   2.150115e+01   1.573493e+01   2.283791e+01   1.087427e+06   1.681236e+05   4.203103e+05  -6.406889e+01   4.143989e+02  -2.358410e-20   1.177889e+06   5.875960e-37   0.000000e+00   0.000000e+00
     1976000   1.975999e-05   2.158814e+01   1.574838e+01   2.287153e+01   1.087427e+06   1.681236e+05   4.203103e+05  -7.518102e+01   4.862724e+02  -7.002542e-20   1.177889e+06   8.091028e-37   0.000000e+00   0.000000e+00
     1984000   1.983999e-05   2.167513e+01   1.576183e+01   2.290516e+01   1.087427e+06   1.681236e+05   4.203103e+05  -7.624534e+01   4.931565e+02   9.893269e-20   1.177889e+06   8.321967e-37   0.000000e+00   0.000000e+00
     1992000   1.991999e-05   2.176213e+01   1.577528e+01   2.293878e+01   1.087427e+06   1.681236e+05   4.203103e+05  -1.080147e+02   6.986416e+02   1.400911e-19   1.177889e+06   1.670115e-36   0.000000e+00   0.000000e+00
     2000000   1.999999e-05   2.184912e+01   1.578873e+01   2.297241e+01   1.087427e+06   1.681236e+05   4.203103e+05  -1.179208e+02   7.627141e+02  -1.568429e-19   1.177889e+06   1.990569e-36   0.000000e+00   0.000000e+00
     2008000   2.007999e-05   2.193612e+01   1.580218e+01   2.300603e+01   1.087427e+06   1.681236e+05   4.203103e+05  -1.384249e+02   8.953353e+02  -4.433967e-21   1.177889e+06   2.742983e-36   0.000000e+00   0.000000e+00
     2016000   2.015999e-05   2.202311e+01   1.581563e+01   2.303965e+01   1.087427e+06   1.681236e+05   4.203103e+05  -1.544386e+02   9.989122e+02  -1.497834e-19   1.177889e+06   3.414302e-36   0.000000e+00   0.000000e+00
     2024000   2.023999e-05   2.211010e+01   1.582908e+01   2.307328e+01   1.087427e+06   1.681236e+05   4.203103e+05  -1.670508e+02   1.080488e+03   5.665584e-20   1.177889e+06   3.994803e-36   0.000000e+00   0.000000e+00
     2032000   2.031999e-05   2.219710e+01   1.584253e+01   2.310690e+01   1.087427e+06   1.681236e+05   4.203103e+05  -1.867600e+02   1.207967e+03   1.031117e-19   1.177889e+06   4.992985e-36   0.000000e+00   0.000000e+00
     2040000   2.039999e-05   2.228409e+01   1.585598e+01   2.314053e+01   1.087427e+06   1.681236e+05   4.203103e+05  -2.078062e+02   1.344095e+03   6.471515e-21   1.177889e+06   6.181715e-36   0.000000e+00   0.000000e+00
     2048000   2.047999e-05   2.237109e+01   1.586943e+01   2.317415e+01   1.087427e+06   1.681236e+05   4.203103e+05  -2.117555e+02   1.369639e+03   4.614599e-20   1.177889e+06   6.419063e-36   0.000000e+00   0.000000e+00
     2056000   2.055999e-05   2.245808e+01   1.588288e+01   2.320778e+01   1.087427e+06   1.681236e+05   4.203103e+05  -2.576034e+02   1.666184e+03  -4.230993e-19   1.177889e+06   9.499329e-36   0.000000e+00   0.000000e+00
     2064000   2.063999e-05   2.254508e+01   1.589633e+01   2.324140e+01   1.087427e+06   1.681236e+05   4.203103e+05  -2.494157e+02   1.613226e+03  -4.316462e-19   1.177889e+06   8.905337e-36   0.000000e+00   0.000000e+00
     2072000   2.071999e-05   2.263207e+01   1.590978e+01   2.327503e+01   1.087427e+06   1.681236e+05   4.203103e+05  -2.762296e+02   1.786659e+03   4.551029e-21   1.177889e+06   1.092283e-35   0.000000e+00   0.000000e+00
     2080000   2.079999e-05   2.271906e+01   1.592323e+01   2.330865e+01   1.087427e+06   1.681236e+05   4.203103e+05  -2.992109e+02   1.935303e+03  -7.962332e-20   1.177889e+06   1.281600e-35   0.000000e+00   0.000000e+00
     2088000   2.087999e-05   2.280606e+01   1.593667e+01   2.334228e+01   1.087427e+06   1.681236e+05   4.203103e+05  -3.212561e+02   2.077891e+03  -2.641683e-19   1.177889e+06   1.477395e-35   0.000000e+00   0.000000e+00
     2096000   2.095999e-05   2.289305e+01   1.595012e+01   2.337590e+01   1.087427e+06   1.681236e+05   4.203103e+05  -3.488734e+02   2.256520e+03  -1.086021e-19   1.177889e+06   1.742330e-35   0.000000e+00   0.000000e+00
     2104000   2.103999e-05   2.298005e+01   1.596357e+01   2.340953e+01   1.087427e+06   1.681236e+05   4.203103e+05  -3.637769e+02   2.352916e+03   3.797937e-19   1.177889e+06   1.894368e-35   0.000000e+00   0.000000e+00
     2112000   2.111999e-05   2.306704e+01   1.597702e+01   2.344315e+01   1.087427e+06   1.681236e+05   4.203103e+05  -3.633338e+02   2.350051e+03  -1.885569e-19   1.177889e+06   1.889794e-35   0.000000e+00   0.000000e+00
     2120000   2.119999e-05   2.315403e+01   1.599047e+01   2.347678e+01   1.087427e+06   1.681236e+05   4.203103e+05  -3.909457e+02   2.528645e+03   4.843569e-19   1.177889e+06   2.187920e-35   0.000000e+00   0.000000e+00
     2128000   2.127999e-05   2.324103e+01   1.600392e+01   2.351040e+01   1.087427e+06   1.681236e+05   4.203103e+05  -4.136207e+02   2.675307e+03   2.147560e-19   1.177889e+06   2.449080e-35   0.000000e+00   0.000000e+00
     2136000   2.135999e-05   2.332802e+01   1.601737e+01   2.354403e+01   1.087427e+06   1.681236e+05   4.203103e+05  -4.356288e+02   2.817656e+03  -9.301255e-22   1.177889e+06   2.716640e-35   0.000000e+00   0.000000e+00
     2144000   2.143999e-05   2.341502e+01   1.603082e+01   2.357765e+01   1.087427e+06   1.681236e+05   4.203103e+05  -4.537855e+02   2.935094e+03  -1.000380e-19   1.177889e+06   2.947816e-35   0.000000e+00   0.000000e+00
     2152000   2.151999e-05   2.350201e+01   1.604427e+01   2.361128e+01   1.087427e+06   1.681236e+05   4.203103e+05  -4.670835e+02   3.021106e+03   7.791615e-20   1.177889e+06   3.123087e-35   0.000000e+00   0.000000e+00
     2160000   2.159999e-05   2.358901e+01   1.605772e+01   2.364490e+01   1.087427e+06   1.681236e+05   4.203103e+05  -5.031224e+02   3.254206e+03  -9.023521e-20   1.177889e+06   3.623621e-35   0.000000e+00   0.000000e+00
     2168000   2.167999e-05   2.367600e+01   1.607117e+01   2.367853e+01   1.087427e+06   1.681236e+05   4.203103e+05  -5.050326e+02   3.266561e+03  -3.124088e-19   1.177889e+06   3.651237e-35   0.000000e+00   0.000000e+00
     2176000   2.175999e-05   2.376299e+01   1.608462e+01   2.371215e+01   1.087427e+06   1.681236e+05   4.203103e+05  -5.197477e+02   3.361739e+03   5.358795e-19   1.177889e+06   3.867103e-35   0.000000e+00   0.000000e+00
     2184000   2.183999e-05   2.384999e+01   1.609807e+01   2.374578e+01   1.087427e+06   1.681236e+05   4.203103e+05  -5.359847e+02   3.466760e+03   2.039157e-19   1.177889e+06   4.112486e-35   0.000000e+00   0.000000e+00
     2192000   2.191999e-05   2.393698e+01   1.611152e+01   2.377940e+01   1.087427e+06   1.681236e+05   4.203103e+05  -5.562785e+02   3.598021e+03   6.999835e-19   1.177889e+06   4.429817e-35   0.000000e+00   0.000000e+00
     2200000   2.199999e-05   2.402398e+01   1.612497e+01   2.381303e+01   1.087427e+06   1.681236e+05   4.203103e+05  -5.720934e+02   3.700312e+03   8.761878e-19   1.177889e+06   4.685281e-35   0.000000e+00   0.000000e+00
     2208000   2.207999e-05   2.411097e+01   1.613842e+01   2.384665e+01   1.087427e+06   1.681236e+05   4.203103e+05  -5.913298e+02   3.824733e+03  -5.311418e-19   1.177889e+06   5.005627e-35   0.000000e+00   0.000000e+00
     2216000   2.215999e-05   2.419796e+01   1.615187e+01   2.388028e+01   1.087427e+06   1.681236e+05   4.203103e+05  -6.146099e+02   3.975309e+03  -8.360160e-19   1.177889e+06   5.407521e-35   0.000000e+00   0.000000e+00
     2224000   2.223999e-05   2.428496e+01   1.616532e+01   2.391390e+01   1.087427e+06   1.681236e+05   4.203103e+05  -6.079098e+02   3.931973e+03   2.668478e-19   1.177889e+06   5.290308e-35   0.000000e+00   0.000000e+00
     2232000   2.231999e-05   2.437195e+01   1.617877e+01   2.394752e+01   1.087427e+06   1.681236e+05   4.203103e+05  -6.343091e+02   4.102724e+03   2.355494e-19   1.177889e+06   5.759707e-35   0.000000e+00   0.000000e+00
     2240000   2.239999e-05   2.445895e+01   1.619222e+01   2.398115e+01   1.087427e+06   1.681236e+05   4.203103e+05  -6.302662e+02   4.076575e+03   6.632425e-19   1.177889e+06   5.686593e-35   0.000000e+00   0.000000e+00
     2248000   2.247999e-05   2.454594e+01   1.620567e+01   2.401477e+01   1.087427e+06   1.681236e+05   4.203103e+05  -6.454767e+02   4.174956e+03   1.345798e-18   1.177889e+06   5.964361e-35   0.000000e+00   0.000000e+00
     2256000   2.255999e-05   2.463293e+01   1.621912e+01   2.404840e+01   1.087427e+06   1.681236e+05   4.203103e+05  -6.455535e+02   4.175454e+03   2.345264e-19   1.177889e+06   5.965776e-35   0.000000e+00   0.000000e+00
     2264000   2.263999e-05   2.471993e+01   1.623257e+01   2.408202e+01   1.087427e+06   1.681236e+05   4.203103e+05  -6.685131e+02   4.323957e+03   1.025052e-19   1.177889e+06   6.397651e-35   0.000000e+00   0.000000e+00
     2272000   2.271999e-05   2.480692e+01   1.624602e+01   2.411565e+01   1.087427e+06   1.681236e+05   4.203103e+05  -6.676900e+02   4.318633e+03  -4.034331e-19   1.177889e+06   6.381906e-35   0.000000e+00   0.000000e+00
     2280000   2.279999e-05   2.489392e+01   1.625947e+01   2.414927e+01   1.087427e+06   1.681236e+05   4.203103e+05  -6.841031e+02   4.424793e+03   1.848779e-19   1.177889e+06   6.699522e-35   0.000000e+00   0.000000e+00
     2288000   2.287999e-05   2.498091e+01   1.627292e+01   2.418290e+01   1.087427e+06   1.681236e+05   4.203103e+05  -6.629151e+02   4.287748e+03   1.173138e-18   1.177889e+06   6.291013e-35   0.000000e+00   0.000000e+00
     2296000   2.295999e-05   2.506791e+01   1.628637e+01   2.421652e+01   1.087427e+06   1.681236e+05   4.203103e+05  -6.761547e+02   4.373383e+03  -2.082866e-19   1.177889e+06   6.544796e-35   0.000000e+00   0.000000e+00
     2304000   2.303999e-05   2.515490e+01   1.629982e+01   2.425015e+01   1.087427e+06   1.681236e+05   4.203103e+05  -6.895717e+02   4.460164e+03  -9.166668e-19   1.177889e+06   6.807086e-35   0.000000e+00   0.000000e+00
     2312000   2.311999e-05   2.524189e+01   1.631327e+01   2.428377e+01   1.087427e+06   1.681236e+05   4.203103e+05  -6.818927e+02   4.410496e+03   1.517673e-19   1.177889e+06   6.656319e-35   0.000000e+00   0.000000e+00
     2320000   2.319999e-05   2.532889e+01   1.632672e+01   2.431740e+01   1.087427e+06   1.681236e+05   4.203103e+05  -6.715465e+02   4.343576e+03  -4.906067e-19   1.177889e+06   6.455882e-35   0.000000e+00   0.000000e+00
     2328000   2.327999e-05   2.541588e+01   1.634017e+01   2.435102e+01   1.087427e+06   1.681236e+05   4.203103e+05  -6.769298e+02   4.378396e+03   7.993458e-19   1.177889e+06   6.559794e-35   0.000000e+00   0.000000e+00
     2336000   2.335999e-05   2.550288e+01   1.635362e+01   2.438465e+01   1.087427e+06   1.681236e+05   4.203103e+05  -6.699974e+02   4.333557e+03  -8.527244e-19   1.177889e+06   6.426145e-35   0.000000e+00   0.000000e+00
     2344000   2.343999e-05   2.558987e+01   1.636707e+01   2.441827e+01   1.087427e+06   1.681236e+05   4.203103e+05  -6.662695e+02   4.309444e+03   9.528125e-19   1.177889e+06   6.354846e-35   0.000000e+00   0.000000e+00
     2352000   2.351999e-05   2.567686e+01   1.638052e+01   2.445190e+01   1.087427e+06   1.681236e+05   4.203103e+05  -6.622927e+02   4.283723e+03   4.908334e-19   1.177889e+06   6.279182e-35   0.000000e+00   0.000000e+00
     2360000   2.359999e-05   2.576386e+01   1.639397e+01   2.448552e+01   1.087427e+06   1.681236e+05   4.203103e+05  -6.410246e+02   4.146160e+03  -1.355235e-19   1.177889e+06   5.882406e-35   0.000000e+00   0.000000e+00
     2368000   2.367999e-05   2.585085e+01   1.640742e+01   2.451915e+01   1.087427e+06   1.681236e+05   4.203103e+05  -6.358943e+02   4.112977e+03  -2.235943e-19   1.177889e+06   5.788623e-35   0.000000e+00   0.000000e+00
     2376000   2.375999e-05   2.593785e+01   1.642087e+01   2.455277e+01   1.087427e+06   1.681236e+05   4.203103e+05  -6.300358e+02   4.075085e+03   3.693022e-19   1.177889e+06   5.682453e-35   0.000000e+00   0.000000e+00
     2384000   2.383999e-05   2.602484e+01   1.643432e+01   2.458640e+01   1.087427e+06   1.681236e+05   4.203103e+05  -6.005722e+02   3.884513e+03   4.008205e-19   1.177889e+06   5.163425e-35   0.000000e+00   0.000000e+00
     2392000   2.391999e-05   2.611183e+01   1.644777e+01   2.462002e+01   1.087427e+06   1.681236e+05   4.203103e+05  -5.915908e+02   3.826422e+03   9.701438e-20   1.177889e+06   5.010117e-35   0.000000e+00   0.000000e+00
     2400000   2.399999e-05   2.619883e+01   1.646122e+01   2.465365e+01   1.087427e+06   1.681236e+05   4.203103e+05  -5.820421e+02   3.764660e+03   2.055618e-19   1.177889e+06   4.849689e-35   0.000000e+00   0.000000e+00
     2408000   2.407999e-05   2.628582e+01   1.647467e+01   2.468727e+01   1.087427e+06   1.681236e+05   4.203103e+05  -5.759660e+02   3.725360e+03  -6.287419e-19   1.177889e+06   4.748946e-35   0.000000e+00   0.000000e+00
     2416000   2.415999e-05   2.637282e+01   1.648812e+01   2.472090e+01   1.087427e+06   1.681236e+05   4.203103e+05  -5.355805e+02   3.464146e+03   5.357403e-19   1.177889e+06   4.106358e-35   0.000000e+00   0.000000e+00
     2424000   2.423999e-05   2.645981e+01   1.650157e+01   2.475452e+01   1.087427e+06   1.681236e+05   4.203103e+05  -5.065261e+02   3.276221e+03  -9.634778e-19   1.177889e+06   3.672935e-35   0.000000e+00   0.000000e+00
     2432000   2.431999e-05   2.654681e+01   1.651502e+01   2.478815e+01   1.087427e+06   1.681236e+05   4.203103e+05  -5.062194e+02   3.274237e+03   2.018925e-19   1.177889e+06   3.668456e-35   0.000000e+00   0.000000e+00
     2440000   2.439999e-05   2.663380e+01   1.652847e+01   2.482177e+01   1.087427e+06   1.681236e+05   4.203103e+05  -4.811419e+02   3.112036e+03  -7.324003e-20   1.177889e+06   3.313973e-35   0.000000e+00   0.000000e+00
     2448000   2.447999e-05   2.672079e+01   1.654192e+01   2.485540e+01   1.087427e+06   1.681236e+05   4.203103e+05  -4.565172e+02   2.952763e+03  -8.288139e-19   1.177889e+06   2.983489e-35   0.000000e+00   0.000000e+00
     2456000   2.455999e-05   2.680779e+01   1.655537e+01   2.488902e+01   1.087427e+06   1.681236e+05   4.203103e+05  -4.304013e+02   2.783844e+03   1.776253e-19   1.177889e+06   2.651900e-35   0.000000e+00   0.000000e+00
     2464000   2.463999e-05   2.689478e+01   1.656882e+01   2.492264e+01   1.087427e+06   1.681236e+05   4.203103e+05  -4.033938e+02   2.609159e+03  -7.305583e-19   1.177889e+06   2.329525e-35   0.000000e+00   0.000000e+00
     2472000   2.471999e-05   2.698178e+01   1.658227e+01   2.495627e+01   1.087427e+06   1.681236e+05   4.203103e+05  -3.890511e+02   2.516390e+03  -1.146637e-19   1.177889e+06   2.166826e-35   0.000000e+00   0.000000e+00
     2480000   2.479999e-05   2.706877e+01   1.659572e+01   2.498989e+01   1.087427e+06   1.681236e+05   4.203103e+05  -3.538525e+02   2.288725e+03   3.897814e-20   1.177889e+06   1.792486e-35   0.000000e+00   0.000000e+00
     2488000   2.487999e-05   2.715576e+01   1.660917e+01   2.502352e+01   1.087427e+06   1.681236e+05   4.203103e+05  -3.340450e+02   2.160610e+03   3.643333e-19   1.177889e+06   1.597408e-35   0.000000e+00   0.000000e+00
     2496000   2.495999e-05   2.724276e+01   1.662262e+01   2.505714e+01   1.087427e+06   1.681236e+05   4.203103e+05  -3.079284e+02   1.991687e+03   1.075821e-19   1.177889e+06   1.357411e-35   0.000000e+00   0.000000e+00
     2504000   2.503999e-05   2.732975e+01   1.663607e+01   2.509077e+01   1.087427e+06   1.681236e+05   4.203103e+05  -2.864744e+02   1.852922e+03  -1.013112e-19   1.177889e+06   1.174856e-35   0.000000e+00   0.000000e+00
     2512000   2.511999e-05   2.741675e+01   1.664952e+01   2.512439e+01   1.087427e+06   1.681236e+05   4.203103e+05  -2.608419e+02   1.687130e+03   5.190251e-19   1.177889e+06   9.740373e-36   0.000000e+00   0.000000e+00
     2520000   2.519999e-05   2.750374e+01   1.666297e+01   2.515802e+01   1.087427e+06   1.681236e+05   4.203103e+05  -2.371847e+02   1.534116e+03   2.019097e-19   1.177889e+06   8.053733e-36   0.000000e+00   0.000000e+00
     2528000   2.527999e-05   2.759074e+01   1.667642e+01   2.519164e+01   1.087427e+06   1.681236e+05   4.203103e+05  -1.922211e+02   1.243290e+03  -1.655514e-19   1.177889e+06   5.289699e-36   0.000000e+00   0.000000e+00
     2536000   2.535999e-05   2.767773e+01   1.668987e+01   2.522527e+01   1.087427e+06   1.681236e+05   4.203103e+05  -1.863696e+02   1.205442e+03  -5.375800e-20   1.177889e+06   4.972351e-36   0.000000e+00   0.000000e+00
     2544000   2.543999e-05   2.776472e+01   1.670332e+01   2.525889e+01   1.087427e+06   1.681236e+05   4.203103e+05  -1.459580e+02   9.440593e+02  -2.649655e-20   1.177889e+06   3.049829e-36   0.000000e+00   0.000000e+00
     2552000   2.551999e-05   2.785172e+01   1.671677e+01   2.529252e+01   1.087427e+06   1.681236e+05   4.203103e+05  -1.311102e+02   8.480232e+02   1.420034e-19   1.177889e+06   2.460879e-36   0.000000e+00   0.000000e+00
     2560000   2.559999e-05   2.793871e+01   1.673022e+01   2.532614e+01   1.087427e+06   1.681236e+05   4.203103e+05  -9.708247e+01   6.279314e+02  -3.243104e-20   1.177889e+06   1.349358e-36   0.000000e+00   0.000000e+00
     2568000   2.567999e-05   2.802571e+01   1.674367e+01   2.535977e+01   1.087427e+06   1.681236e+05   4.203103e+05  -6.355906e+01   4.111013e+02  -9.436883e-20   1.177889e+06   5.783843e-37   0.000000e+00   0.000000e+00
     2576000   2.575999e-05   2.811270e+01   1.675712e+01   2.539339e+01   1.087427e+06   1.681236e+05   4.203103e+05  -4.227850e+01   2.734582e+02   1.067123e-20   1.177889e+06   2.558966e-37   0.000000e+00   0.000000e+00
     2584000   2.583999e-05   2.819969e+01   1.677057e+01   2.542702e+01   1.087427e+06   1.681236e+05   4.203103e+05  -1.863892e+01   1.205569e+02   6.129174e-21   1.177889e+06   4.974351e-38   0.000000e+00   0.000000e+00
     2592000   2.591999e-05   2.828669e+01   1.678402e+01   2.546064e+01   1.087427e+06   1.681236e+05   4.203103e+05   1.293489e+01  -8.366310e+01   2.117479e-20   1.177889e+06   2.393468e-38   0.000000e+00   0.000000e+00
     2600000   2.599999e-05   2.837368e+01   1.679747e+01   2.549427e+01   1.087427e+06   1.681236e+05   4.203103e+05   2.574982e+01  -1.665504e+02   1.967713e-20   1.177889e+06   9.489566e-38   0.000000e+00   0.000000e+00
     2608000   2.607999e-05   2.846068e+01   1.681092e+01   2.552789e+01   1.087427e+06   1.681236e+05   4.203103e+05   4.691596e+01  -3.034534e+02  -1.057367e-20   1.177889e+06   3.150858e-37   0.000000e+00   0.000000e+00
     2616000   2.615999e-05   2.854767e+01   1.682437e+01   2.556152e+01   1.087427e+06   1.681236e+05   4.203103e+05   7.633525e+01  -4.937379e+02   1.277408e-19   1.177889e+06   8.340509e-37   0.000000e+00   0.000000e+00
     2624000   2.623999e-05   2.863466e+01   1.683782e+01   2.559514e+01   1.087427e+06   1.681236e+05   4.203103e+05   9.631196e+01  -6.229477e+02  -1.001677e-19   1.177889e+06   1.327852e-36   0.000000e+00   0.000000e+00
     2632000   2.631999e-05   2.872166e+01   1.685127e+01   2.562877e+01   1.087427e+06   1.681236e+05   4.203103e+05   1.156177e+02  -7.478175e+02  -1.344853e-19   1.177889e+06   1.913590e-36   0.000000e+00   0.000000e+00
     2640000   2.639999e-05   2.880865e+01   1.686472e+01   2.566239e+01   1.087427e+06   1.681236e+05   4.203103e+05   1.375053e+02  -8.893873e+02  -8.503693e-20   1.177889e+06   2.706664e-36   0.000000e+00   0.000000e+00
     2648000   2.647999e-05   2.889565e+01   1.687817e+01   2.569602e+01   1.087427e+06   1.681236e+05   4.203103e+05   1.475817e+02  -9.545614e+02  -2.381054e-19   1.177889e+06   3.117890e-36   0.000000e+00   0.000000e+00
     2656000   2.655999e-05   2.898264e+01   1.689162e+01   2.572964e+01   1.087427e+06   1.681236e+05   4.203103e+05   1.822417e+02  -1.178743e+03   2.243739e-19   1.177889e+06   4.754245e-36   0.000000e+00   0.000000e+00
     2664000   2.663999e-05   2.906964e+01   1.690507e+01   2.576327e+01   1.087427e+06   1.681236e+05   4.203103e+05   1.965005e+02  -1.270969e+03   4.373859e-19   1.177889e+06   5.527420e-36   0.000000e+00   0.000000e+00
     2672000   2.671999e-05   2.915663e+01   1.691852e+01   2.579689e+01   1.087427e+06   1.681236e+05   4.203103e+05   2.085896e+02  -1.349162e+03   5.217367e-20   1.177889e+06   6.228490e-36   0.000000e+00   0.000000e+00
     2680000   2.679999e-05   2.924362e+01   1.693197e+01   2.583051e+01   1.087427e+06   1.681236e+05   4.203103e+05   2.250038e+02  -1.455329e+03  -3.882186e-19   1.177889e+06   7.247224e-36   0.000000e+00   0.000000e+00
     2688000   2.687999e-05   2.933062e+01   1.694542e+01   2.586414e+01   1.087427e+06   1.681236e+05   4.203103e+05   2.497493e+02  -1.615384e+03   9.014762e-20   1.177889e+06   8.928935e-36   0.000000e+00   0.000000e+00
     2696000   2.695999e-05   2.941761e+01   1.695887e+01   2.589776e+01   1.087427e+06   1.681236e+05   4.203103e+05   2.504274e+02  -1.619770e+03  -1.325980e-19   1.177889e+06   8.977750e-36   0.000000e+00   0.000000e+00
     2704000   2.703999e-05   2.950461e+01   1.697232e+01   2.593139e+01   1.087427e+06   1.681236e+05   4.203103e+05   2.723027e+02  -1.761259e+03   3.026683e-19   1.177889e+06   1.061463e-35   0.000000e+00   0.000000e+00
     2712000   2.711999e-05   2.959160e+01   1.698577e+01   2.596501e+01   1.087427e+06   1.681236e+05   4.203103e+05   2.777662e+02  -1.796597e+03   4.560407e-19   1.177889e+06   1.104485e-35   0.000000e+00   0.000000e+00
     2720000   2.719999e-05   2.967859e+01   1.699922e+01   2.599864e+01   1.087427e+06   1.681236e+05   4.203103e+05   2.886436e+02  -1.866953e+03   3.343085e-20   1.177889e+06   1.192686e-35   0.000000e+00   0.000000e+00
     2728000   2.727999e-05   2.976559e+01   1.701267e+01   2.603226e+01   1.087427e+06   1.681236e+05   4.203103e+05   3.039352e+02  -1.965859e+03   1.544081e-19   1.177889e+06   1.322395e-35   0.000000e+00   0.000000e+00
     2736000   2.735999e-05   2.985258e+01   1.702612e+01   2.606589e+01   1.087427e+06   1.681236e+05   4.203103e+05   3.138458e+02  -2.029961e+03   5.445578e-19   1.177889e+06   1.410043e-35   0.000000e+00   0.000000e+00
     2744000   2.743999e-05   2.993958e+01   1.703957e+01   2.609951e+01   1.087427e+06   1.681236e+05   4.203103e+05   3.189796e+02  -2.063166e+03   2.678906e-19   1.177889e+06   1.456554e-35   0.000000e+00   0.000000e+00
     2752000   2.751999e-05   3.002657e+01   1.705302e+01   2.613314e+01   1.087427e+06   1.681236e+05   4.203103e+05   3.273795e+02  -2.117497e+03  -2.457646e-19   1.177889e+06   1.534298e-35   0.000000e+00   0.000000e+00
     2760000   2.759999e-05   3.011356e+01   1.706647e+01   2.616676e+01   1.087427e+06   1.681236e+05   4.203103e+05   3.448073e+02  -2.230221e+03  -6.295031e-19   1.177889e+06   1.701983e-35   0.000000e+00   0.000000e+00
     2768000   2.767999e-05   3.020056e+01   1.707992e+01   2.620039e+01   1.087427e+06   1.681236e+05   4.203103e+05   3.412727e+02  -2.207359e+03  -5.286590e-19   1.177889e+06   1.667268e-35   0.000000e+00   0.000000e+00
     2776000   2.775999e-05   3.028755e+01   1.709337e+01   2.623401e+01   1.087427e+06   1.681236e+05   4.203103e+05   3.442035e+02  -2.226315e+03  -2.767801e-19   1.177889e+06   1.696028e-35   0.000000e+00   0.000000e+00
     2784000   2.783999e-05   3.037455e+01   1.710681e+01   2.626764e+01   1.087427e+06   1.681236e+05   4.203103e+05   3.462451e+02  -2.239520e+03  -5.330998e-20   1.177889e+06   1.716221e-35   0.000000e+00   0.000000e+00
     2792000   2.791999e-05   3.046154e+01   1.712026e+01   2.630126e+01   1.087427e+06   1.681236e+05   4.203103e+05   3.510315e+02  -2.270479e+03   2.200864e-19   1.177889e+06   1.763993e-35   0.000000e+00   0.000000e+00
     2800000   2.799999e-05   3.054854e+01   1.713371e+01   2.633489e+01   1.087427e+06   1.681236e+05   4.203103e+05   3.601481e+02  -2.329445e+03  -2.957179e-19   1.177889e+06   1.856783e-35   0.000000e+00   0.000000e+00
     2808000   2.807999e-05   3.063553e+01   1.714716e+01   2.636851e+01   1.087427e+06   1.681236e+05   4.203103e+05   3.547311e+02  -2.294408e+03   2.555441e-20   1.177889e+06   1.801367e-35   0.000000e+00   0.000000e+00
     2816000   2.815999e-05   3.072252e+01   1.716061e+01   2.640214e+01   1.087427e+06   1.681236e+05   4.203103e+05   3.561296e+02  -2.303454e+03   5.765870e-19   1.177889e+06   1.815596e-35   0.000000e+00   0.000000e+00
     2824000   2.823999e-05   3.080952e+01   1.717406e+01   2.643576e+01   1.087427e+06   1.681236e+05   4.203103e+05   3.628223e+02  -2.346742e+03  -5.311985e-19   1.177889e+06   1.884482e-35   0.000000e+00   0.000000e+00
     2832000   2.831999e-05   3.089651e+01   1.718751e+01   2.646939e+01   1.087427e+06   1.681236e+05   4.203103e+05   3.599909e+02  -2.328428e+03  -2.531047e-19   1.177889e+06   1.855185e-35   0.000000e+00   0.000000e+00
     2840000   2.839999e-05   3.098351e+01   1.720096e+01   2.650301e+01   1.087427e+06   1.681236e+05   4.203103e+05   3.596333e+02  -2.326115e+03   2.854642e-19   1.177889e+06   1.851497e-35   0.000000e+00   0.000000e+00
     2848000   2.847999e-05   3.107050e+01   1.721441e+01   2.653664e+01   1.087427e+06   1.681236e+05   4.203103e+05   3.636061e+02  -2.351811e+03  -3.800514e-19   1.177889e+06   1.892624e-35   0.000000e+00   0.000000e+00
     2856000   2.855999e-05   3.115749e+01   1.722786e+01   2.657026e+01   1.087427e+06   1.681236e+05   4.203103e+05   3.578463e+02  -2.314557e+03  -2.796381e-19   1.177889e+06   1.833152e-35   0.000000e+00   0.000000e+00
     2864000   2.863999e-05   3.124449e+01   1.724131e+01   2.660389e+01   1.087427e+06   1.681236e+05   4.203103e+05   3.586275e+02  -2.319610e+03  -3.964901e-19   1.177889e+06   1.841150e-35   0.000000e+00   0.000000e+00
     2872000   2.871999e-05   3.133148e+01   1.725476e+01   2.663751e+01   1.087427e+06   1.681236e+05   4.203103e+05   3.548681e+02  -2.295294e+03  -6.052803e-19   1.177889e+06   1.802758e-35   0.000000e+00   0.000000e+00
     2880000   2.879999e-05   3.141848e+01   1.726821e+01   2.667114e+01   1.087427e+06   1.681236e+05   4.203103e+05   3.438013e+02  -2.223714e+03   1.299339e-19   1.177889e+06   1.692095e-35   0.000000e+00   0.000000e+00
     2888000   2.887999e-05   3.150547e+01   1.728166e+01   2.670476e+01   1.087427e+06   1.681236e+05   4.203103e+05   3.489231e+02  -2.256841e+03  -4.108156e-19   1.177889e+06   1.742852e-35   0.000000e+00   0.000000e+00
     2896000   2.895999e-05   3.159247e+01   1.729511e+01   2.673839e+01   1.087427e+06   1.681236e+05   4.203103e+05   3.555983e+02  -2.300017e+03  -1.001091e-19   1.177889e+06   1.810175e-35   0.000000e+00   0.000000e+00
     2904000   2.903999e-05   3.167946e+01   1.730856e+01   2.677201e+01   1.087427e+06   1.681236e+05   4.203103e+05   3.420432e+02  -2.212342e+03   1.997445e-19   1.177889e+06   1.674810e-35   0.000000e+00   0.000000e+00
     2912000   2.911999e-05   3.176645e+01   1.732201e+01   2.680563e+01   1.087427e+06   1.681236e+05   4.203103e+05   3.330608e+02  -2.154244e+03  -2.083289e-19   1.177889e+06   1.588009e-35   0.000000e+00   0.000000e+00
     2920000   2.919999e-05   3.185345e+01   1.733546e+01   2.683926e+01   1.087427e+06   1.681236e+05   4.203103e+05   3.309029e+02  -2.140287e+03  -2.533183e-20   1.177889e+06   1.567485e-35   0.000000e+00   0.000000e+00
     2928000   2.927999e-05   3.194044e+01   1.734891e+01   2.687288e+01   1.087427e+06   1.681236e+05   4.203103e+05   3.321569e+02  -2.148398e+03   1.827136e-19   1.177889e+06   1.579389e-35   0.000000e+00   0.000000e+00
     2936000   2.935999e-05   3.202744e+01   1.736236e+01   2.690651e+01   1.087427e+06   1.681236e+05   4.203103e+05   3.197208e+02  -2.067961e+03  -1.522516e-19   1.177889e+06   1.463344e-35   0.000000e+00   0.000000e+00
     2944000   2.943999e-05   3.211443e+01   1.737581e+01   2.694013e+01   1.087427e+06   1.681236e+05   4.203103e+05   3.188215e+02  -2.062144e+03  -2.450602e-19   1.177889e+06   1.455131e-35   0.000000e+00   0.000000e+00
     2952000   2.951999e-05   3.220142e+01   1.738926e+01   2.697376e+01   1.087427e+06   1.681236e+05   4.203103e+05   3.076897e+02  -1.990143e+03   1.011080e-19   1.177889e+06   1.355277e-35   0.000000e+00   0.000000e+00
     2960000   2.959999e-05   3.228842e+01   1.740271e+01   2.700738e+01   1.087427e+06   1.681236e+05   4.203103e+05   3.058740e+02  -1.978399e+03   1.832162e-19   1.177889e+06   1.339334e-35   0.000000e+00   0.000000e+00
     2968000   2.967999e-05   3.237541e+01   1.741616e+01   2.704101e+01   1.087427e+06   1.681236e+05   4.203103e+05   2.976363e+02  -1.925118e+03   2.627267e-19   1.177889e+06   1.268172e-35   0.000000e+00   0.000000e+00
     2976000   2.975999e-05   3.246241e+01   1.742961e+01   2.707463e+01   1.087427e+06   1.681236e+05   4.203103e+05   2.955474e+02  -1.911606e+03  -3.888313e-19   1.177889e+06   1.250431e-35   0.000000e+00   0.000000e+00
     2984000   2.983999e-05   3.254940e+01   1.744306e+01   2.710826e+01   1.087427e+06   1.681236e+05   4.203103e+05   2.887333e+02  -1.867533e+03  -3.770675e-19   1.177889e+06   1.193431e-35   0.000000e+00   0.000000e+00
     2992000   2.991999e-05   3.263639e+01   1.745651e+01   2.714188e+01   1.087427e+06   1.681236e+05   4.203103e+05   2.832041e+02  -1.831770e+03  -4.074100e-19   1.177889e+06   1.148159e-35   0.000000e+00   0.000000e+00
     3000000   2.999999e-05   3.272339e+01   1.746996e+01   2.717551e+01   1.087427e+06   1.681236e+05   4.203103e+05   2.698846e+02  -1.745619e+03  -3.133473e-19   1.177889e+06   1.042708e-35   0.000000e+00   0.000000e+00
     3008000   3.007999e-05   3.281038e+01   1.748341e+01   2.720913e+01   1.087427e+06   1.681236e+05   4.203103e+05   2.639587e+02  -1.707291e+03   2.105103e-19   1.177889e+06   9.974054e-36   0.000000e+00   0.000000e+00
     3016000   3.015999e-05   3.289738e+01   1.749686e+01   2.724276e+01   1.087427e+06   1.681236e+05   4.203103e+05   2.729065e+02  -1.765165e+03   2.141309e-19   1.177889e+06   1.066173e-35   0.000000e+00   0.000000e+00
     3024000   3.023999e-05   3.298437e+01   1.751031e+01   2.727638e+01   1.087427e+06   1.681236e+05   4.203103e+05   2.670553e+02  -1.727319e+03   1.950451e-19   1.177889e+06   1.020944e-35   0.000000e+00   0.000000e+00
     3032000   3.031999e-05   3.307137e+01   1.752376e+01   2.731001e+01   1.087427e+06   1.681236e+05   4.203103e+05   2.467953e+02  -1.596277e+03  -1.062620e-19   1.177889e+06   8.719324e-36   0.000000e+00   0.000000e+00
     3040000   3.039999e-05   3.315836e+01   1.753721e+01   2.734363e+01   1.087427e+06   1.681236e+05   4.203103e+05   2.423909e+02  -1.567790e+03  -2.637906e-20   1.177889e+06   8.410798e-36   0.000000e+00   0.000000e+00
     3048000   3.047999e-05   3.324535e+01   1.755066e+01   2.737726e+01   1.087427e+06   1.681236e+05   4.203103e+05   2.380352e+02  -1.539617e+03  -2.722476e-20   1.177889e+06   8.111200e-36   0.000000e+00   0.000000e+00
     3056000   3.055999e-05   3.333235e+01   1.756411e+01   2.741088e+01   1.087427e+06   1.681236e+05   4.203103e+05   2.298624e+02  -1.486755e+03   3.647308e-19   1.177889e+06   7.563874e-36   0.000000e+00   0.000000e+00
     3064000   3.063999e-05   3.341934e+01   1.757756e+01   2.744451e+01   1.087427e+06   1.681236e+05   4.203103e+05   2.335314e+02  -1.510486e+03  -1.556026e-19   1.177889e+06   7.807200e-36   0.000000e+00   0.000000e+00
     3072000   3.071999e-05   3.350634e+01   1.759101e+01   2.747813e+01   1.087427e+06   1.681236e+05   4.203103e+05   2.214864e+02  -1.432578e+03  -5.633563e-20   1.177889e+06   7.022618e-36   0.000000e+00   0.000000e+00
     3080000   3.079999e-05   3.359333e+01   1.760446e+01   2.751176e+01   1.087427e+06   1.681236e+05   4.203103e+05   2.064327e+02  -1.335211e+03   2.468239e-20   1.177889e+06   6.100552e-36   0.000000e+00   0.000000e+00
     3088000   3.087999e-05   3.368032e+01   1.761791e+01   2.754538e+01   1.087427e+06   1.681236e+05   4.203103e+05   2.141876e+02  -1.385370e+03  -2.696841e-19   1.177889e+06   6.567312e-36   0.000000e+00   0.000000e+00
     3096000   3.095999e-05   3.376732e+01   1.763136e+01   2.757901e+01   1.087427e+06   1.681236e+05   4.203103e+05   1.961969e+02  -1.269006e+03  -8.525355e-20   1.177889e+06   5.510561e-36   0.000000e+00   0.000000e+00
     3104000   3.103999e-05   3.385431e+01   1.764481e+01   2.761263e+01   1.087427e+06   1.681236e+05   4.203103e+05   1.926085e+02  -1.245796e+03  -1.658139e-19   1.177889e+06   5.310809e-36   0.000000e+00   0.000000e+00
     3112000   3.111999e-05   3.394131e+01   1.765826e+01   2.764626e+01   1.087427e+06   1.681236e+05   4.203103e+05   1.912066e+02  -1.236728e+03   4.106349e-19   1.177889e+06   5.233695e-36   0.000000e+00   0.000000e+00
     3120000   3.119999e-05   3.402830e+01   1.767171e+01   2.767988e+01   1.087427e+06   1.681236e+05   4.203103e+05   1.864862e+02  -1.206196e+03  -2.515696e-19   1.177889e+06   4.978486e-36   0.000000e+00   0.000000e+00
     3128000   3.127999e-05   3.411529e+01   1.768516e+01   2.771350e+01   1.087427e+06   1.681236e+05   4.203103e+05   1.749374e+02  -1.131498e+03   3.180731e-19   1.177889e+06   4.381029e-36   0.000000e+00   0.000000e+00
     3136000   3.135999e-05   3.420229e+01   1.769861e+01   2.774713e+01   1.087427e+06   1.681236e+05   4.203103e+05   1.705964e+02  -1.103421e+03   1.294545e-19   1.177889e+06   4.166210e-36   0.000000e+00   0.000000e+00
     3144000   3.143999e-05   3.428928e+01   1.771206e+01   2.778075e+01   1.087427e+06   1.681236e+05   4.203103e+05   1.613173e+02  -1.043404e+03  -8.140625e-20   1.177889e+06   3.725388e-36   0.000000e+00   0.000000e+00
     3152000   3.151999e-05   3.437628e+01   1.772551e+01   2.781438e+01   1.087427e+06   1.681236e+05   4.203103e+05   1.585508e+02  -1.025510e+03   4.077799e-20   1.177889e+06   3.598685e-36   0.000000e+00   0.000000e+00
     3160000   3.159999e-05   3.446327e+01   1.773896e+01   2.784800e+01   1.087427e+06   1.681236e+05   4.203103e+05   1.599805e+02  -1.034757e+03  -1.617019e-19   1.177889e+06   3.663836e-36   0.000000e+00   0.000000e+00
     3168000   3.167999e-05   3.455027e+01   1.775241e+01   2.788163e+01   1.087427e+06   1.681236e+05   4.203103e+05   1.530559e+02  -9.899687e+02  -6.341968e-20   1.177889e+06   3.353599e-36   0.000000e+00   0.000000e+00
     3176000   3.175999e-05   3.463726e+01   1.776586e+01   2.791525e+01   1.087427e+06   1.681236e+05   4.203103e+05   1.435651e+02  -9.285821e+02  -2.713798e-19   1.177889e+06   2.950586e-36   0.000000e+00   0.000000e+00
     3184000   3.183999e-05   3.472425e+01   1.777931e+01   2.794888e+01   1.087427e+06   1.681236e+05   4.203103e+05   1.407117e+02  -9.101261e+02  -2.089777e-19   1.177889e+06   2.834405e-36   0.000000e+00   0.000000e+00
     3192000   3.191999e-05   3.481125e+01   1.779276e+01   2.798250e+01   1.087427e+06   1.681236e+05   4.203103e+05   1.394062e+02  -9.016823e+02  -2.008346e-19   1.177889e+06   2.782093e-36   0.000000e+00   0.000000e+00
     3200000   3.199999e-05   3.489824e+01   1.780621e+01   2.801613e+01   1.087427e+06   1.681236e+05   4.203103e+05   1.282022e+02  -8.292146e+02  -3.182103e-19   1.177889e+06   2.352880e-36   0.000000e+00   0.000000e+00
     3208000   3.207999e-05   3.498524e+01   1.781966e+01   2.804975e+01   1.087427e+06   1.681236e+05   4.203103e+05   1.263711e+02  -8.173710e+02   1.911255e-20   1.177889e+06   2.286127e-36   0.000000e+00   0.000000e+00
     3216000   3.215999e-05   3.507223e+01   1.783311e+01   2.808338e+01   1.087427e+06   1.681236e+05   4.203103e+05   1.249182e+02  -8.079738e+02  -2.446109e-19   1.177889e+06   2.233866e-36   0.000000e+00   0.000000e+00
     3224000   3.223999e-05   3.515922e+01   1.784656e+01   2.811700e+01   1.087427e+06   1.681236e+05   4.203103e+05   1.197276e+02  -7.744005e+02  -1.059171e-20   1.177889e+06   2.052041e-36   0.000000e+00   0.000000e+00
     3232000   3.231999e-05   3.524622e+01   1.786001e+01   2.815063e+01   1.087427e+06   1.681236e+05   4.203103e+05   1.080228e+02  -6.986934e+02   5.876502e-22   1.177889e+06   1.670487e-36   0.000000e+00   0.000000e+00
     3240000   3.239999e-05   3.533321e+01   1.787346e+01   2.818425e+01   1.087427e+06   1.681236e+05   4.203103e+05   1.104419e+02  -7.143407e+02  -6.190988e-20   1.177889e+06   1.746168e-36   0.000000e+00   0.000000e+00
     3248000   3.247999e-05   3.542021e+01   1.788691e+01   2.821788e+01   1.087427e+06   1.681236e+05   4.203103e+05   1.010779e+02  -6.537741e+02   4.325579e-20   1.177889e+06   1.462594e-36   0.000000e+00   0.000000e+00
     3256000   3.255999e-05   3.550720e+01   1.790036e+01   2.825150e+01   1.087427e+06   1.681236e+05   4.203103e+05   9.670628e+01  -6.254982e+02  -3.948500e-20   1.177889e+06   1.338828e-36   0.000000e+00   0.000000e+00
     3264000   3.263999e-05   3.559420e+01   1.791381e+01   2.828513e+01   1.087427e+06   1.681236e+05   4.203103e+05   8.598041e+01  -5.561231e+02   1.034125e-19   1.177889e+06   1.058317e-36   0.000000e+00   0.000000e+00
     3272000   3.271999e-05   3.568119e+01   1.792726e+01   2.831875e+01   1.087427e+06   1.681236e+05   4.203103e+05   9.133024e+01  -5.907259e+02  -1.511186e-20   1.177889e+06   1.194085e-36   0.000000e+00   0.000000e+00
     3280000   3.279999e-05   3.576818e+01   1.794071e+01   2.835238e+01   1.087427e+06   1.681236e+05   4.203103e+05   7.902807e+01  -5.111552e+02  -2.284552e-20   1.177889e+06   8.940975e-37   0.000000e+00   0.000000e+00
     3288000   3.287999e-05   3.585518e+01   1.795416e+01   2.838600e+01   1.087427e+06   1.681236e+05   4.203103e+05   9.480812e+01  -6.132209e+02   9.461549e-20   1.177889e+06   1.286757e-36   0.000000e+00   0.000000e+00
     3296000   3.295999e-05   3.594217e+01   1.796761e+01   2.841963e+01   1.087427e+06   1.681236e+05   4.203103e+05   7.399652e+01  -4.786110e+02   3.188413e-20   1.177889e+06   7.838671e-37   0.000000e+00   0.000000e+00
     3304000   3.303999e-05   3.602917e+01   1.798106e+01   2.845325e+01   1.087427e+06   1.681236e+05   4.203103e+05   8.070687e+01  -5.220137e+02  -5.560176e-20   1.177889e+06   9.324612e-37   0.000000e+00   0.000000e+00
     3312000   3.311999e-05   3.611616e+01   1.799451e+01   2.848688e+01   1.087427e+06   1.681236e+05   4.203103e+05   8.094053e+01  -5.235250e+02  -5.743339e-20   1.177889e+06   9.378446e-37   0.000000e+00   0.000000e+00
     3320000   3.319999e-05   3.620315e+01   1.800796e+01   2.852050e+01   1.087427e+06   1.681236e+05   4.203103e+05   6.215676e+01  -4.020312e+02  -1.747230e-20   1.177889e+06   5.530384e-37   0.000000e+00   0.000000e+00
     3328000   3.327999e-05   3.629015e+01   1.802141e+01   2.855413e+01   1.087427e+06   1.681236e+05   4.203103e+05   7.638616e+01  -4.940673e+02   1.098686e-19   1.177889e+06   8.352423e-37   0.000000e+00   0.000000e+00
     3336000   3.335999e-05   3.637714e+01   1.803486e+01   2.858775e+01   1.087427e+06   1.681236e+05   4.203103e+05   6.648804e+01  -4.300460e+02   2.971826e-20   1.177889e+06   6.328333e-37   0.000000e+00   0.000000e+00
     3344000   3.343999e-05   3.646414e+01   1.804831e+01   2.862138e+01   1.087427e+06   1.681236e+05   4.203103e+05   6.684329e+01  -4.323437e+02  -9.111078e-21   1.177889e+06   6.396066e-37   0.000000e+00   0.000000e+00
     3352000   3.351999e-05   3.655113e+01   1.806176e+01   2.865500e+01   1.087427e+06   1.681236e+05   4.203103e+05   5.249666e+01  -3.395495e+02  -3.227901e-20   1.177889e+06   3.945433e-37   0.000000e+00   0.000000e+00
     3360000   3.359999e-05   3.663812e+01   1.807521e+01   2.868862e+01   1.087427e+06   1.681236e+05   4.203103e+05   5.485782e+01  -3.548215e+02  -1.071386e-22   1.177889e+06   4.308053e-37   0.000000e+00   0.000000e+00
     3368000   3.367999e-05   3.672512e+01   1.808866e+01   2.872225e+01   1.087427e+06   1.681236e+05   4.203103e+05   5.849468e+01  -3.783448e+02   4.715185e-20   1.177889e+06   4.898026e-37   0.000000e+00   0.000000e+00
     3376000   3.375999e-05   3.681211e+01   1.810211e+01   2.875587e+01   1.087427e+06   1.681236e+05   4.203103e+05   5.572614e+01  -3.604378e+02   5.719049e-20   1.177889e+06   4.445493e-37   0.000000e+00   0.000000e+00
     3384000   3.383999e-05   3.689911e+01   1.811556e+01   2.878950e+01   1.087427e+06   1.681236e+05   4.203103e+05   5.636225e+01  -3.645522e+02  -2.346744e-20   1.177889e+06   4.547563e-37   0.000000e+00   0.000000e+00
     3392000   3.391999e-05   3.698610e+01   1.812901e+01   2.882312e+01   1.087427e+06   1.681236e+05   4.203103e+05   3.817227e+01  -2.468990e+02  -5.068681e-21   1.177889e+06   2.086133e-37   0.000000e+00   0.000000e+00
     3400000   3.399999e-05   3.707310e+01   1.814246e+01   2.885675e+01   1.087427e+06   1.681236e+05   4.203103e+05   5.335943e+01  -3.451299e+02   7.419336e-20   1.177889e+06   4.075664e-37   0.000000e+00   0.000000e+00
     3408000   3.407999e-05   3.716009e+01   1.815591e+01   2.889037e+01   1.087427e+06   1.681236e+05   4.203103e+05   3.628464e+01  -2.346898e+02   2.597417e-21   1.177889e+06   1.884815e-37   0.000000e+00   0.000000e+00
     3416000   3.415999e-05   3.724708e+01   1.816936e+01   2.892400e+01   1.087427e+06   1.681236e+05   4.203103e+05   4.028513e+01  -2.605650e+02  -1.824005e-20   1.177889e+06   2.323307e-37   0.000000e+00   0.000000e+00
     3424000   3.423999e-05   3.733408e+01   1.818281e+01   2.895762e+01   1.087427e+06   1.681236e+05   4.203103e+05   3.742059e+01  -2.420372e+02  -2.730987e-20   1.177889e+06   2.004601e-37   0.000000e+00   0.000000e+00
     3432000   3.431999e-05   3.742107e+01   1.819626e+01   2.899125e+01   1.087427e+06   1.681236e+05   4.203103e+05   2.536877e+01  -1.640858e+02  -1.472119e-20   1.177889e+06   9.213092e-38   0.000000e+00   0.000000e+00
     3440000   3.439999e-05   3.750807e+01   1.820971e+01   2.902487e+01   1.087427e+06   1.681236e+05   4.203103e+05   3.179715e+01  -2.056646e+02   3.175062e-21   1.177889e+06   1.447265e-37   0.000000e+00   0.000000e+00
     3448000   3.447999e-05   3.759506e+01   1.822316e+01   2.905850e+01   1.087427e+06   1.681236e+05   4.203103e+05   4.107352e+01  -2.656644e+02  -1.449322e-20   1.177889e+06   2.414919e-37   0.000000e+00   0.000000e+00
     3456000   3.455999e-05   3.768205e+01   1.823661e+01   2.909212e+01   1.087427e+06   1.681236e+05   4.203103e+05   2.657257e+01  -1.718719e+02   4.650440e-20   1.177889e+06   1.010883e-37   0.000000e+00   0.000000e+00
     3464000   3.463999e-05   3.776905e+01   1.825006e+01   2.912575e+01   1.087427e+06   1.681236e+05   4.203103e+05   3.082314e+01  -1.993647e+02  -2.166131e-20   1.177889e+06   1.360045e-37   0.000000e+00   0.000000e+00
     3472000   3.471999e-05   3.785604e+01   1.826351e+01   2.915937e+01   1.087427e+06   1.681236e+05   4.203103e+05   2.612058e+01  -1.689485e+02   4.044729e-20   1.177889e+06   9.767604e-38   0.000000e+00   0.000000e+00
     3480000   3.479999e-05   3.794304e+01   1.827695e+01   2.919300e+01   1.087427e+06   1.681236e+05   4.203103e+05   1.908256e+01  -1.234264e+02   1.266663e-20   1.177889e+06   5.213521e-38   0.000000e+00   0.000000e+00
     3488000   3.487999e-05   3.803003e+01   1.829040e+01   2.922662e+01   1.087427e+06   1.681236e+05   4.203103e+05   2.700741e+01  -1.746845e+02  -1.359114e-20   1.177889e+06   1.044169e-37   0.000000e+00   0.000000e+00
     3496000   3.495999e-05   3.811702e+01   1.830385e+01   2.926025e+01   1.087427e+06   1.681236e+05   4.203103e+05   1.980460e+01  -1.280966e+02   1.581223e-21   1.177889e+06   5.614423e-38   0.000000e+00   0.000000e+00
     3504000   3.503999e-05   3.820402e+01   1.831730e+01   2.929387e+01   1.087427e+06   1.681236e+05   4.203103e+05   1.366653e+01  -8.839539e+01   2.203171e-21   1.177889e+06   2.673699e-38   0.000000e+00   0.000000e+00
     3512000   3.511999e-05   3.829101e+01   1.833075e+01   2.932750e+01   1.087427e+06   1.681236e+05   4.203103e+05   2.658964e+01  -1.719824e+02  -4.057685e-20   1.177889e+06   1.012003e-37   0.000000e+00   0.000000e+00
     3520000   3.519999e-05   3.837801e+01   1.834420e+01   2.936112e+01   1.087427e+06   1.681236e+05   4.203103e+05   1.820424e+01  -1.177454e+02   3.086432e-20   1.177889e+06   4.744247e-38   0.000000e+00   0.000000e+00
     3528000   3.527999e-05   3.846500e+01   1.835765e+01   2.939475e+01   1.087427e+06   1.681236e+05   4.203103e+05   6.268657e+00  -4.054580e+01  -3.598207e-21   1.177889e+06   5.626385e-39   0.000000e+00   0.000000e+00
     3536000   3.535999e-05   3.855200e+01   1.837110e+01   2.942837e+01   1.087427e+06   1.681236e+05   4.203103e+05   2.128141e+01  -1.376486e+02   2.651602e-20   1.177889e+06   6.483215e-38   0.000000e+00   0.000000e+00
     3544000   3.543999e-05   3.863899e+01   1.838455e+01   2.946200e+01   1.087427e+06   1.681236e+05   4.203103e+05   1.232051e+01  -7.968930e+01  -2.278463e-21   1.177889e+06   2.172986e-38   0.000000e+00   0.000000e+00
     3552000   3.551999e-05   3.872598e+01   1.839800e+01   2.949562e+01   1.087427e+06   1.681236e+05   4.203103e+05   4.694551e+00  -3.036445e+01   6.869421e-21   1.177889e+06   3.156220e-39   0.000000e+00   0.000000e+00
     3560000   3.559999e-05   3.881298e+01   1.841145e+01   2.952925e+01   1.087427e+06   1.681236e+05   4.203103e+05   1.243788e+01  -8.044845e+01   1.215558e-20   1.177889e+06   2.214753e-38   0.000000e+00   0.000000e+00
     3568000   3.567999e-05   3.889997e+01   1.842490e+01   2.956287e+01   1.087427e+06   1.681236e+05   4.203103e+05   9.060381e+00  -5.860273e+01   5.543683e-21   1.177889e+06   1.175267e-38   0.000000e+00   0.000000e+00
     3576000   3.575999e-05   3.898697e+01   1.843835e+01   2.959649e+01   1.087427e+06   1.681236e+05   4.203103e+05   1.476554e+01  -9.550384e+01   1.599550e-20   1.177889e+06   3.120694e-38   0.000000e+00   0.000000e+00
     3584000   3.583999e-05   3.907396e+01   1.845180e+01   2.963012e+01   1.087427e+06   1.681236e+05   4.203103e+05   1.069002e+01  -6.179583e+01  -2.938972e+00   1.177889e+06   1.317236e-38   0.000000e+00   0.000000e+00
     3592000   3.591999e-05   3.916095e+01   1.846525e+01   2.966374e+01   1.087427e+06   1.681236e+05   4.203103e+05   7.496184e+00  -4.848547e+01  -4.543329e-22   1.177889e+06   8.043299e-39   0.000000e+00   0.000000e+00
     3600000   3.599999e-05   3.924795e+01   1.847870e+01   2.969737e+01   1.087427e+06   1.681236e+05   4.203103e+05  -3.381486e+00   3.491985e+01  -5.219316e+00   1.177889e+06   4.202098e-39   0.000000e+00   0.000000e+00
     3608000   3.607999e-05   3.933494e+01   1.849215e+01   2.973099e+01   1.087427e+06   1.681236e+05   4.203103e+05   1.490325e+01  -9.062969e+01  -2.305937e+00   1.177889e+06   2.820976e-38   0.000000e+00   0.000000e+00
     3616000   3.615999e-05   3.942194e+01   1.850560e+01   2.976462e+01   1.087427e+06   1.681236e+05   4.203103e+05   1.564291e+01  -4.451197e+01  -2.266662e+01   1.177889e+06   9.155569e-39   0.000000e+00   0.000000e+00
     3624000   3.623999e-05   3.950893e+01   1.851905e+01   2.979824e+01   1.087427e+06   1.681236e+05   4.203103e+05   1.062364e+01  -3.748832e+01  -1.249020e+01   1.177889e+06   5.596132e-39   0.000000e+00   0.000000e+00
     3632000   3.631999e-05   3.959593e+01   1.853250e+01   2.983187e+01   1.087427e+06   1.681236e+05   4.203103e+05  -4.295697e+00   5.492212e+00   8.916949e+00   1.177889e+06   4.278406e-40   0.000000e+00   0.000000e+00
     3640000   3.639999e-05   3.968292e+01   1.854595e+01   2.986549e+01   1.087427e+06   1.681236e+05   4.203103e+05   1.576251e+00  -9.746866e+01   3.490926e+01   1.177889e+06   3.582341e-38   0.000000e+00   0.000000e+00
     3648000   3.647999e-05   3.976991e+01   1.855940e+01   2.989912e+01   1.087427e+06   1.681236e+05   4.203103e+05   1.033988e+01   8.525325e+00  -3.016144e+01   1.177889e+06   3.639256e-39   0.000000e+00   0.000000e+00
     3656000   3.655999e-05   3.985691e+01   1.857285e+01   2.993274e+01   1.087427e+06   1.681236e+05   4.203103e+05   1.758382e+00  -2.142784e+01   4.021821e+00   1.177889e+06   1.598210e-39   0.000000e+00   0.000000e+00
     3664000   3.663999e-05   3.994390e+01   1.858630e+01   2.996637e+01   1.087427e+06   1.681236e+05   4.203103e+05   6.242074e+00   2.381729e+00  -1.710218e+01   1.177889e+06   1.126466e-39   0.000000e+00   0.000000e+00
     3672000   3.671999e-05   4.003090e+01   1.859975e+01   2.999999e+01   1.087427e+06   1.681236e+05   4.203103e+05   4.789264e+00  -8.161984e+01   2.025705e+01   1.177889e+06   2.370842e-38   0.000000e+00   0.000000e+00
     3680000   3.679999e-05   4.011789e+01   1.861320e+01   3.003362e+01   1.087427e+06   1.681236e+05   4.203103e+05   4.203003e-01   1.843535e+01  -8.461516e+00   1.177889e+06   1.376624e-39   0.000000e+00   0.000000e+00
     3688000   3.687999e-05   4.020488e+01   1.862665e+01   3.006724e+01   1.087427e+06   1.681236e+05   4.203103e+05   3.349651e+00  -1.814277e+01  -1.409133e+00   1.177889e+06   1.143956e-39   0.000000e+00   0.000000e+00
     3696000   3.695999e-05   4.029188e+01   1.864010e+01   3.010087e+01   1.087427e+06   1.681236e+05   4.203103e+05  -1.007694e+01   6.118606e+01   1.596723e+00   1.177889e+06   1.285548e-38   0.000000e+00   0.000000e+00
     3704000   3.703999e-05   4.037887e+01   1.865355e+01   3.013449e+01   1.087427e+06   1.681236e+05   4.203103e+05   1.548051e+00  -2.259239e+00  -3.101425e+00   1.177889e+06   5.713619e-41   0.000000e+00   0.000000e+00
     3712000   3.711999e-05   4.046587e+01   1.866700e+01   3.016812e+01   1.087427e+06   1.681236e+05   4.203103e+05  -6.643469e-01  -2.005827e+01   9.742080e+00   1.177889e+06   1.662538e-39   0.000000e+00   0.000000e+00
     3720000   3.719999e-05   4.055286e+01   1.868045e+01   3.020174e+01   1.087427e+06   1.681236e+05   4.203103e+05  -1.423519e+00   9.207351e+00  -1.574583e-21   1.177889e+06   2.901765e-40   0.000000e+00   0.000000e+00
     3728000   3.727999e-05   4.063985e+01   1.869390e+01   3.023537e+01   1.087427e+06   1.681236e+05   4.203103e+05  -4.175360e+00   2.700631e+01  -5.648838e-22   1.177889e+06   2.495386e-39   0.000000e+00   0.000000e+00
     3736000   3.735999e-05   4.072685e+01   1.870735e+01   3.026899e+01   1.087427e+06   1.681236e+05   4.203103e+05  -4.051281e+00   2.620377e+01   1.877723e-21   1.177889e+06   2.348998e-39   0.000000e+00   0.000000e+00
     3744000   3.743999e-05   4.081384e+01   1.872080e+01   3.030262e+01   1.087427e+06   1.681236e+05   4.203103e+05  -4.474538e+00   2.894140e+01   4.741398e-21   1.177889e+06   2.866137e-39   0.000000e+00   0.000000e+00
     3752000   3.751999e-05   4.090084e+01   1.873425e+01   3.033624e+01   1.087427e+06   1.681236e+05   4.203103e+05  -3.678559e+00   2.379300e+01  -1.650346e-21   1.177889e+06   1.937084e-39   0.000000e+00   0.000000e+00
     3760000   3.759999e-05   4.098783e+01   1.874770e+01   3.036987e+01   1.087427e+06   1.681236e+05   4.203103e+05  -4.025939e+00   2.603986e+01   1.958971e-21   1.177889e+06   2.320216e-39   0.000000e+00   0.000000e+00
     3768000   3.767999e-05   4.107483e+01   1.876115e+01   3.040349e+01   1.087427e+06   1.681236e+05   4.203103e+05  -1.107872e+00   7.165741e+00   8.060001e-23   1.177889e+06   1.760140e-40   0.000000e+00   0.000000e+00
     3776000   3.775999e-05   4.116182e+01   1.877460e+01   3.043712e+01   1.087427e+06   1.681236e+05   4.203103e+05  -1.481830e+00   9.584506e+00   7.775387e-22   1.177889e+06   3.145814e-40   0.000000e+00   0.000000e+00
     3784000   3.783999e-05   4.124881e+01   1.878805e+01   3.047074e+01   1.087427e+06   1.681236e+05   4.203103e+05  -1.114984e+01   7.211740e+01  -1.542361e-20   1.177889e+06   1.779380e-38   0.000000e+00   0.000000e+00
     3792000   3.791999e-05   4.133581e+01   1.880150e+01   3.050437e+01   1.087427e+06   1.681236e+05   4.203103e+05  -3.551807e+00   2.297316e+01   2.717617e-21   1.177889e+06   1.805375e-39   0.000000e+00   0.000000e+00
     3800000   3.799999e-05   4.142280e+01   1.881495e+01   3.053799e+01   1.087427e+06   1.681236e+05   4.203103e+05  -4.511444e+00   2.918011e+01   6.724835e-21   1.177889e+06   2.913512e-39   0.000000e+00   0.000000e+00
     3808000   3.807999e-05   4.150980e+01   1.882840e+01   3.057161e+01   1.087427e+06   1.681236e+05   4.203103e+05  -7.902090e+00   5.111088e+01  -2.945625e-21   1.177889e+06   8.940132e-39   0.000000e+00   0.000000e+00
     3816000   3.815999e-05   4.159679e+01   1.884185e+01   3.060524e+01   1.087427e+06   1.681236e+05   4.203103e+05  -7.201439e+00   4.657905e+01  -6.053330e-22   1.177889e+06   7.424335e-39   0.000000e+00   0.000000e+00
     3824000   3.823999e-05   4.168378e+01   1.885530e+01   3.063886e+01   1.087427e+06   1.681236e+05   4.203103e+05   1.701452e+00  -1.100503e+01   5.284830e-22   1.177889e+06   4.138371e-40   0.000000e+00   0.000000e+00
     3832000   3.831999e-05   4.177078e+01   1.886875e+01   3.067249e+01   1.087427e+06   1.681236e+05   4.203103e+05  -1.456416e+01   9.420127e+01  -7.151829e-21   1.177889e+06   3.036021e-38   0.000000e+00   0.000000e+00
     3840000   3.839999e-05   4.185777e+01   1.888220e+01   3.070611e+01   1.087427e+06   1.681236e+05   4.203103e+05  -2.226645e+00   1.440199e+01   1.155933e-21   1.177889e+06   7.105948e-40   0.000000e+00   0.000000e+00
     3848000   3.847999e-05   4.194477e+01   1.889565e+01   3.073974e+01   1.087427e+06   1.681236e+05   4.203103e+05  -1.149588e+01   7.435557e+01   1.380732e-21   1.177889e+06   1.891872e-38   0.000000e+00   0.000000e+00
     3856000   3.855999e-05   4.203176e+01   1.890910e+01   3.077336e+01   1.087427e+06   1.681236e+05   4.203103e+05  -4.683255e+00   3.029139e+01  -2.914079e-21   1.177889e+06   3.139797e-39   0.000000e+00   0.000000e+00
     3864000   3.863999e-05   4.211876e+01   1.892255e+01   3.080699e+01   1.087427e+06   1.681236e+05   4.203103e+05  -9.096935e+00   5.883916e+01   1.292047e-20   1.177889e+06   1.184726e-38   0.000000e+00   0.000000e+00
     3872000   3.871999e-05   4.220575e+01   1.893600e+01   3.084061e+01   1.087427e+06   1.681236e+05   4.203103e+05  -1.096134e+01   7.089820e+01   7.476120e-21   1.177889e+06   1.720260e-38   0.000000e+00   0.000000e+00
     3880000   3.879999e-05   4.229274e+01   1.894945e+01   3.087424e+01   1.087427e+06   1.681236e+05   4.203103e+05  -4.595600e+00   2.972443e+01   4.891031e-21   1.177889e+06   3.024392e-39   0.000000e+00   0.000000e+00
     3888000   3.887999e-05   4.237974e+01   1.896290e+01   3.090786e+01   1.087427e+06   1.681236e+05   4.203103e+05  -8.182105e+00   5.292202e+01  -7.145659e-21   1.177889e+06   9.582567e-39   0.000000e+00   0.000000e+00
     3896000   3.895999e-05   4.246673e+01   1.897635e+01   3.094149e+01   1.087427e+06   1.681236e+05   4.203103e+05  -8.104869e+00   5.242246e+01   6.552033e-21   1.177889e+06   9.403063e-39   0.000000e+00   0.000000e+00
     3904000   3.903999e-05   4.255373e+01   1.898980e+01   3.097511e+01   1.087427e+06   1.681236e+05   4.203103e+05  -9.630098e+00   6.228767e+01  -1.805553e-21   1.177889e+06   1.327579e-38   0.000000e+00   0.000000e+00
     3912000   3.911999e-05   4.264072e+01   1.900325e+01   3.100874e+01   1.087427e+06   1.681236e+05   4.203103e+05  -9.679592e+00   6.260780e+01   8.327161e-21   1.177889e+06   1.341318e-38   0.000000e+00   0.000000e+00
     3920000   3.919999e-05   4.272771e+01   1.901670e+01   3.104236e+01   1.087427e+06   1.681236e+05   4.203103e+05  -1.065287e+01   6.890299e+01  -1.661324e-20   1.177889e+06   1.624521e-38   0.000000e+00   0.000000e+00
     3928000   3.927999e-05   4.281471e+01   1.903015e+01   3.107599e+01   1.087427e+06   1.681236e+05   4.203103e+05  -1.009057e+01   6.526599e+01   1.200080e-20   1.177889e+06   1.457722e-38   0.000000e+00   0.000000e+00
     3936000   3.935999e-05   4.290170e+01   1.904360e+01   3.110961e+01   1.087427e+06   1.681236e+05   4.203103e+05  -8.317278e+00   5.379633e+01  -7.571600e-21   1.177889e+06   9.900417e-39   0.000000e+00   0.000000e+00
     3944000   3.943999e-05   4.298870e+01   1.905705e+01   3.114324e+01   1.087427e+06   1.681236e+05   4.203103e+05  -1.691804e+01   1.094262e+02   3.027152e-21   1.177889e+06   4.096830e-38   0.000000e+00   0.000000e+00
     3952000   3.951999e-05   4.307569e+01   1.907050e+01   3.117686e+01   1.087427e+06   1.681236e+05   4.203103e+05  -5.818192e+00   3.763219e+01   6.488170e-21   1.177889e+06   4.846431e-39   0.000000e+00   0.000000e+00
     3960000   3.959999e-05   4.316268e+01   1.908395e+01   3.121049e+01   1.087427e+06   1.681236e+05   4.203103e+05  -9.075811e+00   5.870253e+01   1.428178e-20   1.177889e+06   1.179087e-38   0.000000e+00   0.000000e+00
     3968000   3.967999e-05   4.324968e+01   1.909740e+01   3.124411e+01   1.087427e+06   1.681236e+05   4.203103e+05  -1.175792e+01   7.605049e+01  -5.258929e-21   1.177889e+06   1.978945e-38   0.000000e+00   0.000000e+00
     3976000   3.975999e-05   4.333667e+01   1.911085e+01   3.127774e+01   1.087427e+06   1.681236e+05   4.203103e+05  -1.051748e+01   6.802730e+01  -1.457257e-20   1.177889e+06   1.583651e-38   0.000000e+00   0.000000e+00
     3984000   3.983999e-05   4.342367e+01   1.912430e+01   3.131136e+01   1.087427e+06   1.681236e+05   4.203103e+05  -6.948977e+00   4.494613e+01   7.820042e-21   1.177889e+06   6.910013e-39   0.000000e+00   0.000000e+00
     3992000   3.991999e-05   4.351066e+01   1.913775e+01   3.134499e+01   1.087427e+06   1.681236e+05   4.203103e+05  -9.830844e+00   6.358610e+01   6.772294e-21   1.177889e+06   1.383672e-38   0.000000e+00   0.000000e+00
     4000000   3.999999e-05   4.359766e+01   1.915120e+01   3.137861e+01   1.087427e+06   1.681236e+05   4.203103e+05  -5.450088e+00   3.525128e+01   5.758616e-21   1.177889e+06   4.253021e-39   0.000000e+00   0.000000e+00
     4008000   4.007999e-05   4.368465e+01   1.916465e+01   3.141224e+01   1.087427e+06   1.681236e+05   4.203103e+05  -6.512461e+00   4.212273e+01   8.618363e-22   1.177889e+06   6.071956e-39   0.000000e+00   0.000000e+00
     4016000   4.015999e-05   4.377164e+01   1.917810e+01   3.144586e+01   1.087427e+06   1.681236e+05   4.203103e+05  -5.966615e+00   3.859219e+01   8.248086e-21   1.177889e+06   5.097454e-39   0.000000e+00   0.000000e+00
     4024000   4.023999e-05   4.385864e+01   1.919155e+01   3.147948e+01   1.087427e+06   1.681236e+05   4.203103e+05  -1.274380e+01   8.242713e+01  -6.162827e-21   1.177889e+06   2.324712e-38   0.000000e+00   0.000000e+00
     4032000   4.031999e-05   4.394563e+01   1.920500e+01   3.151311e+01   1.087427e+06   1.681236e+05   4.203103e+05  -7.642838e+00   4.943404e+01   8.450120e-21   1.177889e+06   8.360322e-39   0.000000e+00   0.000000e+00
     4040000   4.039999e-05   4.403263e+01   1.921845e+01   3.154673e+01   1.087427e+06   1.681236e+05   4.203103e+05  -8.322182e+00   5.382804e+01  -3.845813e-22   1.177889e+06   9.915065e-39   0.000000e+00   0.000000e+00
     4048000   4.047999e-05   4.411962e+01   1.923190e+01   3.158036e+01   1.087427e+06   1.681236e+05   4.203103e+05  -6.614676e+00   4.278386e+01  -1.127247e-22   1.177889e+06   6.263310e-39   0.000000e+00   0.000000e+00
     4056000   4.055999e-05   4.420661e+01   1.924535e+01   3.161398e+01   1.087427e+06   1.681236e+05   4.203103e+05  -1.095249e+01   7.084095e+01   2.056518e-21   1.177889e+06   1.717280e-38   0.000000e+00   0.000000e+00
     4064000   4.063999e-05   4.429361e+01   1.925880e+01   3.164761e+01   1.087427e+06   1.681236e+05   4.203103e+05  -9.763373e+00   6.314970e+01  -1.835697e-21   1.177889e+06   1.364634e-38   0.000000e+00   0.000000e+00
     4072000   4.071999e-05   4.438060e+01   1.927225e+01   3.168123e+01   1.087427e+06   1.681236e+05   4.203103e+05  -3.482546e+00   2.252518e+01  -5.257667e-22   1.177889e+06   1.736822e-39   0.000000e+00   0.000000e+00
     4080000   4.079999e-05   4.446760e+01   1.928570e+01   3.171486e+01   1.087427e+06   1.681236e+05   4.203103e+05  -5.670562e+00   3.667731e+01   5.674143e-21   1.177889e+06   4.604298e-39   0.000000e+00   0.000000e+00
     4088000   4.087999e-05   4.455459e+01   1.929915e+01   3.174848e+01   1.087427e+06   1.681236e+05   4.203103e+05  -1.780065e+01   1.151350e+02  -5.581821e-21   1.177889e+06   4.535984e-38   0.000000e+00   0.000000e+00
     4096000   4.095999e-05   4.464158e+01   1.931260e+01   3.178211e+01   1.087427e+06   1.681236e+05   4.203103e+05  -4.852261e+00   3.138452e+01   6.564231e-21   1.177889e+06   3.371587e-39   0.000000e+00   0.000000e+00
     4104000   4.103999e-05   4.472858e+01   1.932605e+01   3.181573e+01   1.087427e+06   1.681236e+05   4.203103e+05  -8.453520e+00   5.467754e+01   9.900886e-21   1.177889e+06   1.022952e-38   0.000000e+00   0.000000e+00
     4112000   4.111999e-05   4.481557e+01   1.933950e+01   3.184936e+01   1.087427e+06   1.681236e+05   4.203103e+05  -8.605239e+00   5.565886e+01   1.186669e-20   1.177889e+06   1.060160e-38   0.000000e+00   0.000000e+00
     4120000   4.119999e-05   4.490257e+01   1.935295e+01   3.188298e+01   1.087427e+06   1.681236e+05   4.203103e+05  -1.066981e+01   6.901258e+01   1.465403e-20   1.177889e+06   1.629637e-38   0.000000e+00   0.000000e+00
     4128000   4.127999e-05   4.498956e+01   1.936640e+01   3.191661e+01   1.087427e+06   1.681236e+05   4.203103e+05  -6.754630e+00   4.368908e+01  -8.910553e-21   1.177889e+06   6.532234e-39   0.000000e+00   0.000000e+00
     4136000   4.135999e-05   4.507656e+01   1.937985e+01   3.195023e+01   1.087427e+06   1.681236e+05   4.203103e+05  -8.268415e+00   5.348028e+01   4.303154e-21   1.177889e+06   9.786487e-39   0.000000e+00   0.000000e+00
     4144000   4.143999e-05   4.516355e+01   1.939330e+01   3.198386e+01   1.087427e+06   1.681236e+05   4.203103e+05  -1.180192e+01   7.633504e+01  -1.942154e-20   1.177889e+06   1.993928e-38   0.000000e+00   0.000000e+00
     4152000   4.151999e-05   4.525054e+01   1.940675e+01   3.201748e+01   1.087427e+06   1.681236e+05   4.203103e+05  -1.197528e+01   7.745634e+01   3.124174e-21   1.177889e+06   2.053125e-38   0.000000e+00   0.000000e+00
     4160000   4.159999e-05   4.533754e+01   1.942020e+01   3.205111e+01   1.087427e+06   1.681236e+05   4.203103e+05  -7.738908e+00   5.005542e+01  -1.682944e-21   1.177889e+06   8.574554e-39   0.000000e+00   0.000000e+00
     4168000   4.167999e-05   4.542453e+01   1.943365e+01   3.208473e+01   1.087427e+06   1.681236e+05   4.203103e+05  -9.378720e+00   6.066175e+01  -9.752340e-21   1.177889e+06   1.259123e-38   0.000000e+00   0.000000e+00
     4176000   4.175999e-05   4.551153e+01   1.944709e+01   3.211836e+01   1.087427e+06   1.681236e+05   4.203103e+05  -1.151906e+01   7.450555e+01   8.601681e-21   1.177889e+06   1.899553e-38   0.000000e+00   0.000000e+00
     4184000   4.183999e-05   4.559852e+01   1.946054e+01   3.215198e+01   1.087427e+06   1.681236e+05   4.203103e+05  -1.007823e+01   6.518617e+01   5.592894e-21   1.177889e+06   1.454076e-38   0.000000e+00   0.000000e+00
     4192000   4.191999e-05   4.568551e+01   1.947399e+01   3.218561e+01   1.087427e+06   1.681236e+05   4.203103e+05  -1.522154e+01   9.845325e+01  -1.370583e-20   1.177889e+06   3.316580e-38   0.000000e+00   0.000000e+00
     4200000   4.199999e-05   4.577251e+01   1.948744e+01   3.221923e+01   1.087427e+06   1.681236e+05   4.203103e+05  -1.096268e+01   7.090684e+01   4.152714e-21   1.177889e+06   1.720359e-38   0.000000e+00   0.000000e+00
     4208000   4.207999e-05   4.585950e+01   1.950089e+01   3.225286e+01   1.087427e+06   1.681236e+05   4.203103e+05  -7.626738e+00   4.932990e+01  -3.237325e-22   1.177889e+06   8.328929e-39   0.000000e+00   0.000000e+00
     4216000   4.215999e-05   4.594650e+01   1.951434e+01   3.228648e+01   1.087427e+06   1.681236e+05   4.203103e+05  -9.519241e+00   6.157065e+01  -1.361595e-20   1.177889e+06   1.297161e-38   0.000000e+00   0.000000e+00
     4224000   4.223999e-05   4.603349e+01   1.952779e+01   3.232011e+01   1.087427e+06   1.681236e+05   4.203103e+05  -8.649324e+00   5.594401e+01   1.016131e-21   1.177889e+06   1.070936e-38   0.000000e+00   0.000000e+00
     4232000   4.231999e-05   4.612049e+01   1.954124e+01   3.235373e+01   1.087427e+06   1.681236e+05   4.203103e+05  -1.014153e+01   6.559561e+01  -1.577307e-22   1.177889e+06   1.472263e-38   0.000000e+00   0.000000e+00
     4240000   4.239999e-05   4.620748e+01   1.955469e+01   3.238736e+01   1.087427e+06   1.681236e+05   4.203103e+05  -7.041633e+00   4.554543e+01  -2.836196e-21   1.177889e+06   7.097975e-39   0.000000e+00   0.000000e+00
     4248000   4.247999e-05   4.629447e+01   1.956814e+01   3.242098e+01   1.087427e+06   1.681236e+05   4.203103e+05  -6.917582e+00   4.474306e+01   4.043492e-22   1.177889e+06   6.850538e-39   0.000000e+00   0.000000e+00
     4256000   4.255999e-05   4.638147e+01   1.958159e+01   3.245460e+01   1.087427e+06   1.681236e+05   4.203103e+05  -7.180594e+00   4.644423e+01  -4.014193e-21   1.177889e+06   7.382238e-39   0.000000e+00   0.000000e+00
     4264000   4.263999e-05   4.646846e+01   1.959504e+01   3.248823e+01   1.087427e+06   1.681236e+05   4.203103e+05  -1.161493e+01   7.512559e+01   1.653710e-21   1.177889e+06   1.931110e-38   0.000000e+00   0.000000e+00
     4272000   4.271999e-05   4.655546e+01   1.960849e+01   3.252185e+01   1.087427e+06   1.681236e+05   4.203103e+05  -9.310032e+00   6.021748e+01   4.345566e-21   1.177889e+06   1.240755e-38   0.000000e+00   0.000000e+00
     4280000   4.279999e-05   4.664245e+01   1.962194e+01   3.255548e+01   1.087427e+06   1.681236e+05   4.203103e+05  -9.376783e+00   6.064922e+01   6.325532e-21   1.177889e+06   1.258665e-38   0.000000e+00   0.000000e+00
     4288000   4.287999e-05   4.672944e+01   1.963539e+01   3.258910e+01   1.087427e+06   1.681236e+05   4.203103e+05  -6.723478e+00   4.348760e+01  -5.059067e-21   1.177889e+06   6.471472e-39   0.000000e+00   0.000000e+00
