     timestep     time              x             y              z              vx             vy             vz             ax             ay             az         v_magnitude      ELoss        Electronic      Nuclear
           0   0.000000e+00   1.000000e-01   1.147502e+01   1.962091e+01   1.200176e+06   1.130001e+05   2.050777e+06   0.000000e+00   0.000000e+00   0.000000e+00   2.378840e+06   0.000000e+00   0.000000e+00   0.000000e+00
        8000   7.999000e-08   1.960139e-01   1.148406e+01   1.978498e+01   1.200165e+06   1.130206e+05   2.050782e+06  -3.111925e+08   5.882861e+08   1.496960e+08   2.378840e+06   6.342039e-24   0.000000e+00   0.000000e+00
       16000   1.599900e-07   2.920267e-01   1.149310e+01   1.994904e+01   1.200155e+06   1.130397e+05   2.050787e+06  -1.813178e+08   3.325001e+08   8.778271e+07   2.378840e+06   2.060292e-24   0.000000e+00   0.000000e+00
       24000   2.399900e-07   3.880390e-01   1.150215e+01   2.011310e+01   1.200155e+06   1.130398e+05   2.050787e+06   1.991534e+00  -2.198389e+01   4.627698e-02   2.378840e+06   6.638290e-39   0.000000e+00   0.000000e+00
       32000   3.199900e-07   4.840514e-01   1.151119e+01   2.027716e+01   1.200155e+06   1.130398e+05   2.050787e+06   1.771074e+00  -1.880367e+01  -8.097246e-21   2.378840e+06   4.864772e-39   0.000000e+00   0.000000e+00
       40000   3.999900e-07   5.800638e-01   1.152023e+01   2.044123e+01   1.200155e+06   1.130398e+05   2.050787e+06   2.076867e+00  -2.205032e+01  -7.048645e-22   2.378840e+06   6.686150e-39   0.000000e+00   0.000000e+00
       48000   4.799900e-07   6.760762e-01   1.152928e+01   2.060529e+01   1.200155e+06   1.130398e+05   2.050787e+06   1.182948e+00  -1.255948e+01  -4.629070e-21   2.378840e+06   2.170355e-39   0.000000e+00   0.000000e+00
       56000   5.599900e-07   7.720886e-01   1.153832e+01   2.076935e+01   1.200155e+06   1.130398e+05   2.050787e+06   3.346335e+00  -3.552839e+01  -2.808830e-20   2.378840e+06   1.735496e-38   0.000000e+00   0.000000e+00
       64000   6.399900e-07   8.681010e-01   1.154736e+01   2.093342e+01   1.200155e+06   1.130398e+05   2.050787e+06   3.572800e+00  -3.793279e+01   2.110975e-20   2.378840e+06   1.978958e-38   0.000000e+00   0.000000e+00
       72000   7.199900e-07   9.641134e-01   1.155641e+01   2.109748e+01   1.200155e+06   1.130398e+05   2.050787e+06   2.252621e+00  -2.391631e+01  -2.874270e-21   2.378840e+06   7.865588e-39   0.000000e+00   0.000000e+00
       80000   7.999900e-07   1.060126e+00   1.156545e+01   2.126154e+01   1.200155e+06   1.130398e+05   2.050787e+06   3.816196e+00  -4.051695e+01  -4.776199e-21   2.378840e+06   2.256781e-38   0.000000e+00   0.000000e+00
       88000   8.799900e-07   1.156138e+00   1.157449e+01   2.142560e+01   1.200155e+06   1.130398e+05   2.050787e+06   4.721296e+00  -5.012649e+01  -2.699204e-20   2.378840e+06   3.454475e-38   0.000000e+00   0.000000e+00
       96000   9.599900e-07   1.252151e+00   1.158354e+01   2.158967e+01   1.200155e+06   1.130398e+05   2.050787e+06   1.083775e+00  -1.150655e+01   4.651570e-21   2.378840e+06   1.819854e-39   0.000000e+00   0.000000e+00
      104000   1.039990e-06   1.348163e+00   1.159258e+01   2.175373e+01   1.200155e+06   1.130398e+05   2.050787e+06   5.349524e+00  -5.679645e+01  -1.023231e-20   2.378840e+06   4.435693e-38   0.000000e+00   0.000000e+00
      112000   1.119990e-06   1.444175e+00   1.160162e+01   2.191779e+01   1.200155e+06   1.130398e+05   2.050787e+06   2.346752e+00  -2.491571e+01  -1.097782e-20   2.378840e+06   8.537244e-39   0.000000e+00   0.000000e+00
      120000   1.199990e-06   1.540188e+00   1.161067e+01   2.208186e+01   1.200155e+06   1.130398e+05   2.050787e+06   1.896825e+00  -2.013879e+01   7.568734e-22   2.378840e+06   5.575561e-39   0.000000e+00   0.000000e+00
      128000   1.279990e-06   1.636200e+00   1.161971e+01   2.224592e+01   1.200155e+06   1.130398e+05   2.050787e+06   3.670242e+00  -3.896734e+01  -2.286743e-20   2.378840e+06   2.087852e-38   0.000000e+00   0.000000e+00
      136000   1.359990e-06   1.732213e+00   1.162875e+01   2.240998e+01   1.200155e+06   1.130398e+05   2.050787e+06   2.410307e+00  -2.559048e+01  -2.700073e-20   2.378840e+06   9.009712e-39   0.000000e+00   0.000000e+00
      144000   1.439990e-06   1.828225e+00   1.163780e+01   2.257405e+01   1.200155e+06   1.130398e+05   2.050787e+06   1.848079e+00  -1.962125e+01  -1.207578e-21   2.378840e+06   5.298082e-39   0.000000e+00   0.000000e+00
      152000   1.519990e-06   1.924237e+00   1.164684e+01   2.273811e+01   1.200155e+06   1.130398e+05   2.050787e+06   4.914874e-01  -5.218173e+00  -1.984428e-21   2.378840e+06   3.746442e-40   0.000000e+00   0.000000e+00
      160000   1.599990e-06   2.020250e+00   1.165588e+01   2.290217e+01   1.200155e+06   1.130398e+05   2.050787e+06   2.141602e+00  -2.273761e+01   5.802091e-21   2.378840e+06   7.115152e-39   0.000000e+00   0.000000e+00
      168000   1.679990e-06   2.116262e+00   1.166493e+01   2.306623e+01   1.200155e+06   1.130398e+05   2.050787e+06  -2.551775e+00   2.709246e+01   1.036324e-20   2.378840e+06   1.008280e-38   0.000000e+00   0.000000e+00
      176000   1.759990e-06   2.212274e+00   1.167397e+01   2.323030e+01   1.200155e+06   1.130398e+05   2.050787e+06   3.728023e+00  -3.958081e+01  -7.144811e-21   2.378840e+06   2.153863e-38   0.000000e+00   0.000000e+00
      184000   1.839990e-06   2.308287e+00   1.168301e+01   2.339436e+01   1.200155e+06   1.130398e+05   2.050787e+06  -1.713357e+00   1.819089e+01   4.398391e-21   2.378840e+06   4.544490e-39   0.000000e+00   0.000000e+00
      192000   1.919990e-06   2.404299e+00   1.169205e+01   2.355842e+01   1.200155e+06   1.130398e+05   2.050787e+06   5.529840e+00  -5.871088e+01  -2.777513e-20   2.378840e+06   4.739577e-38   0.000000e+00   0.000000e+00
      200000   1.999990e-06   2.500312e+00   1.170110e+01   2.372249e+01   1.200155e+06   1.130398e+05   2.050787e+06   5.283347e+00  -5.609384e+01   3.750581e-21   2.378840e+06   4.328714e-38   0.000000e+00   0.000000e+00
      208000   2.079990e-06   2.596324e+00   1.171014e+01   2.388655e+01   1.200155e+06   1.130398e+05   2.050787e+06   1.831820e+00  -1.944862e+01  -1.598968e-20   2.378840e+06   5.203323e-39   0.000000e+00   0.000000e+00
      216000   2.159990e-06   2.692336e+00   1.171918e+01   2.405061e+01   1.200155e+06   1.130398e+05   2.050787e+06   2.782156e+00  -2.953844e+01   2.741358e-20   2.378840e+06   1.199737e-38   0.000000e+00   0.000000e+00
      224000   2.239990e-06   2.788349e+00   1.172823e+01   2.421468e+01   1.200155e+06   1.130398e+05   2.050787e+06   7.182924e+00  -7.626185e+01   2.591903e-20   2.378840e+06   7.998540e-38   0.000000e+00   0.000000e+00
      232000   2.319990e-06   2.884361e+00   1.173727e+01   2.437874e+01   1.200155e+06   1.130398e+05   2.050787e+06   3.282515e+00  -3.485080e+01  -2.649689e-20   2.378840e+06   1.670758e-38   0.000000e+00   0.000000e+00
      240000   2.399990e-06   2.980374e+00   1.174631e+01   2.454280e+01   1.200155e+06   1.130398e+05   2.050787e+06   1.244555e+00  -1.321357e+01  -3.559087e-21   2.378840e+06   2.403405e-39   0.000000e+00   0.000000e+00
      248000   2.479990e-06   3.076386e+00   1.175536e+01   2.470686e+01   1.200155e+06   1.130398e+05   2.050787e+06   2.551572e+00  -2.709030e+01  -1.812208e-21   2.378840e+06   1.009164e-38   0.000000e+00   0.000000e+00
      256000   2.559990e-06   3.172398e+00   1.176440e+01   2.487093e+01   1.200155e+06   1.130398e+05   2.050787e+06   4.807769e+00  -5.104458e+01  -1.513750e-21   2.378840e+06   3.582792e-38   0.000000e+00   0.000000e+00
      264000   2.639990e-06   3.268411e+00   1.177344e+01   2.503499e+01   1.200155e+06   1.130398e+05   2.050787e+06   2.863996e+00  -3.040735e+01   4.765682e-21   2.378840e+06   1.271826e-38   0.000000e+00   0.000000e+00
      272000   2.719990e-06   3.364423e+00   1.178249e+01   2.519905e+01   1.200155e+06   1.130398e+05   2.050787e+06   5.260657e+00  -5.585294e+01   1.663215e-20   2.378840e+06   4.289667e-38   0.000000e+00   0.000000e+00
      280000   2.799990e-06   3.460436e+00   1.179153e+01   2.536312e+01   1.200155e+06   1.130398e+05   2.050787e+06   3.622413e+00  -3.845953e+01   2.659474e-20   2.378840e+06   2.034499e-38   0.000000e+00   0.000000e+00
      288000   2.879990e-06   3.556448e+00   1.180057e+01   2.552718e+01   1.200155e+06   1.130398e+05   2.050787e+06   4.920232e+00  -5.223861e+01  -1.675132e-20   2.378840e+06   3.752167e-38   0.000000e+00   0.000000e+00
      296000   2.959990e-06   3.652460e+00   1.180962e+01   2.569124e+01   1.200155e+06   1.130398e+05   2.050787e+06   7.148985e+00  -7.590151e+01   1.814534e-20   2.378840e+06   7.921298e-38   0.000000e+00   0.000000e+00
      304000   3.039990e-06   3.748473e+00   1.181866e+01   2.585531e+01   1.200155e+06   1.130398e+05   2.050787e+06   3.959393e+00  -4.203729e+01   1.129071e-21   2.378840e+06   2.430476e-38   0.000000e+00   0.000000e+00
      312000   3.119990e-06   3.844485e+00   1.182770e+01   2.601937e+01   1.200155e+06   1.130398e+05   2.050787e+06   3.994080e+00  -4.240556e+01   9.336224e-21   2.378840e+06   2.473226e-38   0.000000e+00   0.000000e+00
      320000   3.199990e-06   3.940498e+00   1.183675e+01   2.618343e+01   1.200155e+06   1.130398e+05   2.050787e+06   4.265751e+00  -4.528992e+01   3.849835e-21   2.378840e+06   2.821317e-38   0.000000e+00   0.000000e+00
      328000   3.279990e-06   4.036510e+00   1.184579e+01   2.634749e+01   1.200155e+06   1.130398e+05   2.050787e+06   3.775377e+00  -4.008357e+01  -1.756104e-20   2.378840e+06   2.209601e-38   0.000000e+00   0.000000e+00
      336000   3.359990e-06   4.132522e+00   1.185483e+01   2.651156e+01   1.200155e+06   1.130398e+05   2.050787e+06   4.709791e+00  -5.000434e+01   4.604103e-20   2.378840e+06   3.438057e-38   0.000000e+00   0.000000e+00
      344000   3.439990e-06   4.228535e+00   1.186388e+01   2.667562e+01   1.200155e+06   1.130398e+05   2.050787e+06   6.624014e+00  -7.032784e+01   4.743057e-20   2.378840e+06   6.800529e-38   0.000000e+00   0.000000e+00
      352000   3.519990e-06   4.324547e+00   1.187292e+01   2.683968e+01   1.200155e+06   1.130398e+05   2.050787e+06   3.371723e+00  -3.579793e+01  -1.943900e-20   2.378840e+06   1.763043e-38   0.000000e+00   0.000000e+00
      360000   3.599990e-06   4.420560e+00   1.188196e+01   2.700375e+01   1.200155e+06   1.130398e+05   2.050787e+06   3.036120e+00  -3.223480e+01   6.769386e-21   2.378840e+06   1.429146e-38   0.000000e+00   0.000000e+00
      368000   3.679990e-06   4.516572e+00   1.189100e+01   2.716781e+01   1.200155e+06   1.130398e+05   2.050787e+06   5.707005e-01  -6.059186e+00  -3.078874e-22   2.378840e+06   5.062124e-40   0.000000e+00   0.000000e+00
      376000   3.759990e-06   4.612584e+00   1.190005e+01   2.733187e+01   1.200155e+06   1.130398e+05   2.050787e+06   5.293114e+00  -5.619754e+01  -8.525943e-21   2.378840e+06   4.342290e-38   0.000000e+00   0.000000e+00
      384000   3.839990e-06   4.708597e+00   1.190909e+01   2.749594e+01   1.200155e+06   1.130398e+05   2.050787e+06   6.922769e+00  -7.349976e+01  -1.607393e-20   2.378840e+06   7.429792e-38   0.000000e+00   0.000000e+00
      392000   3.919990e-06   4.804609e+00   1.191813e+01   2.766000e+01   1.200155e+06   1.130398e+05   2.050787e+06   4.464003e+00  -4.739479e+01   9.066502e-21   2.378840e+06   3.088388e-38   0.000000e+00   0.000000e+00
      400000   3.999990e-06   4.900622e+00   1.192718e+01   2.782406e+01   1.200155e+06   1.130398e+05   2.050787e+06   5.300877e+00  -5.627996e+01  -1.350429e-20   2.378840e+06   4.356610e-38   0.000000e+00   0.000000e+00
      408000   4.079990e-06   4.996634e+00   1.193622e+01   2.798812e+01   1.200155e+06   1.130398e+05   2.050787e+06   9.383155e+00  -9.962193e+01  -4.802161e-20   2.378840e+06   1.364710e-37   0.000000e+00   0.000000e+00
      416000   4.159990e-06   5.092646e+00   1.194526e+01   2.815219e+01   1.200155e+06   1.130398e+05   2.050787e+06   6.028575e+00  -6.400600e+01  -5.755606e-20   2.378840e+06   5.634545e-38   0.000000e+00   0.000000e+00
      424000   4.239990e-06   5.188659e+00   1.195431e+01   2.831625e+01   1.200155e+06   1.130398e+05   2.050787e+06   4.489346e+00  -4.766385e+01   1.514168e-20   2.378840e+06   3.125062e-38   0.000000e+00   0.000000e+00
      432000   4.319990e-06   5.284671e+00   1.196335e+01   2.848031e+01   1.200155e+06   1.130398e+05   2.050787e+06   6.602924e+00  -7.010393e+01  -2.811494e-20   2.378840e+06   6.757986e-38   0.000000e+00   0.000000e+00
      440000   4.399990e-06   5.380683e+00   1.197239e+01   2.864438e+01   1.200155e+06   1.130398e+05   2.050787e+06   5.806988e+00  -6.165339e+01  -1.031165e-20   2.378840e+06   5.228416e-38   0.000000e+00   0.000000e+00
      448000   4.479990e-06   5.476696e+00   1.198144e+01   2.880844e+01   1.200155e+06   1.130398e+05   2.050787e+06   6.367901e+00  -6.760867e+01   2.263527e-20   2.378840e+06   6.286325e-38   0.000000e+00   0.000000e+00
      456000   4.559990e-06   5.572708e+00   1.199048e+01   2.897250e+01   1.200155e+06   1.130398e+05   2.050787e+06   4.725249e+00  -5.016846e+01  -6.192657e-21   2.378840e+06   3.461581e-38   0.000000e+00   0.000000e+00
      464000   4.639990e-06   5.668721e+00   1.199952e+01   2.913657e+01   1.200155e+06   1.130398e+05   2.050787e+06   4.682858e+00  -4.971839e+01   3.420019e-21   2.378840e+06   3.400098e-38   0.000000e+00   0.000000e+00
      472000   4.719990e-06   5.764733e+00   1.200857e+01   2.930063e+01   1.200155e+06   1.130398e+05   2.050787e+06   7.299398e+00  -7.749847e+01  -1.151227e-21   2.378840e+06   8.259395e-38   0.000000e+00   0.000000e+00
      480000   4.799990e-06   5.860745e+00   1.201761e+01   2.946469e+01   1.200155e+06   1.130398e+05   2.050787e+06   6.715731e+00  -7.130161e+01  -1.534552e-20   2.378840e+06   6.992094e-38   0.000000e+00   0.000000e+00
      488000   4.879990e-06   5.956758e+00   1.202665e+01   2.962875e+01   1.200155e+06   1.130398e+05   2.050787e+06   6.377409e+00  -6.770962e+01  -2.190574e-20   2.378840e+06   6.305388e-38   0.000000e+00   0.000000e+00
      496000   4.959990e-06   6.052770e+00   1.203570e+01   2.979282e+01   1.200155e+06   1.130398e+05   2.050787e+06   8.562413e-02  -7.259306e+01   3.951234e+00   2.378840e+06   7.203755e-38   0.000000e+00   0.000000e+00
      504000   5.039990e-06   6.148783e+00   1.204474e+01   2.995688e+01   1.200155e+06   1.130398e+05   2.050787e+06  -2.321642e+01   4.537167e+00   1.333655e+01   2.378840e+06   1.004230e-38   0.000000e+00   0.000000e+00
      512000   5.119990e-06   6.244795e+00   1.205378e+01   3.012094e+01   1.200155e+06   1.130398e+05   2.050787e+06   7.534859e+00  -7.061112e+01  -5.174271e-01   2.378840e+06   6.876209e-38   0.000000e+00   0.000000e+00
      520000   5.199990e-06   6.340807e+00   1.206283e+01   3.028501e+01   1.200155e+06   1.130398e+05   2.050787e+06   5.338315e+00  -5.667744e+01   5.641324e-20   2.378840e+06   4.419357e-38   0.000000e+00   0.000000e+00
      528000   5.279990e-06   6.436820e+00   1.207187e+01   3.044907e+01   1.200155e+06   1.130398e+05   2.050787e+06   6.610326e+00  -7.018252e+01  -9.634269e-21   2.378840e+06   6.774166e-38   0.000000e+00   0.000000e+00
      536000   5.359990e-06   6.532832e+00   1.208091e+01   3.061313e+01   1.200155e+06   1.130398e+05   2.050787e+06   9.077186e+00  -9.637343e+01   2.338219e-20   2.378840e+06   1.277318e-37   0.000000e+00   0.000000e+00
      544000   5.439990e-06   6.628845e+00   1.208995e+01   3.077720e+01   1.200155e+06   1.130398e+05   2.050787e+06   4.874959e+00  -5.175794e+01  -1.046025e-20   2.378840e+06   3.685452e-38   0.000000e+00   0.000000e+00
      552000   5.519990e-06   6.724857e+00   1.209900e+01   3.094126e+01   1.200155e+06   1.130398e+05   2.050787e+06   4.974907e+00  -5.281910e+01   2.506361e-20   2.378840e+06   3.837022e-38   0.000000e+00   0.000000e+00
      560000   5.599990e-06   6.820869e+00   1.210804e+01   3.110532e+01   1.200155e+06   1.130398e+05   2.050787e+06   8.821343e+00  -9.365711e+01  -6.896124e-21   2.378840e+06   1.206179e-37   0.000000e+00   0.000000e+00
      568000   5.679990e-06   6.916882e+00   1.211708e+01   3.126938e+01   1.200155e+06   1.130398e+05   2.050787e+06   8.891092e+00  -9.439764e+01   8.915374e-21   2.378840e+06   1.225622e-37   0.000000e+00   0.000000e+00
      576000   5.759990e-06   7.012894e+00   1.212613e+01   3.143345e+01   1.200155e+06   1.130398e+05   2.050787e+06   7.864327e+00  -8.349637e+01   2.059633e-21   2.378840e+06   9.588632e-38   0.000000e+00   0.000000e+00
      584000   5.839990e-06   7.108907e+00   1.213517e+01   3.159751e+01   1.200155e+06   1.130398e+05   2.050787e+06   7.589504e+00  -8.057856e+01  -3.443012e-20   2.378840e+06   8.930543e-38   0.000000e+00   0.000000e+00
      592000   5.919990e-06   7.204919e+00   1.214421e+01   3.176157e+01   1.200155e+06   1.130398e+05   2.050787e+06   8.112828e+00  -8.613473e+01   6.142074e-20   2.378840e+06   1.020259e-37   0.000000e+00   0.000000e+00
      600000   5.999990e-06   7.300931e+00   1.215326e+01   3.192564e+01   1.200155e+06   1.130398e+05   2.050787e+06   8.873718e+00  -9.421319e+01   3.354412e-20   2.378840e+06   1.220686e-37   0.000000e+00   0.000000e+00
      608000   6.079990e-06   7.396944e+00   1.216230e+01   3.208970e+01   1.200155e+06   1.130398e+05   2.050787e+06   1.182014e+01  -1.254956e+02  -2.942150e-20   2.378840e+06   2.165883e-37   0.000000e+00   0.000000e+00
      616000   6.159990e-06   7.492956e+00   1.217134e+01   3.225376e+01   1.200155e+06   1.130398e+05   2.050787e+06   7.118962e+00  -7.558276e+01  -7.095464e-20   2.378840e+06   7.857994e-38   0.000000e+00   0.000000e+00
      624000   6.239990e-06   7.588969e+00   1.218039e+01   3.241783e+01   1.200155e+06   1.130398e+05   2.050787e+06   7.906330e+00  -8.394233e+01  -5.174617e-21   2.378840e+06   9.691709e-38   0.000000e+00   0.000000e+00
      632000   6.319990e-06   7.684981e+00   1.218943e+01   3.258189e+01   1.200155e+06   1.130398e+05   2.050787e+06   1.336698e+01  -1.419186e+02   6.177681e-20   2.378840e+06   2.769948e-37   0.000000e+00   0.000000e+00
      640000   6.399990e-06   7.780993e+00   1.219847e+01   3.274595e+01   1.200155e+06   1.130398e+05   2.050787e+06   5.557796e+00  -5.900770e+01   3.193197e-20   2.378840e+06   4.790315e-38   0.000000e+00   0.000000e+00
      648000   6.479990e-06   7.877006e+00   1.220752e+01   3.291001e+01   1.200155e+06   1.130398e+05   2.050787e+06   1.006273e+01  -1.068370e+02  -3.237946e-20   2.378840e+06   1.569701e-37   0.000000e+00   0.000000e+00
      656000   6.559990e-06   7.973018e+00   1.221656e+01   3.307408e+01   1.200155e+06   1.130398e+05   2.050787e+06   1.231001e+01  -1.306967e+02  -1.893994e-20   2.378840e+06   2.349016e-37   0.000000e+00   0.000000e+00
      664000   6.639990e-06   8.069030e+00   1.222560e+01   3.323814e+01   1.200155e+06   1.130398e+05   2.050787e+06   1.201052e+01  -1.275169e+02  -1.064149e-19   2.378840e+06   2.236350e-37   0.000000e+00   0.000000e+00
      672000   6.719990e-06   8.165043e+00   1.223465e+01   3.340220e+01   1.200155e+06   1.130398e+05   2.050787e+06   9.704463e+00  -1.030333e+02  -1.476234e-20   2.378840e+06   1.460203e-37   0.000000e+00   0.000000e+00
      680000   6.799990e-06   8.261055e+00   1.224369e+01   3.356627e+01   1.200155e+06   1.130398e+05   2.050787e+06   1.163648e+01  -1.235457e+02   3.927051e-20   2.378840e+06   2.099085e-37   0.000000e+00   0.000000e+00
      688000   6.879990e-06   8.357068e+00   1.225273e+01   3.373033e+01   1.200155e+06   1.130398e+05   2.050787e+06   1.233303e+01  -1.309410e+02  -1.638965e-20   2.378840e+06   2.358150e-37   0.000000e+00   0.000000e+00
      696000   6.959990e-06   8.453080e+00   1.226178e+01   3.389439e+01   1.200155e+06   1.130398e+05   2.050787e+06   1.617954e+01  -1.717798e+02  -3.183835e-20   2.378840e+06   4.058112e-37   0.000000e+00   0.000000e+00
      704000   7.039990e-06   8.549092e+00   1.227082e+01   3.405845e+01   1.200155e+06   1.130398e+05   2.050787e+06   1.490463e+01  -1.582440e+02  -3.602043e-20   2.378840e+06   3.443709e-37   0.000000e+00   0.000000e+00
      712000   7.119990e-06   8.645105e+00   1.227986e+01   3.422252e+01   1.200155e+06   1.130398e+05   2.050787e+06   9.896633e+00  -1.050736e+02  -2.511717e-20   2.378840e+06   1.518568e-37   0.000000e+00   0.000000e+00
      720000   7.199990e-06   8.741117e+00   1.228890e+01   3.438658e+01   1.200155e+06   1.130398e+05   2.050787e+06   1.421925e+01  -1.509672e+02  -1.926518e-20   2.378840e+06   3.134472e-37   0.000000e+00   0.000000e+00
      728000   7.279990e-06   8.837130e+00   1.229795e+01   3.455064e+01   1.200155e+06   1.130398e+05   2.050787e+06   1.587857e+01  -1.685845e+02  -1.076666e-21   2.378840e+06   3.908286e-37   0.000000e+00   0.000000e+00
      736000   7.359990e-06   8.933142e+00   1.230699e+01   3.471471e+01   1.200155e+06   1.130398e+05   2.050787e+06   1.292558e+01  -1.372323e+02  -6.977876e-20   2.378840e+06   2.590104e-37   0.000000e+00   0.000000e+00
      744000   7.439990e-06   9.029154e+00   1.231603e+01   3.487877e+01   1.200155e+06   1.130398e+05   2.050787e+06   1.357914e+01  -1.441711e+02   9.264279e-20   2.378840e+06   2.858553e-37   0.000000e+00   0.000000e+00
      752000   7.519990e-06   9.125167e+00   1.232508e+01   3.504283e+01   1.200155e+06   1.130398e+05   2.050787e+06   1.418099e+01  -1.505610e+02   2.197469e-20   2.378840e+06   3.117585e-37   0.000000e+00   0.000000e+00
      760000   7.599990e-06   9.221179e+00   1.233412e+01   3.520690e+01   1.200155e+06   1.130398e+05   2.050787e+06   1.434445e+01  -1.522966e+02  -3.366191e-20   2.378840e+06   3.190296e-37   0.000000e+00   0.000000e+00
      768000   7.679990e-06   9.317192e+00   1.234316e+01   3.537096e+01   1.200155e+06   1.130398e+05   2.050787e+06   1.412435e+01  -1.499597e+02  -9.041216e-20   2.378840e+06   3.092792e-37   0.000000e+00   0.000000e+00
      776000   7.759990e-06   9.413204e+00   1.235221e+01   3.553502e+01   1.200155e+06   1.130398e+05   2.050787e+06   1.334271e+01  -1.416609e+02  -5.203996e-20   2.378840e+06   2.760197e-37   0.000000e+00   0.000000e+00
      784000   7.839990e-06   9.509216e+00   1.236125e+01   3.569908e+01   1.200155e+06   1.130398e+05   2.050787e+06   1.666607e+01  -1.769454e+02   5.212739e-20   2.378840e+06   4.305828e-37   0.000000e+00   0.000000e+00
      792000   7.919990e-06   9.605229e+00   1.237029e+01   3.586315e+01   1.200155e+06   1.130398e+05   2.050787e+06   1.425036e+01  -1.512975e+02  -5.672111e-20   2.378840e+06   3.148396e-37   0.000000e+00   0.000000e+00
      800000   7.999990e-06   9.701241e+00   1.237934e+01   3.602721e+01   1.200155e+06   1.130398e+05   2.050787e+06   1.404946e+01  -1.491645e+02   7.306024e-20   2.378840e+06   3.060031e-37   0.000000e+00   0.000000e+00
      808000   8.079990e-06   9.797254e+00   1.238838e+01   3.619127e+01   1.200155e+06   1.130398e+05   2.050787e+06   1.789437e+01  -1.899864e+02   1.356569e-19   2.378840e+06   4.964066e-37   0.000000e+00   0.000000e+00
      816000   8.159990e-06   9.893266e+00   1.239742e+01   3.635534e+01   1.200155e+06   1.130398e+05   2.050787e+06   1.497377e+01  -1.589781e+02   1.336828e-20   2.378840e+06   3.476103e-37   0.000000e+00   0.000000e+00
      824000   8.239990e-06   9.989278e+00   1.240647e+01   3.651940e+01   1.200155e+06   1.130398e+05   2.050787e+06   1.464901e+01  -1.555301e+02  -8.930860e-20   2.378840e+06   3.327268e-37   0.000000e+00   0.000000e+00
      832000   8.319990e-06   1.008529e+01   1.241551e+01   3.668346e+01   1.200155e+06   1.130398e+05   2.050787e+06   1.589364e+01  -1.687445e+02   6.970694e-20   2.378840e+06   3.916181e-37   0.000000e+00   0.000000e+00
      840000   8.399990e-06   1.018130e+01   1.242455e+01   3.684753e+01   1.200155e+06   1.130398e+05   2.050787e+06   1.897679e+01  -2.014785e+02   6.700972e-20   2.378840e+06   5.582574e-37   0.000000e+00   0.000000e+00
      848000   8.479990e-06   1.027732e+01   1.243360e+01   3.701159e+01   1.200155e+06   1.130398e+05   2.050787e+06   1.878754e+01  -1.994693e+02   4.308247e-20   2.378840e+06   5.472138e-37   0.000000e+00   0.000000e+00
      856000   8.559990e-06   1.037333e+01   1.244264e+01   3.717565e+01   1.200155e+06   1.130398e+05   2.050787e+06   1.368096e+01  -1.452522e+02   4.640758e-21   2.378840e+06   2.902050e-37   0.000000e+00   0.000000e+00
      864000   8.639990e-06   1.046934e+01   1.245168e+01   3.733971e+01   1.200155e+06   1.130398e+05   2.050787e+06   2.252620e+01  -2.391630e+02   8.981209e-20   2.378840e+06   7.865421e-37   0.000000e+00   0.000000e+00
      872000   8.719990e-06   1.056535e+01   1.246073e+01   3.750378e+01   1.200155e+06   1.130398e+05   2.050787e+06   2.122210e+01  -2.253172e+02  -9.808701e-21   2.378840e+06   6.982291e-37   0.000000e+00   0.000000e+00
      880000   8.799990e-06   1.066137e+01   1.246977e+01   3.766784e+01   1.200155e+06   1.130398e+05   2.050787e+06   1.945675e+01  -2.065743e+02   5.355730e-20   2.378840e+06   5.868849e-37   0.000000e+00   0.000000e+00
      888000   8.879990e-06   1.075738e+01   1.247881e+01   3.783190e+01   1.200155e+06   1.130398e+05   2.050787e+06   1.938472e+01  -2.058096e+02  -1.271787e-20   2.378840e+06   5.825370e-37   0.000000e+00   0.000000e+00
      896000   8.959990e-06   1.085339e+01   1.248785e+01   3.799597e+01   1.200155e+06   1.130398e+05   2.050787e+06   1.975259e+01  -2.097153e+02   1.044421e-19   2.378840e+06   6.048448e-37   0.000000e+00   0.000000e+00
      904000   9.039990e-06   1.094940e+01   1.249690e+01   3.816003e+01   1.200155e+06   1.130398e+05   2.050787e+06   2.318465e+01  -2.461538e+02   8.815450e-20   2.378840e+06   8.333271e-37   0.000000e+00   0.000000e+00
      912000   9.119990e-06   1.104541e+01   1.250594e+01   3.832409e+01   1.200155e+06   1.130398e+05   2.050787e+06   2.007670e+01  -2.131564e+02   1.420393e-19   2.378840e+06   6.248888e-37   0.000000e+00   0.000000e+00
      920000   9.199990e-06   1.114143e+01   1.251498e+01   3.848816e+01   1.200155e+06   1.130398e+05   2.050787e+06   2.201067e+01  -2.336896e+02   9.806859e-20   2.378840e+06   7.510032e-37   0.000000e+00   0.000000e+00
      928000   9.279990e-06   1.123744e+01   1.252403e+01   3.865222e+01   1.200155e+06   1.130398e+05   2.050787e+06   2.260975e+01  -2.400501e+02  -4.954914e-20   2.378840e+06   7.924867e-37   0.000000e+00   0.000000e+00
      936000   9.359990e-06   1.133345e+01   1.253307e+01   3.881628e+01   1.200155e+06   1.130398e+05   2.050787e+06   2.129618e+01  -2.261037e+02   1.163648e-19   2.378840e+06   7.031306e-37   0.000000e+00   0.000000e+00
      944000   9.439990e-06   1.142946e+01   1.254211e+01   3.898034e+01   1.200155e+06   1.130398e+05   2.050787e+06   2.176441e+01  -2.310750e+02   4.450565e-20   2.378840e+06   7.343539e-37   0.000000e+00   0.000000e+00
      952000   9.519990e-06   1.152548e+01   1.255116e+01   3.914441e+01   1.200155e+06   1.130398e+05   2.050787e+06   2.333379e+01  -2.477373e+02   1.800235e-19   2.378840e+06   8.440456e-37   0.000000e+00   0.000000e+00
      960000   9.599990e-06   1.162149e+01   1.256020e+01   3.930847e+01   1.200155e+06   1.130398e+05   2.050787e+06   2.327226e+01  -2.470840e+02   3.058107e-20   2.378840e+06   8.396168e-37   0.000000e+00   0.000000e+00
      968000   9.679990e-06   1.171750e+01   1.256924e+01   3.947253e+01   1.200155e+06   1.130398e+05   2.050787e+06   2.294763e+01  -2.436374e+02  -1.730994e-19   2.378840e+06   8.163702e-37   0.000000e+00   0.000000e+00
      976000   9.759990e-06   1.181351e+01   1.257829e+01   3.963660e+01   1.200155e+06   1.130398e+05   2.050787e+06   2.393499e+01  -2.541203e+02  -1.469348e-19   2.378840e+06   8.880862e-37   0.000000e+00   0.000000e+00
      984000   9.839990e-06   1.190953e+01   1.258733e+01   3.980066e+01   1.200155e+06   1.130398e+05   2.050787e+06   2.626395e+01  -2.788471e+02   1.994569e-19   2.378840e+06   1.069347e-36   0.000000e+00   0.000000e+00
      992000   9.919990e-06   1.200554e+01   1.259637e+01   3.996472e+01   1.200155e+06   1.130398e+05   2.050787e+06   2.813615e+01  -2.987244e+02  -1.434290e-19   2.378840e+06   1.227145e-36   0.000000e+00   0.000000e+00
     1000000   9.999990e-06   1.210155e+01   1.260542e+01   4.012879e+01   1.200155e+06   1.130398e+05   2.050787e+06   2.305158e+01  -2.447410e+02  -1.099701e-19   2.378840e+06   8.237871e-37   0.000000e+00   0.000000e+00
     1008000   1.007999e-05   1.219756e+01   1.261446e+01   4.029285e+01   1.200155e+06   1.130398e+05   2.050787e+06   2.552913e+01  -2.710454e+02  -1.091626e-19   2.378840e+06   1.010353e-36   0.000000e+00   0.000000e+00
     1016000   1.015999e-05   1.229358e+01   1.262350e+01   4.045691e+01   1.200155e+06   1.130398e+05   2.050787e+06   2.775557e+01  -2.946838e+02   5.246155e-20   2.378840e+06   1.194293e-36   0.000000e+00   0.000000e+00
     1024000   1.023999e-05   1.238959e+01   1.263255e+01   4.062097e+01   1.200155e+06   1.130398e+05   2.050787e+06   2.694885e+01  -2.861188e+02  -1.307741e-21   2.378840e+06   1.125920e-36   0.000000e+00   0.000000e+00
     1032000   1.031999e-05   1.248560e+01   1.264159e+01   4.078504e+01   1.200155e+06   1.130398e+05   2.050787e+06   2.396360e+01  -2.544240e+02  -7.336648e-20   2.378840e+06   8.902852e-37   0.000000e+00   0.000000e+00
     1040000   1.039999e-05   1.258161e+01   1.265063e+01   4.094910e+01   1.200155e+06   1.130398e+05   2.050787e+06   2.811377e+01  -2.984869e+02   2.171586e-19   2.378840e+06   1.225237e-36   0.000000e+00   0.000000e+00
     1048000   1.047999e-05   1.267763e+01   1.265968e+01   4.111316e+01   1.200155e+06   1.130398e+05   2.050787e+06   2.829305e+01  -3.003903e+02   2.442848e-20   2.378840e+06   1.240922e-36   0.000000e+00   0.000000e+00
     1056000   1.055999e-05   1.277364e+01   1.266872e+01   4.127723e+01   1.200155e+06   1.130398e+05   2.050787e+06   3.106322e+01  -3.298014e+02  -2.206228e-20   2.378840e+06   1.495845e-36   0.000000e+00   0.000000e+00
     1064000   1.063999e-05   1.286965e+01   1.267776e+01   4.144129e+01   1.200155e+06   1.130398e+05   2.050787e+06   2.867402e+01  -3.044350e+02   1.384942e-19   2.378840e+06   1.274683e-36   0.000000e+00   0.000000e+00
     1072000   1.071999e-05   1.296566e+01   1.268680e+01   4.160535e+01   1.200155e+06   1.130398e+05   2.050787e+06   3.001405e+01  -3.186623e+02   1.038824e-19   2.378840e+06   1.396522e-36   0.000000e+00   0.000000e+00
     1080000   1.079999e-05   1.306167e+01   1.269585e+01   4.176942e+01   1.200155e+06   1.130398e+05   2.050787e+06   3.033186e+01  -3.220365e+02  -4.253867e-20   2.378840e+06   1.426318e-36   0.000000e+00   0.000000e+00
     1088000   1.087999e-05   1.315769e+01   1.270489e+01   4.193348e+01   1.200155e+06   1.130398e+05   2.050787e+06   3.103059e+01  -3.294550e+02  -2.177734e-19   2.378840e+06   1.492720e-36   0.000000e+00   0.000000e+00
     1096000   1.095999e-05   1.325370e+01   1.271393e+01   4.209754e+01   1.200155e+06   1.130398e+05   2.050787e+06   2.963528e+01  -3.146409e+02   3.656313e-20   2.378840e+06   1.361596e-36   0.000000e+00   0.000000e+00
     1104000   1.103999e-05   1.334971e+01   1.272298e+01   4.226160e+01   1.200155e+06   1.130398e+05   2.050787e+06   2.817378e+01  -2.991239e+02  -2.836212e-19   2.378840e+06   1.230593e-36   0.000000e+00   0.000000e+00
     1112000   1.111999e-05   1.344572e+01   1.273202e+01   4.242567e+01   1.200155e+06   1.130398e+05   2.050787e+06   3.358800e+01  -3.566072e+02  -1.634142e-19   2.378840e+06   1.748830e-36   0.000000e+00   0.000000e+00
     1120000   1.119999e-05   1.354174e+01   1.274106e+01   4.258973e+01   1.200155e+06   1.130398e+05   2.050787e+06   3.160338e+01  -3.355364e+02  -3.445351e-21   2.378840e+06   1.548444e-36   0.000000e+00   0.000000e+00
     1128000   1.127999e-05   1.363775e+01   1.275011e+01   4.275379e+01   1.200155e+06   1.130398e+05   2.050787e+06   3.351566e+01  -3.558392e+02   9.648048e-20   2.378840e+06   1.741376e-36   0.000000e+00   0.000000e+00
     1136000   1.135999e-05   1.373376e+01   1.275915e+01   4.291786e+01   1.200155e+06   1.130398e+05   2.050787e+06   3.281284e+01  -3.483773e+02  -7.681403e-20   2.378840e+06   1.669298e-36   0.000000e+00   0.000000e+00
     1144000   1.143999e-05   1.382977e+01   1.276819e+01   4.308192e+01   1.200155e+06   1.130398e+05   2.050787e+06   2.860341e+01  -3.036854e+02   2.209127e-20   2.378840e+06   1.268523e-36   0.000000e+00   0.000000e+00
     1152000   1.151999e-05   1.392579e+01   1.277724e+01   4.324598e+01   1.200155e+06   1.130398e+05   2.050787e+06   2.948897e+01  -3.130875e+02   3.296543e-19   2.378840e+06   1.348174e-36   0.000000e+00   0.000000e+00
     1160000   1.159999e-05   1.402180e+01   1.278628e+01   4.341005e+01   1.200155e+06   1.130398e+05   2.050787e+06   3.540701e+01  -3.759199e+02  -1.349179e-20   2.378840e+06   1.943461e-36   0.000000e+00   0.000000e+00
     1168000   1.167999e-05   1.411781e+01   1.279532e+01   4.357411e+01   1.200155e+06   1.130398e+05   2.050787e+06   3.472144e+01  -3.686412e+02  -1.846453e-20   2.378840e+06   1.869079e-36   0.000000e+00   0.000000e+00
     1176000   1.175999e-05   1.421382e+01   1.280437e+01   4.373817e+01   1.200155e+06   1.130398e+05   2.050787e+06   3.527040e+01  -3.744695e+02  -2.641374e-20   2.378840e+06   1.928526e-36   0.000000e+00   0.000000e+00
     1184000   1.183999e-05   1.430984e+01   1.281341e+01   4.390223e+01   1.200155e+06   1.130398e+05   2.050787e+06   3.883980e+01  -4.123662e+02  -2.380412e-19   2.378840e+06   2.338816e-36   0.000000e+00   0.000000e+00
     1192000   1.191999e-05   1.440585e+01   1.282245e+01   4.406630e+01   1.200155e+06   1.130398e+05   2.050787e+06   3.057735e+01  -3.246429e+02   7.751141e-20   2.378840e+06   1.449565e-36   0.000000e+00   0.000000e+00
     1200000   1.199999e-05   1.450186e+01   1.283150e+01   4.423036e+01   1.200155e+06   1.130398e+05   2.050787e+06   3.734806e+01  -3.965282e+02  -1.090338e-20   2.378840e+06   2.162417e-36   0.000000e+00   0.000000e+00
     1208000   1.207999e-05   1.459787e+01   1.284054e+01   4.439442e+01   1.200155e+06   1.130398e+05   2.050787e+06   4.308833e+01  -4.574733e+02   3.982661e-20   2.378840e+06   2.878199e-36   0.000000e+00   0.000000e+00
     1216000   1.215999e-05   1.469389e+01   1.284958e+01   4.455849e+01   1.200155e+06   1.130398e+05   2.050787e+06   3.715706e+01  -3.945004e+02   5.561740e-20   2.378840e+06   2.140469e-36   0.000000e+00   0.000000e+00
     1224000   1.223999e-05   1.478990e+01   1.285863e+01   4.472255e+01   1.200155e+06   1.130398e+05   2.050787e+06   3.770734e+01  -4.003427e+02   1.619312e-21   2.378840e+06   2.204256e-36   0.000000e+00   0.000000e+00
     1232000   1.231999e-05   1.488591e+01   1.286767e+01   4.488661e+01   1.200155e+06   1.130398e+05   2.050787e+06   4.625854e+01  -4.911317e+02  -1.763856e-19   2.378840e+06   3.317188e-36   0.000000e+00   0.000000e+00
     1240000   1.239999e-05   1.498192e+01   1.287671e+01   4.505068e+01   1.200155e+06   1.130398e+05   2.050787e+06   4.075929e+01  -4.327456e+02  -2.631046e-19   2.378840e+06   2.575469e-36   0.000000e+00   0.000000e+00
     1248000   1.247999e-05   1.507794e+01   1.288575e+01   4.521474e+01   1.200155e+06   1.130398e+05   2.050787e+06   3.870040e+01  -4.108861e+02   1.497496e-19   2.378840e+06   2.321857e-36   0.000000e+00   0.000000e+00
     1256000   1.255999e-05   1.517395e+01   1.289480e+01   4.537880e+01   1.200155e+06   1.130398e+05   2.050787e+06   4.121725e+01  -4.376078e+02  -6.078334e-20   2.378840e+06   2.633621e-36   0.000000e+00   0.000000e+00
     1264000   1.263999e-05   1.526996e+01   1.290384e+01   4.554286e+01   1.200155e+06   1.130398e+05   2.050787e+06   3.953627e+01  -4.197607e+02  -1.056995e-19   2.378840e+06   2.423310e-36   0.000000e+00   0.000000e+00
     1272000   1.271999e-05   1.536597e+01   1.291288e+01   4.570693e+01   1.200155e+06   1.130398e+05   2.050787e+06   4.165355e+01  -4.422401e+02   1.129867e-19   2.378840e+06   2.689671e-36   0.000000e+00   0.000000e+00
     1280000   1.279999e-05   1.546198e+01   1.292193e+01   4.587099e+01   1.200155e+06   1.130398e+05   2.050787e+06   4.647006e+01  -4.933774e+02   1.510418e-20   2.378840e+06   3.347524e-36   0.000000e+00   0.000000e+00
     1288000   1.287999e-05   1.555800e+01   1.293097e+01   4.603505e+01   1.200155e+06   1.130398e+05   2.050787e+06   4.232944e+01  -4.494160e+02  -1.258978e-19   2.378840e+06   2.777864e-36   0.000000e+00   0.000000e+00
     1296000   1.295999e-05   1.565401e+01   1.294001e+01   4.619912e+01   1.200155e+06   1.130398e+05   2.050787e+06   4.203251e+01  -4.462635e+02   8.998243e-20   2.378840e+06   2.738935e-36   0.000000e+00   0.000000e+00
     1304000   1.303999e-05   1.575002e+01   1.294906e+01   4.636318e+01   1.200155e+06   1.130398e+05   2.050787e+06   4.302213e+01  -4.567704e+02  -1.478388e-19   2.378840e+06   2.869373e-36   0.000000e+00   0.000000e+00
     1312000   1.311999e-05   1.584603e+01   1.295810e+01   4.652724e+01   1.200155e+06   1.130398e+05   2.050787e+06   4.084076e+01  -4.336106e+02   9.345686e-20   2.378840e+06   2.585901e-36   0.000000e+00   0.000000e+00
     1320000   1.319999e-05   1.594205e+01   1.296714e+01   4.669130e+01   1.200155e+06   1.130398e+05   2.050787e+06   4.368825e+01  -4.638427e+02  -2.059775e-19   2.378840e+06   2.959037e-36   0.000000e+00   0.000000e+00
     1328000   1.327999e-05   1.603806e+01   1.297619e+01   4.685537e+01   1.200155e+06   1.130398e+05   2.050787e+06   4.446056e+01  -4.720424e+02  -2.031738e-19   2.378840e+06   3.064542e-36   0.000000e+00   0.000000e+00
     1336000   1.335999e-05   1.613407e+01   1.298523e+01   4.701943e+01   1.200155e+06   1.130398e+05   2.050787e+06   4.126617e+01  -4.381272e+02   3.092047e-19   2.378840e+06   2.640086e-36   0.000000e+00   0.000000e+00
     1344000   1.343999e-05   1.623008e+01   1.299427e+01   4.718349e+01   1.200155e+06   1.130398e+05   2.050787e+06   4.522471e+01  -4.801555e+02  -8.178686e-20   2.378840e+06   3.170797e-36   0.000000e+00   0.000000e+00
     1352000   1.351999e-05   1.632610e+01   1.300332e+01   4.734756e+01   1.200155e+06   1.130398e+05   2.050787e+06   4.595035e+01  -4.878597e+02  -3.884145e-19   2.378840e+06   3.273321e-36   0.000000e+00   0.000000e+00
     1360000   1.359999e-05   1.642211e+01   1.301236e+01   4.751162e+01   1.200155e+06   1.130398e+05   2.050787e+06   4.612104e+01  -4.896719e+02  -4.735451e-20   2.378840e+06   3.297824e-36   0.000000e+00   0.000000e+00
     1368000   1.367999e-05   1.651812e+01   1.302140e+01   4.767568e+01   1.200155e+06   1.130398e+05   2.050787e+06   4.475876e+01  -4.752084e+02   3.418319e-20   2.378840e+06   3.105831e-36   0.000000e+00   0.000000e+00
     1376000   1.375999e-05   1.661413e+01   1.303045e+01   4.783975e+01   1.200155e+06   1.130398e+05   2.050787e+06   4.186172e+01  -4.444502e+02   2.851216e-19   2.378840e+06   2.716770e-36   0.000000e+00   0.000000e+00
     1384000   1.383999e-05   1.671015e+01   1.303949e+01   4.800381e+01   1.200155e+06   1.130398e+05   2.050787e+06   4.044813e+01  -4.294420e+02  -4.332827e-20   2.378840e+06   2.536100e-36   0.000000e+00   0.000000e+00
     1392000   1.391999e-05   1.680616e+01   1.304853e+01   4.816787e+01   1.200155e+06   1.130398e+05   2.050787e+06   4.493572e+01  -4.770872e+02   5.968440e-21   2.378840e+06   3.130433e-36   0.000000e+00   0.000000e+00
     1400000   1.399999e-05   1.690217e+01   1.305758e+01   4.833193e+01   1.200155e+06   1.130398e+05   2.050787e+06   3.968506e+01  -4.213404e+02   1.067444e-19   2.378840e+06   2.441803e-36   0.000000e+00   0.000000e+00
     1408000   1.407999e-05   1.699818e+01   1.306662e+01   4.849600e+01   1.200155e+06   1.130398e+05   2.050787e+06   4.317360e+01  -4.583786e+02  -3.593945e-19   2.378840e+06   2.889518e-36   0.000000e+00   0.000000e+00
     1416000   1.415999e-05   1.709420e+01   1.307566e+01   4.866006e+01   1.200155e+06   1.130398e+05   2.050787e+06   6.074807e+01  -6.449685e+02  -1.431354e-19   2.378840e+06   5.720777e-36   0.000000e+00   0.000000e+00
     1424000   1.423999e-05   1.719021e+01   1.308470e+01   4.882412e+01   1.200155e+06   1.130398e+05   2.050787e+06   3.377618e+01  -3.586053e+02   6.393224e-20   2.378840e+06   1.768774e-36   0.000000e+00   0.000000e+00
     1432000   1.431999e-05   1.728622e+01   1.309375e+01   4.898819e+01   1.200155e+06   1.130398e+05   2.050787e+06   4.230608e+01  -4.491681e+02  -2.030392e-19   2.378840e+06   2.774714e-36   0.000000e+00   0.000000e+00
     1440000   1.439999e-05   1.738223e+01   1.310279e+01   4.915225e+01   1.200155e+06   1.130398e+05   2.050787e+06   3.985368e+01  -4.231307e+02   2.543633e-19   2.378840e+06   2.462374e-36   0.000000e+00   0.000000e+00
     1448000   1.447999e-05   1.747824e+01   1.311183e+01   4.931631e+01   1.200155e+06   1.130398e+05   2.050787e+06   3.973831e+01  -4.219058e+02  -8.020999e-20   2.378840e+06   2.448130e-36   0.000000e+00   0.000000e+00
     1456000   1.455999e-05   1.757426e+01   1.312088e+01   4.948038e+01   1.200155e+06   1.130398e+05   2.050787e+06   4.408633e+01  -4.680692e+02  -7.353708e-20   2.378840e+06   3.013050e-36   0.000000e+00   0.000000e+00
     1464000   1.463999e-05   1.767027e+01   1.312992e+01   4.964444e+01   1.200158e+06   1.130381e+05   2.050786e+06   6.879767e+07  -4.256167e+07  -3.791569e+07   2.378840e+06   1.087460e-25   0.000000e+00   0.000000e+00
     1472000   1.471999e-05   1.776628e+01   1.313896e+01   4.980850e+01   1.200184e+06   1.130219e+05   2.050771e+06   5.686220e+08  -3.446816e+08  -3.137817e+08   2.378840e+06   7.373488e-24   0.000000e+00   0.000000e+00
     1480000   1.479999e-05   1.786230e+01   1.314800e+01   4.997256e+01   1.200196e+06   1.130145e+05   2.050764e+06   0.000000e+00   0.000000e+00   0.000000e+00   2.378840e+06   0.000000e+00   0.000000e+00   0.000000e+00
