     timestep     time              x             y              z              vx             vy             vz             ax             ay             az         v_magnitude      ELoss        Electronic      Nuclear
           0   0.000000e+00   1.000000e-01   6.787646e+00   6.753108e+00   1.222199e+06  -6.424386e+05  -6.477060e+05   0.000000e+00   0.000000e+00   0.000000e+00   1.525130e+06   0.000000e+00   0.000000e+00   0.000000e+00
        8000   7.999000e-08   1.977759e-01   6.736251e+00   6.701292e+00   1.222199e+06  -6.424386e+05  -6.477060e+05   0.000000e+00   0.000000e+00   0.000000e+00   1.525130e+06   0.000000e+00   0.000000e+00   0.000000e+00
       16000   1.599900e-07   2.955518e-01   6.684856e+00   6.649475e+00   1.222199e+06  -6.424386e+05  -6.477060e+05   0.000000e+00   0.000000e+00   0.000000e+00   1.525130e+06   0.000000e+00   0.000000e+00   0.000000e+00
       24000   2.399900e-07   3.933277e-01   6.633461e+00   6.597659e+00   1.222199e+06  -6.424386e+05  -6.477060e+05   0.000000e+00   0.000000e+00   0.000000e+00   1.525130e+06   0.000000e+00   0.000000e+00   0.000000e+00
       32000   3.199900e-07   4.911036e-01   6.582066e+00   6.545842e+00   1.222199e+06  -6.424386e+05  -6.477060e+05   0.000000e+00   0.000000e+00   0.000000e+00   1.525130e+06   0.000000e+00   0.000000e+00   0.000000e+00
       40000   3.999900e-07   5.888795e-01   6.530671e+00   6.494026e+00   1.222199e+06  -6.424386e+05  -6.477060e+05   0.000000e+00   0.000000e+00   0.000000e+00   1.525130e+06   0.000000e+00   0.000000e+00   0.000000e+00
       48000   4.799900e-07   6.866554e-01   6.479275e+00   6.442209e+00   1.222199e+06  -6.424386e+05  -6.477060e+05   0.000000e+00   0.000000e+00   0.000000e+00   1.525130e+06   0.000000e+00   0.000000e+00   0.000000e+00
       56000   5.599900e-07   7.844313e-01   6.427880e+00   6.390393e+00   1.222199e+06  -6.424386e+05  -6.477060e+05   0.000000e+00   0.000000e+00   0.000000e+00   1.525130e+06   0.000000e+00   0.000000e+00   0.000000e+00
       64000   6.399900e-07   8.822072e-01   6.376485e+00   6.338576e+00   1.222199e+06  -6.424386e+05  -6.477060e+05   0.000000e+00   0.000000e+00   0.000000e+00   1.525130e+06   0.000000e+00   0.000000e+00   0.000000e+00
       72000   7.199900e-07   9.799830e-01   6.325090e+00   6.286760e+00   1.222199e+06  -6.424386e+05  -6.477060e+05   0.000000e+00   0.000000e+00   0.000000e+00   1.525130e+06   0.000000e+00   0.000000e+00   0.000000e+00
       80000   7.999900e-07   1.077759e+00   6.273695e+00   6.234943e+00   1.222199e+06  -6.424386e+05  -6.477060e+05   0.000000e+00   0.000000e+00   0.000000e+00   1.525130e+06   0.000000e+00   0.000000e+00   0.000000e+00
       88000   8.799900e-07   1.175535e+00   6.222300e+00   6.183127e+00   1.222199e+06  -6.424386e+05  -6.477060e+05   0.000000e+00   0.000000e+00   0.000000e+00   1.525130e+06   0.000000e+00   0.000000e+00   0.000000e+00
       96000   9.599900e-07   1.273311e+00   6.170905e+00   6.131310e+00   1.222199e+06  -6.424386e+05  -6.477060e+05   0.000000e+00   0.000000e+00   0.000000e+00   1.525130e+06   0.000000e+00   0.000000e+00   0.000000e+00
      104000   1.039990e-06   1.371087e+00   6.119510e+00   6.079494e+00   1.222199e+06  -6.424386e+05  -6.477060e+05   0.000000e+00   0.000000e+00   0.000000e+00   1.525130e+06   0.000000e+00   0.000000e+00   0.000000e+00
      112000   1.119990e-06   1.468863e+00   6.068115e+00   6.027677e+00   1.222199e+06  -6.424386e+05  -6.477060e+05   0.000000e+00   0.000000e+00   0.000000e+00   1.525130e+06   0.000000e+00   0.000000e+00   0.000000e+00
      120000   1.199990e-06   1.566638e+00   6.016720e+00   5.975861e+00   1.222199e+06  -6.424386e+05  -6.477060e+05   0.000000e+00   0.000000e+00   0.000000e+00   1.525130e+06   0.000000e+00   0.000000e+00   0.000000e+00
      128000   1.279990e-06   1.664414e+00   5.965325e+00   5.924044e+00   1.222199e+06  -6.424386e+05  -6.477060e+05   0.000000e+00   0.000000e+00   0.000000e+00   1.525130e+06   0.000000e+00   0.000000e+00   0.000000e+00
      136000   1.359990e-06   1.762190e+00   5.913930e+00   5.872228e+00   1.222199e+06  -6.424386e+05  -6.477060e+05   0.000000e+00   0.000000e+00   0.000000e+00   1.525130e+06   0.000000e+00   0.000000e+00   0.000000e+00
      144000   1.439990e-06   1.859966e+00   5.862534e+00   5.820411e+00   1.222199e+06  -6.424386e+05  -6.477060e+05   0.000000e+00   0.000000e+00   0.000000e+00   1.525130e+06   0.000000e+00   0.000000e+00   0.000000e+00
      152000   1.519990e-06   1.957742e+00   5.811139e+00   5.768595e+00   1.222199e+06  -6.424386e+05  -6.477060e+05   0.000000e+00   0.000000e+00   0.000000e+00   1.525130e+06   0.000000e+00   0.000000e+00   0.000000e+00
      160000   1.599990e-06   2.055518e+00   5.759744e+00   5.716778e+00   1.222199e+06  -6.424386e+05  -6.477060e+05   0.000000e+00   0.000000e+00   0.000000e+00   1.525130e+06   0.000000e+00   0.000000e+00   0.000000e+00
      168000   1.679990e-06   2.153294e+00   5.708349e+00   5.664962e+00   1.222199e+06  -6.424386e+05  -6.477060e+05   0.000000e+00   0.000000e+00   0.000000e+00   1.525130e+06   0.000000e+00   0.000000e+00   0.000000e+00
      176000   1.759990e-06   2.251070e+00   5.656954e+00   5.613145e+00   1.222199e+06  -6.424386e+05  -6.477060e+05   0.000000e+00   0.000000e+00   0.000000e+00   1.525130e+06   0.000000e+00   0.000000e+00   0.000000e+00
      184000   1.839990e-06   2.348846e+00   5.605559e+00   5.561329e+00   1.222199e+06  -6.424386e+05  -6.477060e+05   0.000000e+00   0.000000e+00   0.000000e+00   1.525130e+06   0.000000e+00   0.000000e+00   0.000000e+00
      192000   1.919990e-06   2.446621e+00   5.554164e+00   5.509512e+00   1.222199e+06  -6.424386e+05  -6.477060e+05   0.000000e+00   0.000000e+00   0.000000e+00   1.525130e+06   0.000000e+00   0.000000e+00   0.000000e+00
      200000   1.999990e-06   2.544397e+00   5.502769e+00   5.457696e+00   1.222199e+06  -6.424386e+05  -6.477060e+05   0.000000e+00   0.000000e+00   0.000000e+00   1.525130e+06   0.000000e+00   0.000000e+00   0.000000e+00
      208000   2.079990e-06   2.642173e+00   5.451374e+00   5.405880e+00   1.222199e+06  -6.424386e+05  -6.477060e+05   0.000000e+00   0.000000e+00   0.000000e+00   1.525130e+06   0.000000e+00   0.000000e+00   0.000000e+00
      216000   2.159990e-06   2.739949e+00   5.399979e+00   5.354063e+00   1.222199e+06  -6.424386e+05  -6.477060e+05   0.000000e+00   0.000000e+00   0.000000e+00   1.525130e+06   0.000000e+00   0.000000e+00   0.000000e+00
      224000   2.239990e-06   2.837725e+00   5.348584e+00   5.302247e+00   1.222199e+06  -6.424386e+05  -6.477060e+05   0.000000e+00   0.000000e+00   0.000000e+00   1.525130e+06   0.000000e+00   0.000000e+00   0.000000e+00
      232000   2.319990e-06   2.935501e+00   5.297188e+00   5.250430e+00   1.222199e+06  -6.424386e+05  -6.477060e+05   0.000000e+00   0.000000e+00   0.000000e+00   1.525130e+06   0.000000e+00   0.000000e+00   0.000000e+00
      240000   2.399990e-06   3.033277e+00   5.245793e+00   5.198614e+00   1.222199e+06  -6.424386e+05  -6.477060e+05   0.000000e+00   0.000000e+00   0.000000e+00   1.525130e+06   0.000000e+00   0.000000e+00   0.000000e+00
      248000   2.479990e-06   3.131053e+00   5.194398e+00   5.146797e+00   1.222199e+06  -6.424386e+05  -6.477060e+05   0.000000e+00   0.000000e+00   0.000000e+00   1.525130e+06   0.000000e+00   0.000000e+00   0.000000e+00
      256000   2.559990e-06   3.228829e+00   5.143003e+00   5.094981e+00   1.222199e+06  -6.424386e+05  -6.477060e+05   0.000000e+00   0.000000e+00   0.000000e+00   1.525130e+06   0.000000e+00   0.000000e+00   0.000000e+00
      264000   2.639990e-06   3.326605e+00   5.091608e+00   5.043164e+00   1.222199e+06  -6.424386e+05  -6.477060e+05   0.000000e+00   0.000000e+00   0.000000e+00   1.525130e+06   0.000000e+00   0.000000e+00   0.000000e+00
      272000   2.719990e-06   3.424380e+00   5.040213e+00   4.991348e+00   1.222199e+06  -6.424386e+05  -6.477060e+05   0.000000e+00   0.000000e+00   0.000000e+00   1.525130e+06   0.000000e+00   0.000000e+00   0.000000e+00
      280000   2.799990e-06   3.522156e+00   4.988818e+00   4.939531e+00   1.222199e+06  -6.424386e+05  -6.477060e+05   0.000000e+00   0.000000e+00   0.000000e+00   1.525130e+06   0.000000e+00   0.000000e+00   0.000000e+00
      288000   2.879990e-06   3.619932e+00   4.937423e+00   4.887715e+00   1.222199e+06  -6.424386e+05  -6.477060e+05   0.000000e+00   0.000000e+00   0.000000e+00   1.525130e+06   0.000000e+00   0.000000e+00   0.000000e+00
      296000   2.959990e-06   3.717708e+00   4.886028e+00   4.835898e+00   1.222199e+06  -6.424386e+05  -6.477060e+05   0.000000e+00   0.000000e+00   0.000000e+00   1.525130e+06   0.000000e+00   0.000000e+00   0.000000e+00
      304000   3.039990e-06   3.815484e+00   4.834633e+00   4.784082e+00   1.222199e+06  -6.424386e+05  -6.477060e+05   0.000000e+00   0.000000e+00   0.000000e+00   1.525130e+06   0.000000e+00   0.000000e+00   0.000000e+00
      312000   3.119990e-06   3.913260e+00   4.783238e+00   4.732265e+00   1.222199e+06  -6.424386e+05  -6.477060e+05   0.000000e+00   0.000000e+00   0.000000e+00   1.525130e+06   0.000000e+00   0.000000e+00   0.000000e+00
      320000   3.199990e-06   4.011036e+00   4.731843e+00   4.680449e+00   1.222199e+06  -6.424386e+05  -6.477060e+05   0.000000e+00   0.000000e+00   0.000000e+00   1.525130e+06   0.000000e+00   0.000000e+00   0.000000e+00
      328000   3.279990e-06   4.108812e+00   4.680447e+00   4.628632e+00   1.222199e+06  -6.424386e+05  -6.477060e+05   0.000000e+00   0.000000e+00   0.000000e+00   1.525130e+06   0.000000e+00   0.000000e+00   0.000000e+00
      336000   3.359990e-06   4.206588e+00   4.629052e+00   4.576816e+00   1.222199e+06  -6.424386e+05  -6.477060e+05   0.000000e+00   0.000000e+00   0.000000e+00   1.525130e+06   0.000000e+00   0.000000e+00   0.000000e+00
      344000   3.439990e-06   4.304363e+00   4.577657e+00   4.524999e+00   1.222199e+06  -6.424386e+05  -6.477060e+05   0.000000e+00   0.000000e+00   0.000000e+00   1.525130e+06   0.000000e+00   0.000000e+00   0.000000e+00
      352000   3.519990e-06   4.402139e+00   4.526262e+00   4.473183e+00   1.222199e+06  -6.424386e+05  -6.477060e+05   0.000000e+00   0.000000e+00   0.000000e+00   1.525130e+06   0.000000e+00   0.000000e+00   0.000000e+00
      360000   3.599990e-06   4.499915e+00   4.474867e+00   4.421366e+00   1.222199e+06  -6.424386e+05  -6.477060e+05   0.000000e+00   0.000000e+00   0.000000e+00   1.525130e+06   0.000000e+00   0.000000e+00   0.000000e+00
      368000   3.679990e-06   4.597691e+00   4.423472e+00   4.369550e+00   1.222199e+06  -6.424386e+05  -6.477060e+05   0.000000e+00   0.000000e+00   0.000000e+00   1.525130e+06   0.000000e+00   0.000000e+00   0.000000e+00
      376000   3.759990e-06   4.695467e+00   4.372077e+00   4.317733e+00   1.222199e+06  -6.424386e+05  -6.477060e+05   0.000000e+00   0.000000e+00   0.000000e+00   1.525130e+06   0.000000e+00   0.000000e+00   0.000000e+00
      384000   3.839990e-06   4.793243e+00   4.320682e+00   4.265917e+00   1.222199e+06  -6.424386e+05  -6.477060e+05   0.000000e+00   0.000000e+00   0.000000e+00   1.525130e+06   0.000000e+00   0.000000e+00   0.000000e+00
      392000   3.919990e-06   4.891019e+00   4.269287e+00   4.214100e+00   1.222199e+06  -6.424386e+05  -6.477060e+05   0.000000e+00   0.000000e+00   0.000000e+00   1.525130e+06   0.000000e+00   0.000000e+00   0.000000e+00
      400000   3.999990e-06   4.988795e+00   4.217892e+00   4.162284e+00   1.222199e+06  -6.424386e+05  -6.477060e+05   0.000000e+00   0.000000e+00   0.000000e+00   1.525130e+06   0.000000e+00   0.000000e+00   0.000000e+00
      408000   4.079990e-06   5.086571e+00   4.166497e+00   4.110468e+00   1.222199e+06  -6.424386e+05  -6.477060e+05   0.000000e+00   0.000000e+00   0.000000e+00   1.525130e+06   0.000000e+00   0.000000e+00   0.000000e+00
      416000   4.159990e-06   5.184347e+00   4.115102e+00   4.058651e+00   1.222199e+06  -6.424386e+05  -6.477060e+05   0.000000e+00   0.000000e+00   0.000000e+00   1.525130e+06   0.000000e+00   0.000000e+00   0.000000e+00
      424000   4.239990e-06   5.282122e+00   4.063706e+00   4.006835e+00   1.222199e+06  -6.424386e+05  -6.477060e+05   0.000000e+00   0.000000e+00   0.000000e+00   1.525130e+06   0.000000e+00   0.000000e+00   0.000000e+00
      432000   4.319990e-06   5.379898e+00   4.012311e+00   3.955018e+00   1.222199e+06  -6.424386e+05  -6.477060e+05   0.000000e+00   0.000000e+00   0.000000e+00   1.525130e+06   0.000000e+00   0.000000e+00   0.000000e+00
      440000   4.399990e-06   5.477674e+00   3.960916e+00   3.903202e+00   1.222199e+06  -6.424386e+05  -6.477060e+05   0.000000e+00   0.000000e+00   0.000000e+00   1.525130e+06   0.000000e+00   0.000000e+00   0.000000e+00
      448000   4.479990e-06   5.575450e+00   3.909521e+00   3.851385e+00   1.222199e+06  -6.424386e+05  -6.477060e+05   0.000000e+00   0.000000e+00   0.000000e+00   1.525130e+06   0.000000e+00   0.000000e+00   0.000000e+00
      456000   4.559990e-06   5.673226e+00   3.858126e+00   3.799569e+00   1.222199e+06  -6.424386e+05  -6.477060e+05   0.000000e+00   0.000000e+00   0.000000e+00   1.525130e+06   0.000000e+00   0.000000e+00   0.000000e+00
      464000   4.639990e-06   5.771002e+00   3.806731e+00   3.747752e+00   1.222199e+06  -6.424386e+05  -6.477060e+05   0.000000e+00   0.000000e+00   0.000000e+00   1.525130e+06   0.000000e+00   0.000000e+00   0.000000e+00
      472000   4.719990e-06   5.868778e+00   3.755336e+00   3.695936e+00   1.222199e+06  -6.424386e+05  -6.477060e+05   0.000000e+00   0.000000e+00   0.000000e+00   1.525130e+06   0.000000e+00   0.000000e+00   0.000000e+00
      480000   4.799990e-06   5.966554e+00   3.703941e+00   3.644119e+00   1.222199e+06  -6.424386e+05  -6.477060e+05   0.000000e+00   0.000000e+00   0.000000e+00   1.525130e+06   0.000000e+00   0.000000e+00   0.000000e+00
      488000   4.879990e-06   6.064330e+00   3.652546e+00   3.592303e+00   1.222199e+06  -6.424386e+05  -6.477060e+05   0.000000e+00   0.000000e+00   0.000000e+00   1.525130e+06   0.000000e+00   0.000000e+00   0.000000e+00
      496000   4.959990e-06   6.162105e+00   3.601151e+00   3.540486e+00   1.222199e+06  -6.424386e+05  -6.477060e+05   0.000000e+00   0.000000e+00   0.000000e+00   1.525130e+06   0.000000e+00   0.000000e+00   0.000000e+00
      504000   5.039990e-06   6.259881e+00   3.549756e+00   3.488670e+00   1.222199e+06  -6.424386e+05  -6.477060e+05   0.000000e+00   0.000000e+00   0.000000e+00   1.525130e+06   0.000000e+00   0.000000e+00   0.000000e+00
      512000   5.119990e-06   6.357657e+00   3.498360e+00   3.436853e+00   1.222199e+06  -6.424386e+05  -6.477060e+05   0.000000e+00   0.000000e+00   0.000000e+00   1.525130e+06   0.000000e+00   0.000000e+00   0.000000e+00
      520000   5.199990e-06   6.455433e+00   3.446965e+00   3.385037e+00   1.222199e+06  -6.424386e+05  -6.477060e+05   0.000000e+00   0.000000e+00   0.000000e+00   1.525130e+06   0.000000e+00   0.000000e+00   0.000000e+00
      528000   5.279990e-06   6.553209e+00   3.395570e+00   3.333220e+00   1.222199e+06  -6.424386e+05  -6.477060e+05   0.000000e+00   0.000000e+00   0.000000e+00   1.525130e+06   0.000000e+00   0.000000e+00   0.000000e+00
      536000   5.359990e-06   6.650985e+00   3.344175e+00   3.281404e+00   1.222199e+06  -6.424386e+05  -6.477060e+05   0.000000e+00   0.000000e+00   0.000000e+00   1.525130e+06   0.000000e+00   0.000000e+00   0.000000e+00
      544000   5.439990e-06   6.748761e+00   3.292780e+00   3.229587e+00   1.222199e+06  -6.424386e+05  -6.477060e+05   0.000000e+00   0.000000e+00   0.000000e+00   1.525130e+06   0.000000e+00   0.000000e+00   0.000000e+00
      552000   5.519990e-06   6.846537e+00   3.241385e+00   3.177771e+00   1.222199e+06  -6.424386e+05  -6.477060e+05   0.000000e+00   0.000000e+00   0.000000e+00   1.525130e+06   0.000000e+00   0.000000e+00   0.000000e+00
      560000   5.599990e-06   6.944313e+00   3.189990e+00   3.125954e+00   1.222199e+06  -6.424386e+05  -6.477060e+05   0.000000e+00   0.000000e+00   0.000000e+00   1.525130e+06   0.000000e+00   0.000000e+00   0.000000e+00
      568000   5.679990e-06   7.042088e+00   3.138595e+00   3.074138e+00   1.222199e+06  -6.424386e+05  -6.477060e+05   0.000000e+00   0.000000e+00   0.000000e+00   1.525130e+06   0.000000e+00   0.000000e+00   0.000000e+00
      576000   5.759990e-06   7.139864e+00   3.087200e+00   3.022321e+00   1.222199e+06  -6.424386e+05  -6.477060e+05   0.000000e+00   0.000000e+00   0.000000e+00   1.525130e+06   0.000000e+00   0.000000e+00   0.000000e+00
      584000   5.839990e-06   7.237640e+00   3.035805e+00   2.970505e+00   1.222199e+06  -6.424386e+05  -6.477060e+05   0.000000e+00   0.000000e+00   0.000000e+00   1.525130e+06   0.000000e+00   0.000000e+00   0.000000e+00
      592000   5.919990e-06   7.335416e+00   2.984410e+00   2.918688e+00   1.222199e+06  -6.424386e+05  -6.477060e+05   0.000000e+00   0.000000e+00   0.000000e+00   1.525130e+06   0.000000e+00   0.000000e+00   0.000000e+00
      600000   5.999990e-06   7.433192e+00   2.933015e+00   2.866872e+00   1.222199e+06  -6.424386e+05  -6.477060e+05   0.000000e+00   0.000000e+00   0.000000e+00   1.525130e+06   0.000000e+00   0.000000e+00   0.000000e+00
      608000   6.079990e-06   7.530968e+00   2.881619e+00   2.815055e+00   1.222199e+06  -6.424386e+05  -6.477060e+05   0.000000e+00   0.000000e+00   0.000000e+00   1.525130e+06   0.000000e+00   0.000000e+00   0.000000e+00
      616000   6.159990e-06   7.628744e+00   2.830224e+00   2.763239e+00   1.222199e+06  -6.424386e+05  -6.477060e+05   0.000000e+00   0.000000e+00   0.000000e+00   1.525130e+06   0.000000e+00   0.000000e+00   0.000000e+00
      624000   6.239990e-06   7.726520e+00   2.778829e+00   2.711423e+00   1.222199e+06  -6.424386e+05  -6.477060e+05   0.000000e+00   0.000000e+00   0.000000e+00   1.525130e+06   0.000000e+00   0.000000e+00   0.000000e+00
      632000   6.319990e-06   7.824296e+00   2.727434e+00   2.659606e+00   1.222199e+06  -6.424386e+05  -6.477060e+05   0.000000e+00   0.000000e+00   0.000000e+00   1.525130e+06   0.000000e+00   0.000000e+00   0.000000e+00
      640000   6.399990e-06   7.922072e+00   2.676039e+00   2.607790e+00   1.222199e+06  -6.424386e+05  -6.477060e+05   0.000000e+00   0.000000e+00   0.000000e+00   1.525130e+06   0.000000e+00   0.000000e+00   0.000000e+00
      648000   6.479990e-06   8.019847e+00   2.624644e+00   2.555973e+00   1.222199e+06  -6.424386e+05  -6.477060e+05   0.000000e+00   0.000000e+00   0.000000e+00   1.525130e+06   0.000000e+00   0.000000e+00   0.000000e+00
      656000   6.559990e-06   8.117623e+00   2.573249e+00   2.504157e+00   1.222199e+06  -6.424386e+05  -6.477060e+05   0.000000e+00   0.000000e+00   0.000000e+00   1.525130e+06   0.000000e+00   0.000000e+00   0.000000e+00
      664000   6.639990e-06   8.215399e+00   2.521854e+00   2.452340e+00   1.222199e+06  -6.424386e+05  -6.477060e+05   0.000000e+00   0.000000e+00   0.000000e+00   1.525130e+06   0.000000e+00   0.000000e+00   0.000000e+00
      672000   6.719990e-06   8.313175e+00   2.470459e+00   2.400524e+00   1.222199e+06  -6.424386e+05  -6.477060e+05   0.000000e+00   0.000000e+00   0.000000e+00   1.525130e+06   0.000000e+00   0.000000e+00   0.000000e+00
      680000   6.799990e-06   8.410951e+00   2.419064e+00   2.348707e+00   1.222199e+06  -6.424386e+05  -6.477060e+05   0.000000e+00   0.000000e+00   0.000000e+00   1.525130e+06   0.000000e+00   0.000000e+00   0.000000e+00
      688000   6.879990e-06   8.508727e+00   2.367669e+00   2.296891e+00   1.222199e+06  -6.424386e+05  -6.477060e+05   0.000000e+00   0.000000e+00   0.000000e+00   1.525130e+06   0.000000e+00   0.000000e+00   0.000000e+00
      696000   6.959990e-06   8.606503e+00   2.316273e+00   2.245074e+00   1.222199e+06  -6.424386e+05  -6.477060e+05   0.000000e+00   0.000000e+00   0.000000e+00   1.525130e+06   0.000000e+00   0.000000e+00   0.000000e+00
      704000   7.039990e-06   8.704279e+00   2.264878e+00   2.193258e+00   1.222199e+06  -6.424386e+05  -6.477060e+05   0.000000e+00   0.000000e+00   0.000000e+00   1.525130e+06   0.000000e+00   0.000000e+00   0.000000e+00
      712000   7.119990e-06   8.802055e+00   2.213483e+00   2.141441e+00   1.222199e+06  -6.424386e+05  -6.477060e+05   0.000000e+00   0.000000e+00   0.000000e+00   1.525130e+06   0.000000e+00   0.000000e+00   0.000000e+00
      720000   7.199990e-06   8.899830e+00   2.162088e+00   2.089625e+00   1.222199e+06  -6.424386e+05  -6.477060e+05   0.000000e+00   0.000000e+00   0.000000e+00   1.525130e+06   0.000000e+00   0.000000e+00   0.000000e+00
      728000   7.279990e-06   8.997606e+00   2.110693e+00   2.037808e+00   1.222199e+06  -6.424386e+05  -6.477060e+05   0.000000e+00   0.000000e+00   0.000000e+00   1.525130e+06   0.000000e+00   0.000000e+00   0.000000e+00
      736000   7.359990e-06   9.095382e+00   2.059298e+00   1.985992e+00   1.222199e+06  -6.424386e+05  -6.477060e+05   0.000000e+00   0.000000e+00   0.000000e+00   1.525130e+06   0.000000e+00   0.000000e+00   0.000000e+00
      744000   7.439990e-06   9.193158e+00   2.007903e+00   1.934175e+00   1.222199e+06  -6.424386e+05  -6.477060e+05   0.000000e+00   0.000000e+00   0.000000e+00   1.525130e+06   0.000000e+00   0.000000e+00   0.000000e+00
      752000   7.519990e-06   9.290934e+00   1.956508e+00   1.882359e+00   1.222199e+06  -6.424386e+05  -6.477060e+05   0.000000e+00   0.000000e+00   0.000000e+00   1.525130e+06   0.000000e+00   0.000000e+00   0.000000e+00
      760000   7.599990e-06   9.388710e+00   1.905113e+00   1.830542e+00   1.222199e+06  -6.424386e+05  -6.477060e+05   0.000000e+00   0.000000e+00   0.000000e+00   1.525130e+06   0.000000e+00   0.000000e+00   0.000000e+00
      768000   7.679990e-06   9.486486e+00   1.853718e+00   1.778726e+00   1.222199e+06  -6.424386e+05  -6.477060e+05   0.000000e+00   0.000000e+00   0.000000e+00   1.525130e+06   0.000000e+00   0.000000e+00   0.000000e+00
      776000   7.759990e-06   9.584262e+00   1.802323e+00   1.726909e+00   1.222199e+06  -6.424386e+05  -6.477060e+05   0.000000e+00   0.000000e+00   0.000000e+00   1.525130e+06   0.000000e+00   0.000000e+00   0.000000e+00
      784000   7.839990e-06   9.682038e+00   1.750928e+00   1.675093e+00   1.222199e+06  -6.424386e+05  -6.477060e+05   0.000000e+00   0.000000e+00   0.000000e+00   1.525130e+06   0.000000e+00   0.000000e+00   0.000000e+00
      792000   7.919990e-06   9.779814e+00   1.699532e+00   1.623276e+00   1.222199e+06  -6.424386e+05  -6.477060e+05   0.000000e+00   0.000000e+00   0.000000e+00   1.525130e+06   0.000000e+00   0.000000e+00   0.000000e+00
      800000   7.999990e-06   9.877589e+00   1.648137e+00   1.571460e+00   1.222199e+06  -6.424386e+05  -6.477060e+05   0.000000e+00   0.000000e+00   0.000000e+00   1.525130e+06   0.000000e+00   0.000000e+00   0.000000e+00
      808000   8.079990e-06   9.975365e+00   1.596742e+00   1.519643e+00   1.222199e+06  -6.424386e+05  -6.477060e+05   0.000000e+00   0.000000e+00   0.000000e+00   1.525130e+06   0.000000e+00   0.000000e+00   0.000000e+00
      816000   8.159990e-06   1.007314e+01   1.545347e+00   1.467827e+00   1.222199e+06  -6.424386e+05  -6.477060e+05   0.000000e+00   0.000000e+00   0.000000e+00   1.525130e+06   0.000000e+00   0.000000e+00   0.000000e+00
      824000   8.239990e-06   1.017092e+01   1.493952e+00   1.416011e+00   1.222199e+06  -6.424386e+05  -6.477060e+05   0.000000e+00   0.000000e+00   0.000000e+00   1.525130e+06   0.000000e+00   0.000000e+00   0.000000e+00
      832000   8.319990e-06   1.026869e+01   1.442557e+00   1.364194e+00   1.222199e+06  -6.424386e+05  -6.477060e+05   0.000000e+00   0.000000e+00   0.000000e+00   1.525130e+06   0.000000e+00   0.000000e+00   0.000000e+00
      840000   8.399990e-06   1.036647e+01   1.391162e+00   1.312378e+00   1.222199e+06  -6.424386e+05  -6.477060e+05   0.000000e+00   0.000000e+00   0.000000e+00   1.525130e+06   0.000000e+00   0.000000e+00   0.000000e+00
      848000   8.479990e-06   1.046424e+01   1.339767e+00   1.260561e+00   1.222199e+06  -6.424386e+05  -6.477060e+05   0.000000e+00   0.000000e+00   0.000000e+00   1.525130e+06   0.000000e+00   0.000000e+00   0.000000e+00
      856000   8.559990e-06   1.056202e+01   1.288372e+00   1.208745e+00   1.222199e+06  -6.424386e+05  -6.477060e+05   0.000000e+00   0.000000e+00   0.000000e+00   1.525130e+06   0.000000e+00   0.000000e+00   0.000000e+00
      864000   8.639990e-06   1.065980e+01   1.236977e+00   1.156928e+00   1.222199e+06  -6.424386e+05  -6.477060e+05   0.000000e+00   0.000000e+00   0.000000e+00   1.525130e+06   0.000000e+00   0.000000e+00   0.000000e+00
      872000   8.719990e-06   1.075757e+01   1.185582e+00   1.105112e+00   1.222199e+06  -6.424386e+05  -6.477060e+05   0.000000e+00   0.000000e+00   0.000000e+00   1.525130e+06   0.000000e+00   0.000000e+00   0.000000e+00
      880000   8.799990e-06   1.085535e+01   1.134187e+00   1.053295e+00   1.222199e+06  -6.424386e+05  -6.477060e+05   0.000000e+00   0.000000e+00   0.000000e+00   1.525130e+06   0.000000e+00   0.000000e+00   0.000000e+00
      888000   8.879990e-06   1.095312e+01   1.082791e+00   1.001479e+00   1.222199e+06  -6.424386e+05  -6.477060e+05   0.000000e+00   0.000000e+00   0.000000e+00   1.525130e+06   0.000000e+00   0.000000e+00   0.000000e+00
      896000   8.959990e-06   1.105090e+01   1.031396e+00   9.496622e-01   1.222199e+06  -6.424386e+05  -6.477060e+05   0.000000e+00   0.000000e+00   0.000000e+00   1.525130e+06   0.000000e+00   0.000000e+00   0.000000e+00
      904000   9.039990e-06   1.114868e+01   9.800012e-01   8.978457e-01   1.222199e+06  -6.424386e+05  -6.477060e+05   0.000000e+00   0.000000e+00   0.000000e+00   1.525130e+06   0.000000e+00   0.000000e+00   0.000000e+00
      912000   9.119990e-06   1.124645e+01   9.286062e-01   8.460292e-01   1.222199e+06  -6.424386e+05  -6.477060e+05   0.000000e+00   0.000000e+00   0.000000e+00   1.525130e+06   0.000000e+00   0.000000e+00   0.000000e+00
      920000   9.199990e-06   1.134423e+01   8.772111e-01   7.942128e-01   1.222199e+06  -6.424386e+05  -6.477060e+05   0.000000e+00   0.000000e+00   0.000000e+00   1.525130e+06   0.000000e+00   0.000000e+00   0.000000e+00
      928000   9.279990e-06   1.144200e+01   8.258160e-01   7.423963e-01   1.222199e+06  -6.424386e+05  -6.477060e+05   0.000000e+00   0.000000e+00   0.000000e+00   1.525130e+06   0.000000e+00   0.000000e+00   0.000000e+00
      936000   9.359990e-06   1.153978e+01   7.744209e-01   6.905798e-01   1.222199e+06  -6.424386e+05  -6.477060e+05   0.000000e+00   0.000000e+00   0.000000e+00   1.525130e+06   0.000000e+00   0.000000e+00   0.000000e+00
      944000   9.439990e-06   1.163756e+01   7.230258e-01   6.387633e-01   1.222199e+06  -6.424386e+05  -6.477060e+05   0.000000e+00   0.000000e+00   0.000000e+00   1.525130e+06   0.000000e+00   0.000000e+00   0.000000e+00
      952000   9.519990e-06   1.173533e+01   6.716307e-01   5.869468e-01   1.222199e+06  -6.424386e+05  -6.477060e+05   0.000000e+00   0.000000e+00   0.000000e+00   1.525130e+06   0.000000e+00   0.000000e+00   0.000000e+00
      960000   9.599990e-06   1.183311e+01   6.202356e-01   5.351304e-01   1.222199e+06  -6.424386e+05  -6.477060e+05   0.000000e+00   0.000000e+00   0.000000e+00   1.525130e+06   0.000000e+00   0.000000e+00   0.000000e+00
      968000   9.679990e-06   1.193088e+01   5.688406e-01   4.833139e-01   1.222199e+06  -6.424386e+05  -6.477060e+05   0.000000e+00   0.000000e+00   0.000000e+00   1.525130e+06   0.000000e+00   0.000000e+00   0.000000e+00
      976000   9.759990e-06   1.202866e+01   5.174455e-01   4.314974e-01   1.222199e+06  -6.424386e+05  -6.477060e+05   0.000000e+00   0.000000e+00   0.000000e+00   1.525130e+06   0.000000e+00   0.000000e+00   0.000000e+00
      984000   9.839990e-06   1.212644e+01   4.660504e-01   3.796809e-01   1.222199e+06  -6.424386e+05  -6.477060e+05   0.000000e+00   0.000000e+00   0.000000e+00   1.525130e+06   0.000000e+00   0.000000e+00   0.000000e+00
      992000   9.919990e-06   1.222421e+01   4.146553e-01   3.278644e-01   1.222199e+06  -6.424386e+05  -6.477060e+05   0.000000e+00   0.000000e+00   0.000000e+00   1.525130e+06   0.000000e+00   0.000000e+00   0.000000e+00
     1000000   9.999990e-06   1.232199e+01   3.632602e-01   2.760480e-01   1.222199e+06  -6.424386e+05  -6.477060e+05   0.000000e+00   0.000000e+00   0.000000e+00   1.525130e+06   0.000000e+00   0.000000e+00   0.000000e+00
     1008000   1.007999e-05   1.241976e+01   3.118651e-01   2.242315e-01   1.222199e+06  -6.424386e+05  -6.477060e+05   0.000000e+00   0.000000e+00   0.000000e+00   1.525130e+06   0.000000e+00   0.000000e+00   0.000000e+00
     1016000   1.015999e-05   1.251754e+01   2.604700e-01   1.724150e-01   1.222199e+06  -6.424386e+05  -6.477060e+05   0.000000e+00   0.000000e+00   0.000000e+00   1.525130e+06   0.000000e+00   0.000000e+00   0.000000e+00
     1024000   1.023999e-05   1.261531e+01   2.090749e-01   1.205985e-01   1.222199e+06  -6.424386e+05  -6.477060e+05   0.000000e+00   0.000000e+00   0.000000e+00   1.525130e+06   0.000000e+00   0.000000e+00   0.000000e+00
     1032000   1.031999e-05   1.271309e+01   1.576799e-01   6.878204e-02   1.222199e+06  -6.424386e+05  -6.477060e+05   0.000000e+00   0.000000e+00   0.000000e+00   1.525130e+06   0.000000e+00   0.000000e+00   0.000000e+00
     1040000   1.039999e-05   1.281087e+01   1.062848e-01   1.696556e-02   1.222199e+06  -6.424386e+05  -6.477060e+05   0.000000e+00   0.000000e+00   0.000000e+00   1.525130e+06   0.000000e+00   0.000000e+00   0.000000e+00
