     timestep     time              x             y              z              vx             vy             vz             ax             ay             az         v_magnitude      ELoss        Electronic      Nuclear
           0   0.000000e+00   1.000000e-01   8.791247e+00   1.975844e+01   7.865656e+05  -4.048937e+05   1.605538e+06   0.000000e+00   0.000000e+00   0.000000e+00   1.833133e+06   0.000000e+00   0.000000e+00   0.000000e+00
        8000   7.999000e-08   1.629249e-01   8.758856e+00   1.988688e+01   7.865591e+05  -4.048829e+05   1.605543e+06  -1.324089e+07   3.463792e+07   1.522166e+07   1.833133e+06   1.303776e-26   0.000000e+00   0.000000e+00
       16000   1.599900e-07   2.258494e-01   8.726466e+00   2.001532e+01   7.865545e+05  -4.048743e+05   1.605548e+06   2.258616e+06   4.387821e+06  -5.418972e+00   1.833133e+06   1.973825e-28   0.000000e+00   0.000000e+00
       24000   2.399900e-07   2.887738e-01   8.694076e+00   2.014377e+01   7.865544e+05  -4.048747e+05   1.605548e+06  -8.798262e+06  -1.709244e+07   8.815830e+00   1.833133e+06   2.990539e-27   0.000000e+00   0.000000e+00
       32000   3.199900e-07   3.516981e-01   8.661686e+00   2.027221e+01   7.865542e+05  -4.048749e+05   1.605548e+06  -1.576645e+01  -3.062963e+01  -4.043779e-20   1.833133e+06   9.606051e-39   0.000000e+00   0.000000e+00
       40000   3.999900e-07   4.146225e-01   8.629296e+00   2.040066e+01   7.865542e+05  -4.048749e+05   1.605548e+06  -1.057098e+01  -2.053633e+01  -8.900011e-20   1.833133e+06   4.317642e-39   0.000000e+00   0.000000e+00
       48000   4.799900e-07   4.775468e-01   8.596906e+00   2.052910e+01   7.865542e+05  -4.048749e+05   1.605548e+06  -1.044760e+01  -2.029665e+01   2.706820e-20   1.833133e+06   4.218943e-39   0.000000e+00   0.000000e+00
       56000   5.599900e-07   5.404711e-01   8.564516e+00   2.065754e+01   7.865542e+05  -4.048749e+05   1.605548e+06  -1.023896e+01  -1.989132e+01   6.588545e-21   1.833133e+06   4.051631e-39   0.000000e+00   0.000000e+00
       64000   6.399900e-07   6.033955e-01   8.532126e+00   2.078599e+01   7.865542e+05  -4.048749e+05   1.605548e+06  -1.007019e+01  -1.956344e+01   2.646606e-20   1.833133e+06   3.918709e-39   0.000000e+00   0.000000e+00
       72000   7.199900e-07   6.663198e-01   8.499736e+00   2.091443e+01   7.865542e+05  -4.048749e+05   1.605548e+06  -1.012602e+01  -1.967191e+01   3.113769e-20   1.833133e+06   3.962621e-39   0.000000e+00   0.000000e+00
       80000   7.999900e-07   7.292442e-01   8.467346e+00   2.104287e+01   7.865542e+05  -4.048749e+05   1.605548e+06  -1.887141e+00  -3.666167e+00   5.955137e-21   1.833133e+06   1.377716e-40   0.000000e+00   0.000000e+00
       88000   8.799900e-07   7.921685e-01   8.434956e+00   2.117132e+01   7.865542e+05  -4.048749e+05   1.605548e+06  -4.254681e+00  -8.265608e+00   5.965371e-21   1.833133e+06   6.995266e-40   0.000000e+00   0.000000e+00
       96000   9.599900e-07   8.550928e-01   8.402566e+00   2.129976e+01   7.865542e+05  -4.048749e+05   1.605548e+06  -6.167816e+00  -1.198227e+01   7.328714e-21   1.833133e+06   1.470060e-39   0.000000e+00   0.000000e+00
      104000   1.039990e-06   9.180172e-01   8.370176e+00   2.142821e+01   7.865542e+05  -4.048749e+05   1.605548e+06  -5.725307e+00  -1.112261e+01   7.924130e-21   1.833133e+06   1.266932e-39   0.000000e+00   0.000000e+00
      112000   1.119990e-06   9.809415e-01   8.337786e+00   2.155665e+01   7.865542e+05  -4.048749e+05   1.605548e+06  -1.529381e+01  -2.971143e+01   4.033320e-20   1.833133e+06   9.038572e-39   0.000000e+00   0.000000e+00
      120000   1.199990e-06   1.043866e+00   8.305396e+00   2.168509e+01   7.865542e+05  -4.048749e+05   1.605548e+06  -1.196840e+01  -2.325112e+01  -1.841751e-20   1.833133e+06   5.534821e-39   0.000000e+00   0.000000e+00
      128000   1.279990e-06   1.106790e+00   8.273006e+00   2.181354e+01   7.865542e+05  -4.048749e+05   1.605548e+06  -8.712588e+00  -1.692602e+01   3.240031e-20   1.833133e+06   2.934788e-39   0.000000e+00   0.000000e+00
      136000   1.359990e-06   1.169715e+00   8.240616e+00   2.194198e+01   7.865542e+05  -4.048749e+05   1.605548e+06  -1.745805e+01  -3.391591e+01   8.518746e-20   1.833133e+06   1.177682e-38   0.000000e+00   0.000000e+00
      144000   1.439990e-06   1.232639e+00   8.208226e+00   2.207043e+01   7.865542e+05  -4.048749e+05   1.605548e+06  -9.407987e+00  -1.827698e+01   1.506974e-21   1.833133e+06   3.419875e-39   0.000000e+00   0.000000e+00
      152000   1.519990e-06   1.295563e+00   8.175836e+00   2.219887e+01   7.865542e+05  -4.048749e+05   1.605548e+06  -1.762814e+01  -3.424636e+01  -1.187158e-20   1.833133e+06   1.200784e-38   0.000000e+00   0.000000e+00
      160000   1.599990e-06   1.358488e+00   8.143446e+00   2.232731e+01   7.865542e+05  -4.048749e+05   1.605548e+06  -9.740491e+00  -1.892294e+01   3.794509e-20   1.833133e+06   3.666664e-39   0.000000e+00   0.000000e+00
      168000   1.679990e-06   1.421412e+00   8.111056e+00   2.245576e+01   7.865542e+05  -4.048749e+05   1.605548e+06  -1.003068e+01  -1.948669e+01  -3.432927e-20   1.833133e+06   3.887342e-39   0.000000e+00   0.000000e+00
      176000   1.759990e-06   1.484336e+00   8.078666e+00   2.258420e+01   7.865542e+05  -4.048749e+05   1.605548e+06  -1.226701e+01  -2.383123e+01   1.410225e-20   1.833133e+06   5.814724e-39   0.000000e+00   0.000000e+00
      184000   1.839990e-06   1.547261e+00   8.046276e+00   2.271264e+01   7.865542e+05  -4.048749e+05   1.605548e+06  -1.514134e+01  -2.941522e+01  -7.539164e-20   1.833133e+06   8.860497e-39   0.000000e+00   0.000000e+00
      192000   1.919990e-06   1.610185e+00   8.013886e+00   2.284109e+01   7.865542e+05  -4.048749e+05   1.605548e+06  -2.003034e+01  -3.891313e+01   6.454656e-21   1.833133e+06   1.550286e-38   0.000000e+00   0.000000e+00
      200000   1.999990e-06   1.673109e+00   7.981496e+00   2.296953e+01   7.865542e+05  -4.048749e+05   1.605548e+06  -2.383507e+01  -4.630460e+01  -1.088291e-20   1.833133e+06   2.195597e-38   0.000000e+00   0.000000e+00
      208000   2.079990e-06   1.736034e+00   7.949106e+00   2.309798e+01   7.865542e+05  -4.048749e+05   1.605548e+06  -1.627209e+01  -3.161194e+01  -2.570647e-20   1.833133e+06   1.023194e-38   0.000000e+00   0.000000e+00
      216000   2.159990e-06   1.798958e+00   7.916716e+00   2.322642e+01   7.865542e+05  -4.048749e+05   1.605548e+06  -1.273075e+01  -2.473213e+01  -1.420417e-20   1.833133e+06   6.262867e-39   0.000000e+00   0.000000e+00
      224000   2.239990e-06   1.861882e+00   7.884326e+00   2.335486e+01   7.865542e+05  -4.048749e+05   1.605548e+06  -1.797912e+01  -3.492821e+01   6.817766e-21   1.833133e+06   1.249024e-38   0.000000e+00   0.000000e+00
      232000   2.319990e-06   1.924807e+00   7.851936e+00   2.348331e+01   7.865542e+05  -4.048749e+05   1.605548e+06  -9.971770e+00  -1.937225e+01  -1.698119e-20   1.833133e+06   3.843416e-39   0.000000e+00   0.000000e+00
      240000   2.399990e-06   1.987731e+00   7.819546e+00   2.361175e+01   7.865542e+05  -4.048749e+05   1.605548e+06  -6.530936e+00  -1.268771e+01  -3.466224e-21   1.833133e+06   1.648792e-39   0.000000e+00   0.000000e+00
      248000   2.479990e-06   2.050655e+00   7.787156e+00   2.374020e+01   7.865542e+05  -4.048749e+05   1.605548e+06   1.625997e+00   3.158839e+00   2.793227e-21   1.833133e+06   1.021915e-40   0.000000e+00   0.000000e+00
      256000   2.559990e-06   2.113580e+00   7.754766e+00   2.386864e+01   7.865542e+05  -4.048749e+05   1.605548e+06  -1.659617e+01  -3.224153e+01   3.270228e-21   1.833133e+06   1.064343e-38   0.000000e+00   0.000000e+00
      264000   2.639990e-06   2.176504e+00   7.722376e+00   2.399708e+01   7.865542e+05  -4.048749e+05   1.605548e+06  -1.250519e+01  -2.429394e+01   2.168942e-20   1.833133e+06   6.043058e-39   0.000000e+00   0.000000e+00
      272000   2.719990e-06   2.239428e+00   7.689986e+00   2.412553e+01   7.865542e+05  -4.048749e+05   1.605548e+06  -4.683447e+00  -9.098575e+00   1.679403e-20   1.833133e+06   8.481273e-40   0.000000e+00   0.000000e+00
      280000   2.799990e-06   2.302353e+00   7.657596e+00   2.425397e+01   7.865542e+05  -4.048749e+05   1.605548e+06  -9.299935e+00  -1.806707e+01  -1.838400e-21   1.833133e+06   3.342346e-39   0.000000e+00   0.000000e+00
      288000   2.879990e-06   2.365277e+00   7.625206e+00   2.438241e+01   7.865542e+05  -4.048749e+05   1.605548e+06  -8.607109e+00  -1.672111e+01  -2.981003e-20   1.833133e+06   2.862747e-39   0.000000e+00   0.000000e+00
      296000   2.959990e-06   2.428201e+00   7.592816e+00   2.451086e+01   7.865542e+05  -4.048749e+05   1.605548e+06  -3.936043e+00  -7.646586e+00  -6.880295e-21   1.833133e+06   5.993610e-40   0.000000e+00   0.000000e+00
      304000   3.039990e-06   2.491126e+00   7.560426e+00   2.463930e+01   7.865542e+05  -4.048749e+05   1.605548e+06  -1.514712e+01  -2.942644e+01  -1.326155e-19   1.833133e+06   8.864962e-39   0.000000e+00   0.000000e+00
      312000   3.119990e-06   2.554050e+00   7.528036e+00   2.476775e+01   7.865542e+05  -4.048749e+05   1.605548e+06  -1.873306e+01  -3.639288e+01   9.087271e-21   1.833133e+06   1.355872e-38   0.000000e+00   0.000000e+00
      320000   3.199990e-06   2.616974e+00   7.495646e+00   2.489619e+01   7.865542e+05  -4.048749e+05   1.605548e+06  -1.471390e+01  -2.858482e+01   2.496342e-21   1.833133e+06   8.367757e-39   0.000000e+00   0.000000e+00
      328000   3.279990e-06   2.679899e+00   7.463256e+00   2.502463e+01   7.865542e+05  -4.048749e+05   1.605548e+06  -1.886330e+01  -3.664590e+01   3.870187e-20   1.833133e+06   1.375230e-38   0.000000e+00   0.000000e+00
      336000   3.359990e-06   2.742823e+00   7.430866e+00   2.515308e+01   7.865542e+05  -4.048749e+05   1.605548e+06  -1.703036e+01  -3.308504e+01  -5.001940e-21   1.833133e+06   1.120939e-38   0.000000e+00   0.000000e+00
      344000   3.439990e-06   2.805747e+00   7.398476e+00   2.528152e+01   7.865542e+05  -4.048749e+05   1.605548e+06  -1.652783e+01  -3.210877e+01   7.023155e-20   1.833133e+06   1.055601e-38   0.000000e+00   0.000000e+00
      352000   3.519990e-06   2.868672e+00   7.366086e+00   2.540996e+01   7.865542e+05  -4.048749e+05   1.605548e+06  -1.240693e+01  -2.410305e+01  -1.014996e-20   1.833133e+06   5.948238e-39   0.000000e+00   0.000000e+00
      360000   3.599990e-06   2.931596e+00   7.333696e+00   2.553841e+01   7.865542e+05  -4.048749e+05   1.605548e+06  -1.536307e+01  -2.984598e+01   5.148585e-20   1.833133e+06   9.119458e-39   0.000000e+00   0.000000e+00
      368000   3.679990e-06   2.994520e+00   7.301306e+00   2.566685e+01   7.865542e+05  -4.048749e+05   1.605548e+06   2.214189e+00   4.301525e+00  -1.220868e-21   1.833133e+06   1.890604e-40   0.000000e+00   0.000000e+00
      376000   3.759990e-06   3.057445e+00   7.268916e+00   2.579530e+01   7.865542e+05  -4.048749e+05   1.605548e+06  -1.526442e+01  -2.965432e+01   1.708157e-20   1.833133e+06   9.003778e-39   0.000000e+00   0.000000e+00
      384000   3.839990e-06   3.120369e+00   7.236526e+00   2.592374e+01   7.865542e+05  -4.048749e+05   1.605548e+06  -1.454714e+01  -2.826087e+01   4.165778e-20   1.833133e+06   8.177830e-39   0.000000e+00   0.000000e+00
      392000   3.919990e-06   3.183293e+00   7.204136e+00   2.605218e+01   7.865542e+05  -4.048749e+05   1.605548e+06  -1.291522e+01  -2.509051e+01  -1.929514e-20   1.833133e+06   6.445789e-39   0.000000e+00   0.000000e+00
      400000   3.999990e-06   3.246218e+00   7.171746e+00   2.618063e+01   7.865542e+05  -4.048749e+05   1.605548e+06  -2.450001e+01  -4.759639e+01  -4.732285e-20   1.833133e+06   2.319432e-38   0.000000e+00   0.000000e+00
      408000   4.079990e-06   3.309142e+00   7.139356e+00   2.630907e+01   7.865542e+05  -4.048749e+05   1.605548e+06  -1.418518e+01  -2.755768e+01  -6.706451e-20   1.833133e+06   7.775673e-39   0.000000e+00   0.000000e+00
      416000   4.159990e-06   3.372066e+00   7.106966e+00   2.643752e+01   7.865542e+05  -4.048749e+05   1.605548e+06  -1.304174e+01  -2.533630e+01   9.476037e-21   1.833133e+06   6.573610e-39   0.000000e+00   0.000000e+00
      424000   4.239990e-06   3.434991e+00   7.074576e+00   2.656596e+01   7.865542e+05  -4.048749e+05   1.605548e+06  -1.909920e+01  -3.710419e+01  -6.990686e-20   1.833133e+06   1.409462e-38   0.000000e+00   0.000000e+00
      432000   4.319990e-06   3.497915e+00   7.042186e+00   2.669440e+01   7.865542e+05  -4.048749e+05   1.605548e+06   1.292655e+00   2.511252e+00  -5.606958e-21   1.833133e+06   6.439644e-41   0.000000e+00   0.000000e+00
      440000   4.399990e-06   3.560839e+00   7.009796e+00   2.682285e+01   7.865542e+05  -4.048749e+05   1.605548e+06  -1.261727e+01  -2.451168e+01  -3.248583e-20   1.833133e+06   6.150759e-39   0.000000e+00   0.000000e+00
      448000   4.479990e-06   3.623764e+00   6.977406e+00   2.695129e+01   7.865542e+05  -4.048749e+05   1.605548e+06  -1.622697e+01  -3.152428e+01  -1.726635e-20   1.833133e+06   1.017485e-38   0.000000e+00   0.000000e+00
      456000   4.559990e-06   3.686688e+00   6.945016e+00   2.707973e+01   7.865542e+05  -4.048749e+05   1.605548e+06  -1.094895e+01  -2.127062e+01  -4.745239e-21   1.833133e+06   4.632915e-39   0.000000e+00   0.000000e+00
      464000   4.639990e-06   3.749612e+00   6.912626e+00   2.720818e+01   7.865542e+05  -4.048749e+05   1.605548e+06  -7.864631e+00  -1.527869e+01  -3.029820e-20   1.833133e+06   2.389912e-39   0.000000e+00   0.000000e+00
      472000   4.719990e-06   3.812537e+00   6.880236e+00   2.733662e+01   7.865542e+05  -4.048749e+05   1.605548e+06  -1.226126e+01  -2.382007e+01  -1.305849e-20   1.833133e+06   5.810162e-39   0.000000e+00   0.000000e+00
      480000   4.799990e-06   3.875461e+00   6.847846e+00   2.746507e+01   7.865542e+05  -4.048749e+05   1.605548e+06   5.184553e-01   1.007208e+00  -2.227910e-21   1.833133e+06   1.037624e-41   0.000000e+00   0.000000e+00
      488000   4.879990e-06   3.938385e+00   6.815456e+00   2.759351e+01   7.865542e+05  -4.048749e+05   1.605548e+06   2.354568e+00   4.574241e+00  -1.210844e-21   1.833133e+06   2.137832e-40   0.000000e+00   0.000000e+00
      496000   4.959990e-06   4.001310e+00   6.783066e+00   2.772195e+01   7.865542e+05  -4.048749e+05   1.605548e+06  -4.057218e+00  -7.881995e+00   1.332381e-20   1.833133e+06   6.360356e-40   0.000000e+00   0.000000e+00
      504000   5.039990e-06   4.064234e+00   6.750676e+00   2.785040e+01   7.865542e+05  -4.048749e+05   1.605548e+06  -1.246461e+01  -2.421511e+01  -2.982896e-20   1.833133e+06   6.003620e-39   0.000000e+00   0.000000e+00
      512000   5.119990e-06   4.127158e+00   6.718286e+00   2.797884e+01   7.865542e+05  -4.048749e+05   1.605548e+06  -1.394572e+01  -2.709247e+01   4.254999e-20   1.833133e+06   7.516578e-39   0.000000e+00   0.000000e+00
      520000   5.199990e-06   4.190083e+00   6.685896e+00   2.810729e+01   7.865542e+05  -4.048749e+05   1.605548e+06  -1.606179e+01  -3.120339e+01   7.262555e-20   1.833133e+06   9.969686e-39   0.000000e+00   0.000000e+00
      528000   5.279990e-06   4.253007e+00   6.653506e+00   2.823573e+01   7.865542e+05  -4.048749e+05   1.605548e+06  -1.785899e+01  -3.469482e+01  -3.606197e-20   1.833133e+06   1.232637e-38   0.000000e+00   0.000000e+00
      536000   5.359990e-06   4.315931e+00   6.621116e+00   2.836417e+01   7.865542e+05  -4.048749e+05   1.605548e+06  -1.725504e+01  -3.352152e+01  -3.675566e-20   1.833133e+06   1.150632e-38   0.000000e+00   0.000000e+00
      544000   5.439990e-06   4.378856e+00   6.588726e+00   2.849262e+01   7.865542e+05  -4.048749e+05   1.605548e+06  -7.386174e+00  -1.434919e+01   8.235296e-21   1.833133e+06   2.109314e-39   0.000000e+00   0.000000e+00
      552000   5.519990e-06   4.441780e+00   6.556336e+00   2.862106e+01   7.865542e+05  -4.048749e+05   1.605548e+06  -1.589240e+01  -3.087431e+01   3.127425e-20   1.833133e+06   9.759887e-39   0.000000e+00   0.000000e+00
      560000   5.599990e-06   4.504704e+00   6.523946e+00   2.874950e+01   7.865542e+05  -4.048749e+05   1.605548e+06  -1.184945e+01  -2.302003e+01   6.497291e-20   1.833133e+06   5.425367e-39   0.000000e+00   0.000000e+00
      568000   5.679990e-06   4.567629e+00   6.491556e+00   2.887795e+01   7.865542e+05  -4.048749e+05   1.605548e+06  -8.487189e+00  -1.648814e+01   3.934607e-20   1.833133e+06   2.784388e-39   0.000000e+00   0.000000e+00
      576000   5.759990e-06   4.630553e+00   6.459166e+00   2.900639e+01   7.865542e+05  -4.048749e+05   1.605548e+06  -1.225600e+01  -2.380985e+01  -1.205972e-20   1.833133e+06   5.803844e-39   0.000000e+00   0.000000e+00
      584000   5.839990e-06   4.693477e+00   6.426776e+00   2.913484e+01   7.865542e+05  -4.048749e+05   1.605548e+06  -4.304315e+00  -8.362033e+00  -1.098126e-20   1.833133e+06   7.165005e-40   0.000000e+00   0.000000e+00
      592000   5.919990e-06   4.756402e+00   6.394386e+00   2.926328e+01   7.865542e+05  -4.048749e+05   1.605548e+06  -1.106254e+01  -2.149130e+01  -2.982307e-20   1.833133e+06   4.729301e-39   0.000000e+00   0.000000e+00
      600000   5.999990e-06   4.819326e+00   6.361996e+00   2.939172e+01   7.865542e+05  -4.048749e+05   1.605548e+06  -8.542272e+00  -1.659515e+01   2.192453e-20   1.833133e+06   2.820355e-39   0.000000e+00   0.000000e+00
      608000   6.079990e-06   4.882251e+00   6.329606e+00   2.952017e+01   7.865542e+05  -4.048749e+05   1.605548e+06  -1.182561e+01  -2.297372e+01   2.705054e-20   1.833133e+06   5.404882e-39   0.000000e+00   0.000000e+00
      616000   6.159990e-06   4.945175e+00   6.297216e+00   2.964861e+01   7.865542e+05  -4.048749e+05   1.605548e+06  -1.364958e+01  -2.651716e+01   7.213402e-21   1.833133e+06   7.202150e-39   0.000000e+00   0.000000e+00
      624000   6.239990e-06   5.008099e+00   6.264826e+00   2.977706e+01   7.865542e+05  -4.048749e+05   1.605548e+06  -2.480138e+01  -8.943186e+00   9.894914e+00   1.833133e+06   6.417636e-39   0.000000e+00   0.000000e+00
      632000   6.319990e-06   5.071024e+00   6.232436e+00   2.990550e+01   7.865542e+05  -4.048749e+05   1.605548e+06  -2.250414e+01  -4.727558e+01  -8.968730e-01   1.833133e+06   2.219580e-38   0.000000e+00   0.000000e+00
      640000   6.399990e-06   5.133948e+00   6.200046e+00   3.003394e+01   7.865542e+05  -4.048749e+05   1.605548e+06  -6.389088e+00  -2.532398e+01  -3.256010e+00   1.833133e+06   5.607221e-39   0.000000e+00   0.000000e+00
      648000   6.479990e-06   5.196872e+00   6.167656e+00   3.016239e+01   7.865542e+05  -4.048749e+05   1.605548e+06  -1.554340e+01  -3.978778e+01  -2.418707e+00   1.833133e+06   1.481562e-38   0.000000e+00   0.000000e+00
      656000   6.559990e-06   5.259797e+00   6.135266e+00   3.029083e+01   7.865542e+05  -4.048749e+05   1.605548e+06  -1.448361e+01  -2.813744e+01   3.799836e-20   1.833133e+06   8.107218e-39   0.000000e+00   0.000000e+00
      664000   6.639990e-06   5.322721e+00   6.102876e+00   3.041927e+01   7.865542e+05  -4.048749e+05   1.605548e+06  -1.346077e+01  -2.615036e+01   5.655985e-20   1.833133e+06   7.001850e-39   0.000000e+00   0.000000e+00
      672000   6.719990e-06   5.385645e+00   6.070486e+00   3.054772e+01   7.865542e+05  -4.048749e+05   1.605548e+06  -9.243903e+00  -1.795822e+01   1.346099e-20   1.833133e+06   3.302306e-39   0.000000e+00   0.000000e+00
      680000   6.799990e-06   5.448570e+00   6.038096e+00   3.067616e+01   7.865542e+05  -4.048749e+05   1.605548e+06  -8.084274e+00  -1.570539e+01  -2.155441e-20   1.833133e+06   2.526434e-39   0.000000e+00   0.000000e+00
      688000   6.879990e-06   5.511494e+00   6.005706e+00   3.080461e+01   7.865542e+05  -4.048749e+05   1.605548e+06  -4.453352e+00  -8.651569e+00   5.766993e-21   1.833133e+06   7.655103e-40   0.000000e+00   0.000000e+00
      696000   6.959990e-06   5.574418e+00   5.973316e+00   3.093305e+01   7.865542e+05  -4.048749e+05   1.605548e+06  -1.048358e+01  -2.036655e+01   2.210482e-20   1.833133e+06   4.247932e-39   0.000000e+00   0.000000e+00
      704000   7.039990e-06   5.637343e+00   5.940926e+00   3.106149e+01   7.865542e+05  -4.048749e+05   1.605548e+06  -1.612437e+01  -3.132496e+01  -8.441133e-20   1.833133e+06   1.004581e-38   0.000000e+00   0.000000e+00
      712000   7.119990e-06   5.700267e+00   5.908536e+00   3.118994e+01   7.865542e+05  -4.048749e+05   1.605548e+06  -1.691447e+01  -3.285989e+01   2.488408e-20   1.833133e+06   1.105539e-38   0.000000e+00   0.000000e+00
      720000   7.199990e-06   5.763191e+00   5.876146e+00   3.131838e+01   7.865542e+05  -4.048749e+05   1.605548e+06  -2.422227e+01  -4.705683e+01  -3.242835e-20   1.833133e+06   2.267030e-38   0.000000e+00   0.000000e+00
      728000   7.279990e-06   5.826116e+00   5.843756e+00   3.144682e+01   7.865542e+05  -4.048749e+05   1.605548e+06  -1.977528e+01  -3.841761e+01   8.615370e-20   1.833133e+06   1.511298e-38   0.000000e+00   0.000000e+00
      736000   7.359990e-06   5.889040e+00   5.811366e+00   3.157527e+01   7.865542e+05  -4.048749e+05   1.605548e+06  -2.685963e+01  -5.218046e+01  -5.279697e-20   1.833133e+06   2.787972e-38   0.000000e+00   0.000000e+00
      744000   7.439990e-06   5.951964e+00   5.778976e+00   3.170371e+01   7.865542e+05  -4.048749e+05   1.605548e+06  -2.884525e+01  -5.603793e+01  -7.065747e-20   1.833133e+06   3.215363e-38   0.000000e+00   0.000000e+00
      752000   7.519990e-06   6.014889e+00   5.746586e+00   3.183216e+01   7.865542e+05  -4.048749e+05   1.605548e+06  -1.986209e+01  -3.858626e+01   4.011365e-20   1.833133e+06   1.525018e-38   0.000000e+00   0.000000e+00
      760000   7.599990e-06   6.077813e+00   5.714196e+00   3.196060e+01   7.865542e+05  -4.048749e+05   1.605548e+06  -3.436193e+01  -6.675523e+01   1.242580e-19   1.833133e+06   4.562236e-38   0.000000e+00   0.000000e+00
      768000   7.679990e-06   6.140737e+00   5.681806e+00   3.208904e+01   7.865542e+05  -4.048749e+05   1.605548e+06  -3.932899e+00  -7.640479e+00  -7.247471e-22   1.833133e+06   5.983005e-40   0.000000e+00   0.000000e+00
      776000   7.759990e-06   6.203662e+00   5.649416e+00   3.221749e+01   7.865542e+05  -4.048749e+05   1.605548e+06  -1.738868e+01  -3.378115e+01   6.949159e-20   1.833133e+06   1.168529e-38   0.000000e+00   0.000000e+00
      784000   7.839990e-06   6.266586e+00   5.617026e+00   3.234593e+01   7.865542e+05  -4.048749e+05   1.605548e+06  -1.184579e+01  -2.301293e+01   3.593579e-20   1.833133e+06   5.423430e-39   0.000000e+00   0.000000e+00
      792000   7.919990e-06   6.329510e+00   5.584636e+00   3.247438e+01   7.865542e+05  -4.048749e+05   1.605548e+06  -1.411873e+00  -2.742859e+00   4.298695e-21   1.833133e+06   7.721144e-41   0.000000e+00   0.000000e+00
      800000   7.999990e-06   6.392435e+00   5.552246e+00   3.260282e+01   7.865542e+05  -4.048749e+05   1.605548e+06  -1.267105e+00  -2.461616e+00   2.651628e-21   1.833133e+06   6.220556e-41   0.000000e+00   0.000000e+00
      808000   8.079990e-06   6.455359e+00   5.519856e+00   3.273126e+01   7.865542e+05  -4.048749e+05   1.605548e+06  -7.595666e+00  -1.475617e+01   5.869757e-21   1.833133e+06   2.230976e-39   0.000000e+00   0.000000e+00
      816000   8.159990e-06   6.518283e+00   5.487466e+00   3.285971e+01   7.865542e+05  -4.048749e+05   1.605548e+06  -1.184994e+01  -2.302099e+01   4.531677e-20   1.833133e+06   5.426379e-39   0.000000e+00   0.000000e+00
      824000   8.239990e-06   6.581208e+00   5.455076e+00   3.298815e+01   7.865542e+05  -4.048749e+05   1.605548e+06   6.554392e+00   1.273328e+01  -1.164362e-20   1.833133e+06   1.659409e-39   0.000000e+00   0.000000e+00
      832000   8.319990e-06   6.644132e+00   5.422686e+00   3.311659e+01   7.865542e+05  -4.048749e+05   1.605548e+06  -1.625727e+01  -3.158314e+01   1.189373e-20   1.833133e+06   1.021187e-38   0.000000e+00   0.000000e+00
      840000   8.399990e-06   6.707056e+00   5.390296e+00   3.324504e+01   7.865542e+05  -4.048749e+05   1.605548e+06  -2.028525e+01  -3.940834e+01  -2.050238e-21   1.833133e+06   1.590494e-38   0.000000e+00   0.000000e+00
      848000   8.479990e-06   6.769981e+00   5.357906e+00   3.337348e+01   7.865542e+05  -4.048749e+05   1.605548e+06  -2.859926e+01  -5.556004e+01   2.823674e-20   1.833133e+06   3.160592e-38   0.000000e+00   0.000000e+00
      856000   8.559990e-06   6.832905e+00   5.325516e+00   3.350193e+01   7.865542e+05  -4.048749e+05   1.605548e+06  -2.485627e+01  -4.828850e+01   3.931621e-20   1.833133e+06   2.387678e-38   0.000000e+00   0.000000e+00
      864000   8.639990e-06   6.895829e+00   5.293126e+00   3.363037e+01   7.865542e+05  -4.048749e+05   1.605548e+06  -4.726915e+00  -9.183021e+00  -1.252427e-20   1.833133e+06   8.635909e-40   0.000000e+00   0.000000e+00
      872000   8.719990e-06   6.958754e+00   5.260736e+00   3.375881e+01   7.865542e+05  -4.048749e+05   1.605548e+06  -2.855321e+01  -5.547058e+01   6.326854e-20   1.833133e+06   3.150835e-38   0.000000e+00   0.000000e+00
      880000   8.799990e-06   7.021678e+00   5.228346e+00   3.388726e+01   7.865542e+05  -4.048749e+05   1.605548e+06  -2.385287e+01  -4.633919e+01  -5.287464e-20   1.833133e+06   2.198470e-38   0.000000e+00   0.000000e+00
      888000   8.879990e-06   7.084602e+00   5.195956e+00   3.401570e+01   7.865542e+05  -4.048749e+05   1.605548e+06  -2.930751e+01  -5.693597e+01   1.574269e-19   1.833133e+06   3.318760e-38   0.000000e+00   0.000000e+00
      896000   8.959990e-06   7.147527e+00   5.163566e+00   3.414415e+01   7.865542e+05  -4.048749e+05   1.605548e+06  -8.287095e+00  -1.609942e+01   1.974250e-21   1.833133e+06   2.654872e-39   0.000000e+00   0.000000e+00
      904000   9.039990e-06   7.210451e+00   5.131176e+00   3.427259e+01   7.865542e+05  -4.048749e+05   1.605548e+06  -1.241958e+01  -2.412762e+01   1.129074e-20   1.833133e+06   5.964992e-39   0.000000e+00   0.000000e+00
      912000   9.119990e-06   7.273375e+00   5.098786e+00   3.440103e+01   7.865542e+05  -4.048749e+05   1.605548e+06  -4.582976e+01  -8.903389e+01  -1.464714e-19   1.833133e+06   8.117098e-38   0.000000e+00   0.000000e+00
      920000   9.199990e-06   7.336300e+00   5.066396e+00   3.452948e+01   7.865542e+05  -4.048749e+05   1.605548e+06  -1.501769e+01  -2.917501e+01   3.108386e-20   1.833133e+06   8.716315e-39   0.000000e+00   0.000000e+00
      928000   9.279990e-06   7.399224e+00   5.034006e+00   3.465792e+01   7.865542e+05  -4.048749e+05   1.605548e+06  -2.165203e+01  -4.206359e+01   3.852885e-21   1.833133e+06   1.811688e-38   0.000000e+00   0.000000e+00
      936000   9.359990e-06   7.462148e+00   5.001616e+00   3.478636e+01   7.865542e+05  -4.048749e+05   1.605548e+06  -2.514656e+01  -4.885245e+01  -5.965680e-20   1.833133e+06   2.443244e-38   0.000000e+00   0.000000e+00
      944000   9.439990e-06   7.525073e+00   4.969226e+00   3.491481e+01   7.865542e+05  -4.048749e+05   1.605548e+06  -1.944369e+01  -3.777343e+01   3.520620e-20   1.833133e+06   1.460797e-38   0.000000e+00   0.000000e+00
      952000   9.519990e-06   7.587997e+00   4.936836e+00   3.504325e+01   7.865542e+05  -4.048749e+05   1.605548e+06  -1.464882e+01  -2.845840e+01   2.601434e-20   1.833133e+06   8.293056e-39   0.000000e+00   0.000000e+00
      960000   9.599990e-06   7.650921e+00   4.904446e+00   3.517170e+01   7.865542e+05  -4.048749e+05   1.605548e+06  -1.941255e+01  -3.771293e+01  -1.974307e-20   1.833133e+06   1.456380e-38   0.000000e+00   0.000000e+00
      968000   9.679990e-06   7.713846e+00   4.872056e+00   3.530014e+01   7.865542e+05  -4.048749e+05   1.605548e+06  -1.968149e+01  -3.823540e+01  -7.980727e-20   1.833133e+06   1.496869e-38   0.000000e+00   0.000000e+00
      976000   9.759990e-06   7.776770e+00   4.839666e+00   3.542858e+01   7.865542e+05  -4.048749e+05   1.605548e+06  -1.984346e+01  -3.855007e+01  -1.201581e-19   1.833133e+06   1.521746e-38   0.000000e+00   0.000000e+00
      984000   9.839990e-06   7.839694e+00   4.807276e+00   3.555703e+01   7.865542e+05  -4.048749e+05   1.605548e+06  -2.074466e+01  -4.030084e+01  -6.692123e-20   1.833133e+06   1.662996e-38   0.000000e+00   0.000000e+00
      992000   9.919990e-06   7.902619e+00   4.774887e+00   3.568547e+01   7.865542e+05  -4.048749e+05   1.605548e+06  -1.282344e+01  -2.491221e+01   2.655733e-20   1.833133e+06   6.355073e-39   0.000000e+00   0.000000e+00
     1000000   9.999990e-06   7.965543e+00   4.742497e+00   3.581392e+01   7.865542e+05  -4.048749e+05   1.605548e+06  -2.825935e+00  -5.489970e+00  -6.129752e-21   1.833133e+06   3.086758e-40   0.000000e+00   0.000000e+00
     1008000   1.007999e-05   8.028467e+00   4.710107e+00   3.594236e+01   7.865542e+05  -4.048749e+05   1.605548e+06  -8.241359e+00  -1.601056e+01  -5.799799e-21   1.833133e+06   2.626040e-39   0.000000e+00   0.000000e+00
     1016000   1.015999e-05   8.091392e+00   4.677717e+00   3.607080e+01   7.865542e+05  -4.048749e+05   1.605548e+06   3.534379e+00   6.866271e+00  -8.690796e-21   1.833133e+06   4.827671e-40   0.000000e+00   0.000000e+00
     1024000   1.023999e-05   8.154316e+00   4.645327e+00   3.619925e+01   7.865542e+05  -4.048749e+05   1.605548e+06  -1.339107e+01  -2.601495e+01   6.057004e-20   1.833133e+06   6.929867e-39   0.000000e+00   0.000000e+00
     1032000   1.031999e-05   8.217240e+00   4.612937e+00   3.632769e+01   7.865542e+05  -4.048749e+05   1.605548e+06  -1.938886e+01  -3.766691e+01   1.269958e-20   1.833133e+06   1.452863e-38   0.000000e+00   0.000000e+00
     1040000   1.039999e-05   8.280165e+00   4.580547e+00   3.645613e+01   7.865542e+05  -4.048749e+05   1.605548e+06  -1.611726e+01  -3.131114e+01   1.480870e-20   1.833133e+06   1.003923e-38   0.000000e+00   0.000000e+00
     1048000   1.047999e-05   8.343089e+00   4.548157e+00   3.658458e+01   7.865542e+05  -4.048749e+05   1.605548e+06  -2.374055e+01  -4.612098e+01  -5.999020e-21   1.833133e+06   2.178034e-38   0.000000e+00   0.000000e+00
     1056000   1.055999e-05   8.406013e+00   4.515767e+00   3.671302e+01   7.865542e+05  -4.048749e+05   1.605548e+06  -2.267117e+01  -4.404349e+01  -6.004347e-21   1.833133e+06   1.986518e-38   0.000000e+00   0.000000e+00
     1064000   1.063999e-05   8.468938e+00   4.483377e+00   3.684147e+01   7.865542e+05  -4.048749e+05   1.605548e+06  -2.526968e+01  -4.909164e+01  -2.252625e-20   1.833133e+06   2.467643e-38   0.000000e+00   0.000000e+00
     1072000   1.071999e-05   8.531862e+00   4.450987e+00   3.696991e+01   7.865542e+05  -4.048749e+05   1.605548e+06  -4.308187e+00  -8.369554e+00  -5.764049e-21   1.833133e+06   7.177670e-40   0.000000e+00   0.000000e+00
     1080000   1.079999e-05   8.594786e+00   4.418597e+00   3.709835e+01   7.865542e+05  -4.048749e+05   1.605548e+06  -1.228646e+01  -2.386901e+01   5.686379e-20   1.833133e+06   5.833162e-39   0.000000e+00   0.000000e+00
     1088000   1.087999e-05   8.657711e+00   4.386207e+00   3.722680e+01   7.865542e+05  -4.048749e+05   1.605548e+06  -9.711063e+00  -1.886577e+01   3.472617e-20   1.833133e+06   3.642871e-39   0.000000e+00   0.000000e+00
     1096000   1.095999e-05   8.720635e+00   4.353817e+00   3.735524e+01   7.865542e+05  -4.048749e+05   1.605548e+06  -2.002675e+01  -3.890615e+01  -3.280576e-20   1.833133e+06   1.549768e-38   0.000000e+00   0.000000e+00
     1104000   1.103999e-05   8.783560e+00   4.321427e+00   3.748368e+01   7.865542e+05  -4.048749e+05   1.605548e+06  -1.978121e+01  -3.842913e+01   7.427679e-20   1.833133e+06   1.512257e-38   0.000000e+00   0.000000e+00
     1112000   1.111999e-05   8.846484e+00   4.289037e+00   3.761213e+01   7.865542e+05  -4.048749e+05   1.605548e+06  -2.170283e+01  -4.216229e+01   4.732341e-20   1.833133e+06   1.819986e-38   0.000000e+00   0.000000e+00
     1120000   1.119999e-05   8.909408e+00   4.256647e+00   3.774057e+01   7.865542e+05  -4.048749e+05   1.605548e+06  -1.304016e+01  -2.533324e+01   1.269060e-21   1.833133e+06   6.571925e-39   0.000000e+00   0.000000e+00
     1128000   1.127999e-05   8.972333e+00   4.224257e+00   3.786902e+01   7.865542e+05  -4.048749e+05   1.605548e+06  -1.090876e+01  -2.119255e+01   4.525312e-20   1.833133e+06   4.599377e-39   0.000000e+00   0.000000e+00
     1136000   1.135999e-05   9.035257e+00   4.191867e+00   3.799746e+01   7.865542e+05  -4.048749e+05   1.605548e+06  -1.746345e+01  -3.392640e+01   2.085791e-20   1.833133e+06   1.178272e-38   0.000000e+00   0.000000e+00
     1144000   1.143999e-05   9.098181e+00   4.159477e+00   3.812590e+01   7.865542e+05  -4.048749e+05   1.605548e+06  -1.461003e+01  -2.838303e+01  -2.369577e-20   1.833133e+06   8.246443e-39   0.000000e+00   0.000000e+00
     1152000   1.151999e-05   9.161106e+00   4.127087e+00   3.825435e+01   7.865542e+05  -4.048749e+05   1.605548e+06  -1.892581e+01  -3.676734e+01  -4.726985e-20   1.833133e+06   1.384029e-38   0.000000e+00   0.000000e+00
     1160000   1.159999e-05   9.224030e+00   4.094697e+00   3.838279e+01   7.865542e+05  -4.048749e+05   1.605548e+06  -1.318475e+00  -2.561414e+00   8.821354e-22   1.833133e+06   6.727102e-41   0.000000e+00   0.000000e+00
     1168000   1.167999e-05   9.286954e+00   4.062307e+00   3.851124e+01   7.865542e+05  -4.048749e+05   1.605548e+06   3.679884e-01   7.148944e-01   2.564724e-22   1.833133e+06   5.207615e-42   0.000000e+00   0.000000e+00
     1176000   1.175999e-05   9.349879e+00   4.029917e+00   3.863968e+01   7.865542e+05  -4.048749e+05   1.605548e+06  -9.212782e+00  -1.789776e+01  -1.233549e-20   1.833133e+06   3.280982e-39   0.000000e+00   0.000000e+00
     1184000   1.183999e-05   9.412803e+00   3.997527e+00   3.876812e+01   7.865542e+05  -4.048749e+05   1.605548e+06  -5.391580e+00  -1.047427e+01  -7.454331e-21   1.833133e+06   1.122871e-39   0.000000e+00   0.000000e+00
     1192000   1.191999e-05   9.475727e+00   3.965137e+00   3.889657e+01   7.865542e+05  -4.048749e+05   1.605548e+06  -1.674918e+01  -3.253879e+01   3.006855e-20   1.833133e+06   1.084038e-38   0.000000e+00   0.000000e+00
     1200000   1.199999e-05   9.538652e+00   3.932747e+00   3.902501e+01   7.865542e+05  -4.048749e+05   1.605548e+06  -2.195297e+01  -4.264824e+01  -1.095674e-19   1.833133e+06   1.862314e-38   0.000000e+00   0.000000e+00
     1208000   1.207999e-05   9.601576e+00   3.900357e+00   3.915345e+01   7.865542e+05  -4.048749e+05   1.605548e+06  -2.323047e+01  -4.513004e+01  -3.095740e-20   1.833133e+06   2.085485e-38   0.000000e+00   0.000000e+00
     1216000   1.215999e-05   9.664500e+00   3.867967e+00   3.928190e+01   7.865542e+05  -4.048749e+05   1.605548e+06  -2.225961e+01  -4.324394e+01  -1.584784e-20   1.833133e+06   1.914885e-38   0.000000e+00   0.000000e+00
     1224000   1.223999e-05   9.727425e+00   3.835577e+00   3.941034e+01   7.865542e+05  -4.048749e+05   1.605548e+06  -1.670163e+01  -3.244640e+01  -2.909475e-20   1.833133e+06   1.077864e-38   0.000000e+00   0.000000e+00
     1232000   1.231999e-05   9.790349e+00   3.803187e+00   3.953879e+01   7.865542e+05  -4.048749e+05   1.605548e+06  -4.646682e+00  -9.027152e+00  -2.464420e-20   1.833133e+06   8.350208e-40   0.000000e+00   0.000000e+00
     1240000   1.239999e-05   9.853273e+00   3.770797e+00   3.966723e+01   7.865542e+05  -4.048749e+05   1.605548e+06  -2.806764e+01  -5.452726e+01  -1.231432e-19   1.833133e+06   3.043916e-38   0.000000e+00   0.000000e+00
     1248000   1.247999e-05   9.916198e+00   3.738407e+00   3.979567e+01   7.865542e+05  -4.048749e+05   1.605548e+06  -2.769471e+01  -5.380277e+01   7.394312e-20   1.833133e+06   2.963465e-38   0.000000e+00   0.000000e+00
     1256000   1.255999e-05   9.979122e+00   3.706017e+00   3.992412e+01   7.865542e+05  -4.048749e+05   1.605548e+06  -1.619559e+01  -3.146333e+01   5.730400e-21   1.833133e+06   1.013301e-38   0.000000e+00   0.000000e+00
     1264000   1.263999e-05   1.004205e+01   3.673627e+00   4.005256e+01   7.865542e+05  -4.048749e+05   1.605548e+06  -2.892109e+00  -5.618527e+00  -6.494754e-21   1.833133e+06   3.238934e-40   0.000000e+00   0.000000e+00
     1272000   1.271999e-05   1.010497e+01   3.641237e+00   4.018101e+01   7.865542e+05  -4.048749e+05   1.605548e+06  -1.932872e+01  -3.755008e+01  -3.424333e-20   1.833133e+06   1.443780e-38   0.000000e+00   0.000000e+00
     1280000   1.279999e-05   1.016789e+01   3.608847e+00   4.030945e+01   7.865542e+05  -4.048749e+05   1.605548e+06  -2.362457e+01  -4.589566e+01  -6.400962e-20   1.833133e+06   2.156862e-38   0.000000e+00   0.000000e+00
     1288000   1.287999e-05   1.023082e+01   3.576457e+00   4.043789e+01   7.865542e+05  -4.048749e+05   1.605548e+06  -1.936938e+01  -3.762906e+01  -1.316532e-20   1.833133e+06   1.449697e-38   0.000000e+00   0.000000e+00
     1296000   1.295999e-05   1.029374e+01   3.544067e+00   4.056634e+01   7.865542e+05  -4.048749e+05   1.605548e+06  -1.207557e+01  -2.345932e+01  -8.594481e-21   1.833133e+06   5.636865e-39   0.000000e+00   0.000000e+00
     1304000   1.303999e-05   1.035667e+01   3.511677e+00   4.069478e+01   7.865542e+05  -4.048749e+05   1.605548e+06  -1.037732e+01  -2.016012e+01  -4.781494e-20   1.833133e+06   4.162286e-39   0.000000e+00   0.000000e+00
     1312000   1.311999e-05   1.041959e+01   3.479287e+00   4.082322e+01   7.865542e+05  -4.048749e+05   1.605548e+06  -1.004354e+01  -1.951168e+01  -1.307377e-20   1.833133e+06   3.899499e-39   0.000000e+00   0.000000e+00
     1320000   1.319999e-05   1.048252e+01   3.446897e+00   4.095167e+01   7.865542e+05  -4.048749e+05   1.605548e+06  -1.968626e+01  -3.824468e+01  -3.504021e-20   1.833133e+06   1.497437e-38   0.000000e+00   0.000000e+00
     1328000   1.327999e-05   1.054544e+01   3.414507e+00   4.108011e+01   7.865542e+05  -4.048749e+05   1.605548e+06  -1.737443e+01  -3.375346e+01  -7.951399e-21   1.833133e+06   1.166409e-38   0.000000e+00   0.000000e+00
     1336000   1.335999e-05   1.060837e+01   3.382117e+00   4.120856e+01   7.865542e+05  -4.048749e+05   1.605548e+06  -1.411290e+01  -2.741726e+01   4.591022e-20   1.833133e+06   7.695874e-39   0.000000e+00   0.000000e+00
     1344000   1.343999e-05   1.067129e+01   3.349727e+00   4.133700e+01   7.865542e+05  -4.048749e+05   1.605548e+06  -8.080018e+00  -1.569712e+01   1.061569e-21   1.833133e+06   2.523582e-39   0.000000e+00   0.000000e+00
     1352000   1.351999e-05   1.073421e+01   3.317337e+00   4.146544e+01   7.865542e+05  -4.048749e+05   1.605548e+06  -1.017921e+01  -1.977524e+01   1.951468e-20   1.833133e+06   4.004716e-39   0.000000e+00   0.000000e+00
     1360000   1.359999e-05   1.079714e+01   3.284947e+00   4.159389e+01   7.865542e+05  -4.048749e+05   1.605548e+06  -3.531482e+01  -6.860643e+01  -3.005261e-21   1.833133e+06   4.818731e-38   0.000000e+00   0.000000e+00
     1368000   1.367999e-05   1.086006e+01   3.252557e+00   4.172233e+01   7.865542e+05  -4.048749e+05   1.605548e+06  -8.356507e+00  -1.623426e+01  -1.496348e-20   1.833133e+06   2.700770e-39   0.000000e+00   0.000000e+00
     1376000   1.375999e-05   1.092299e+01   3.220167e+00   4.185078e+01   7.865542e+05  -4.048749e+05   1.605548e+06  -1.230312e+01  -2.390139e+01   1.452186e-20   1.833133e+06   5.849267e-39   0.000000e+00   0.000000e+00
     1384000   1.383999e-05   1.098591e+01   3.187777e+00   4.197922e+01   7.865542e+05  -4.048749e+05   1.605548e+06  -9.145065e+00  -1.776620e+01  -3.907311e-20   1.833133e+06   3.232447e-39   0.000000e+00   0.000000e+00
     1392000   1.391999e-05   1.104884e+01   3.155387e+00   4.210766e+01   7.865542e+05  -4.048749e+05   1.605548e+06  -1.975761e+01  -3.838330e+01  -2.134383e-20   1.833133e+06   1.508509e-38   0.000000e+00   0.000000e+00
     1400000   1.399999e-05   1.111176e+01   3.122997e+00   4.223611e+01   7.865542e+05  -4.048749e+05   1.605548e+06  -1.963239e+01  -3.814002e+01   1.665145e-20   1.833133e+06   1.489445e-38   0.000000e+00   0.000000e+00
     1408000   1.407999e-05   1.117468e+01   3.090607e+00   4.236455e+01   7.865542e+05  -4.048749e+05   1.605548e+06  -2.108819e+01  -4.096823e+01  -7.677314e-20   1.833133e+06   1.718738e-38   0.000000e+00   0.000000e+00
     1416000   1.415999e-05   1.123761e+01   3.058217e+00   4.249299e+01   7.865542e+05  -4.048749e+05   1.605548e+06  -1.144719e+01  -2.223856e+01  -9.415617e-22   1.833133e+06   5.063608e-39   0.000000e+00   0.000000e+00
     1424000   1.423999e-05   1.130053e+01   3.025827e+00   4.262144e+01   7.865542e+05  -4.048749e+05   1.605548e+06  -1.405490e+01  -2.730458e+01  -1.731991e-21   1.833133e+06   7.634861e-39   0.000000e+00   0.000000e+00
     1432000   1.431999e-05   1.136346e+01   2.993437e+00   4.274988e+01   7.865542e+05  -4.048749e+05   1.605548e+06  -1.919688e+00  -3.729396e+00  -1.538764e-21   1.833133e+06   1.426538e-40   0.000000e+00   0.000000e+00
     1440000   1.439999e-05   1.142638e+01   2.961047e+00   4.287833e+01   7.865542e+05  -4.048749e+05   1.605548e+06  -1.153192e+01  -2.240316e+01   4.934336e-20   1.833133e+06   5.139443e-39   0.000000e+00   0.000000e+00
     1448000   1.447999e-05   1.148931e+01   2.928657e+00   4.300677e+01   7.865542e+05  -4.048749e+05   1.605548e+06  -9.484368e+00  -1.842537e+01   8.006074e-21   1.833133e+06   3.476435e-39   0.000000e+00   0.000000e+00
     1456000   1.455999e-05   1.155223e+01   2.896267e+00   4.313521e+01   7.865542e+05  -4.048749e+05   1.605548e+06   8.549370e+00   1.660894e+01  -1.519508e-20   1.833133e+06   2.823970e-39   0.000000e+00   0.000000e+00
     1464000   1.463999e-05   1.161515e+01   2.863877e+00   4.326366e+01   7.865542e+05  -4.048749e+05   1.605548e+06  -7.667188e+00  -1.489512e+01   1.748253e-21   1.833133e+06   2.272849e-39   0.000000e+00   0.000000e+00
     1472000   1.471999e-05   1.167808e+01   2.831487e+00   4.339210e+01   7.865542e+05  -4.048749e+05   1.605548e+06  -4.074740e+01  -7.916035e+01  -1.383125e-20   1.833133e+06   6.415269e-38   0.000000e+00   0.000000e+00
     1480000   1.479999e-05   1.174100e+01   2.799097e+00   4.352054e+01   7.865542e+05  -4.048749e+05   1.605548e+06  -3.257442e+01  -6.328263e+01  -9.521938e-20   1.833133e+06   4.100119e-38   0.000000e+00   0.000000e+00
     1488000   1.487999e-05   1.180393e+01   2.766707e+00   4.364899e+01   7.865542e+05  -4.048749e+05   1.605548e+06  -1.066729e+01  -2.072345e+01   1.701708e-21   1.833133e+06   4.398693e-39   0.000000e+00   0.000000e+00
     1496000   1.495999e-05   1.186685e+01   2.734317e+00   4.377743e+01   7.865542e+05  -4.048749e+05   1.605548e+06  -2.102629e+01  -4.084796e+01  -5.589784e-20   1.833133e+06   1.708307e-38   0.000000e+00   0.000000e+00
     1504000   1.503999e-05   1.192978e+01   2.701927e+00   4.390588e+01   7.865542e+05  -4.048749e+05   1.605548e+06  -1.362391e+01  -2.646730e+01   5.405874e-20   1.833133e+06   7.174214e-39   0.000000e+00   0.000000e+00
     1512000   1.511999e-05   1.199270e+01   2.669537e+00   4.403432e+01   7.865542e+05  -4.048749e+05   1.605548e+06  -4.320629e+00  -8.393726e+00   1.392427e-20   1.833133e+06   7.219310e-40   0.000000e+00   0.000000e+00
     1520000   1.519999e-05   1.205563e+01   2.637147e+00   4.416276e+01   7.865542e+05  -4.048749e+05   1.605548e+06  -7.402378e+00  -1.438067e+01  -6.609295e-21   1.833133e+06   2.117871e-39   0.000000e+00   0.000000e+00
     1528000   1.527999e-05   1.211855e+01   2.604757e+00   4.429121e+01   7.865542e+05  -4.048749e+05   1.605548e+06  -1.126829e+01  -2.189102e+01   3.075047e-20   1.833133e+06   4.905914e-39   0.000000e+00   0.000000e+00
     1536000   1.535999e-05   1.218147e+01   2.572367e+00   4.441965e+01   7.865542e+05  -4.048749e+05   1.605548e+06  -3.304872e+00  -6.420405e+00   1.293904e-20   1.833133e+06   4.222219e-40   0.000000e+00   0.000000e+00
     1544000   1.543999e-05   1.224440e+01   2.539977e+00   4.454810e+01   7.865542e+05  -4.048749e+05   1.605548e+06   9.098449e-01   1.767564e+00   6.498995e-22   1.833133e+06   3.184058e-41   0.000000e+00   0.000000e+00
     1552000   1.551999e-05   1.230732e+01   2.507587e+00   4.467654e+01   7.865542e+05  -4.048749e+05   1.605548e+06  -4.993344e-01  -9.700615e-01  -1.952853e-22   1.833133e+06   9.730804e-42   0.000000e+00   0.000000e+00
     1560000   1.559999e-05   1.237025e+01   2.475197e+00   4.480498e+01   7.865542e+05  -4.048749e+05   1.605548e+06  -3.457319e-01  -6.716565e-01  -1.293451e-21   1.833133e+06   4.657692e-42   0.000000e+00   0.000000e+00
     1568000   1.567999e-05   1.243317e+01   2.442807e+00   4.493343e+01   7.865542e+05  -4.048749e+05   1.605548e+06  -1.047414e+01  -2.034821e+01  -3.716237e-20   1.833133e+06   4.240694e-39   0.000000e+00   0.000000e+00
     1576000   1.575999e-05   1.249610e+01   2.410417e+00   4.506187e+01   7.865542e+05  -4.048749e+05   1.605548e+06  -1.964634e+01  -3.816713e+01  -3.202655e-21   1.833133e+06   1.491232e-38   0.000000e+00   0.000000e+00
     1584000   1.583999e-05   1.255902e+01   2.378027e+00   4.519031e+01   7.865542e+05  -4.048749e+05   1.605548e+06   8.952532e-01   1.739217e+00   1.771281e-21   1.833133e+06   3.078977e-41   0.000000e+00   0.000000e+00
     1592000   1.591999e-05   1.262194e+01   2.345637e+00   4.531876e+01   7.865542e+05  -4.048749e+05   1.605548e+06  -2.311886e+00  -4.491322e+00  -1.682186e-21   1.833133e+06   2.067395e-40   0.000000e+00   0.000000e+00
     1600000   1.599999e-05   1.268487e+01   2.313247e+00   4.544720e+01   7.865542e+05  -4.048749e+05   1.605548e+06  -3.867068e+00  -7.512587e+00  -3.953197e-21   1.833133e+06   5.780165e-40   0.000000e+00   0.000000e+00
     1608000   1.607999e-05   1.274779e+01   2.280857e+00   4.557565e+01   7.865542e+05  -4.048749e+05   1.605548e+06  -1.709914e+00  -3.321866e+00   4.380482e-21   1.833133e+06   1.127768e-40   0.000000e+00   0.000000e+00
     1616000   1.615999e-05   1.281072e+01   2.248467e+00   4.570409e+01   7.865542e+05  -4.048749e+05   1.605548e+06  -1.272645e+01  -2.472380e+01   1.529014e-20   1.833133e+06   6.260502e-39   0.000000e+00   0.000000e+00
     1624000   1.623999e-05   1.287364e+01   2.216077e+00   4.583253e+01   7.865542e+05  -4.048749e+05   1.605548e+06  -1.777542e+01  -3.453247e+01   3.723624e-21   1.833133e+06   1.220756e-38   0.000000e+00   0.000000e+00
     1632000   1.631999e-05   1.293657e+01   2.183687e+00   4.596098e+01   7.865542e+05  -4.048749e+05   1.605548e+06  -8.236568e+00  -1.600126e+01  -2.274832e-21   1.833133e+06   2.622059e-39   0.000000e+00   0.000000e+00
     1640000   1.639999e-05   1.299949e+01   2.151297e+00   4.608942e+01   7.865542e+05  -4.048749e+05   1.605548e+06  -3.532780e+01  -6.863165e+01  -5.614711e-20   1.833133e+06   4.822646e-38   0.000000e+00   0.000000e+00
     1648000   1.647999e-05   1.306241e+01   2.118907e+00   4.621787e+01   7.865542e+05  -4.048749e+05   1.605548e+06  -3.306856e+00  -6.424259e+00   5.674182e-21   1.833133e+06   4.235031e-40   0.000000e+00   0.000000e+00
     1656000   1.655999e-05   1.312534e+01   2.086517e+00   4.634631e+01   7.865542e+05  -4.048749e+05   1.605548e+06  -8.795449e+00  -1.708700e+01  -5.896815e-21   1.833133e+06   2.988668e-39   0.000000e+00   0.000000e+00
     1664000   1.663999e-05   1.318826e+01   2.054127e+00   4.647475e+01   7.865542e+05  -4.048749e+05   1.605548e+06   1.229579e+01   2.388714e+01  -5.370334e-20   1.833133e+06   5.840597e-39   0.000000e+00   0.000000e+00
     1672000   1.671999e-05   1.325119e+01   2.021737e+00   4.660320e+01   7.865542e+05  -4.048749e+05   1.605548e+06  -5.331322e+00  -1.035721e+01   1.440844e-20   1.833133e+06   1.097984e-39   0.000000e+00   0.000000e+00
     1680000   1.679999e-05   1.331411e+01   1.989347e+00   4.673164e+01   7.865542e+05  -4.048749e+05   1.605548e+06  -1.479650e+01  -2.874530e+01   8.739668e-20   1.833133e+06   8.459670e-39   0.000000e+00   0.000000e+00
     1688000   1.687999e-05   1.337704e+01   1.956957e+00   4.686008e+01   7.865542e+05  -4.048749e+05   1.605548e+06  -1.256357e+01  -2.440736e+01   3.936654e-20   1.833133e+06   6.099663e-39   0.000000e+00   0.000000e+00
     1696000   1.695999e-05   1.343996e+01   1.924567e+00   4.698853e+01   7.865542e+05  -4.048749e+05   1.605548e+06  -5.375122e+00  -1.044230e+01  -1.702668e-20   1.833133e+06   1.117192e-39   0.000000e+00   0.000000e+00
     1704000   1.703999e-05   1.350288e+01   1.892177e+00   4.711697e+01   7.865542e+05  -4.048749e+05   1.605548e+06  -7.193367e+00  -1.397462e+01   1.617043e-20   1.833133e+06   2.001252e-39   0.000000e+00   0.000000e+00
     1712000   1.711999e-05   1.356581e+01   1.859787e+00   4.724542e+01   7.865542e+05  -4.048749e+05   1.605548e+06  -5.748518e+00  -1.116770e+01   2.992149e-21   1.833133e+06   1.276919e-39   0.000000e+00   0.000000e+00
     1720000   1.719999e-05   1.362873e+01   1.827397e+00   4.737386e+01   7.865542e+05  -4.048749e+05   1.605548e+06  -9.348826e+00  -1.816205e+01  -7.755403e-21   1.833133e+06   3.375485e-39   0.000000e+00   0.000000e+00
     1728000   1.727999e-05   1.369166e+01   1.795007e+00   4.750230e+01   7.865542e+05  -4.048749e+05   1.605548e+06   2.382252e+01   4.628023e+01  -4.235820e-20   1.833133e+06   2.193193e-38   0.000000e+00   0.000000e+00
     1736000   1.735999e-05   1.375458e+01   1.762617e+00   4.763075e+01   7.865542e+05  -4.048749e+05   1.605548e+06  -5.286709e+00  -1.027054e+01  -8.214127e-21   1.833133e+06   1.080217e-39   0.000000e+00   0.000000e+00
     1744000   1.743999e-05   1.381751e+01   1.730227e+00   4.775919e+01   7.865542e+05  -4.048749e+05   1.605548e+06  -1.492661e+01  -2.899807e+01   1.252377e-20   1.833133e+06   8.608109e-39   0.000000e+00   0.000000e+00
     1752000   1.751999e-05   1.388043e+01   1.697837e+00   4.788764e+01   7.865542e+05  -4.048749e+05   1.605548e+06  -2.640353e+01  -5.129438e+01   1.214059e-19   1.833133e+06   2.694049e-38   0.000000e+00   0.000000e+00
     1760000   1.759999e-05   1.394336e+01   1.665447e+00   4.801608e+01   7.865542e+05  -4.048749e+05   1.605548e+06  -2.703548e+00  -5.252208e+00  -4.758663e-21   1.833133e+06   2.831108e-40   0.000000e+00   0.000000e+00
     1768000   1.767999e-05   1.400628e+01   1.633057e+00   4.814452e+01   7.865542e+05  -4.048749e+05   1.605548e+06  -1.125114e+00  -2.185769e+00  -2.239222e-21   1.833133e+06   4.909762e-41   0.000000e+00   0.000000e+00
     1776000   1.775999e-05   1.406920e+01   1.600667e+00   4.827297e+01   7.865542e+05  -4.048749e+05   1.605548e+06   4.995047e-01   9.703924e-01   1.746764e-22   1.833133e+06   9.653826e-42   0.000000e+00   0.000000e+00
     1784000   1.783999e-05   1.413213e+01   1.568277e+00   4.840141e+01   7.865542e+05  -4.048749e+05   1.605548e+06   5.032991e+00   9.777638e+00  -6.922564e-21   1.833133e+06   9.792654e-40   0.000000e+00   0.000000e+00
     1792000   1.791999e-05   1.419505e+01   1.535887e+00   4.852985e+01   7.865542e+05  -4.048749e+05   1.605548e+06   8.032680e+00   1.560516e+01   3.368226e-21   1.833133e+06   2.493596e-39   0.000000e+00   0.000000e+00
     1800000   1.799999e-05   1.425798e+01   1.503497e+00   4.865830e+01   7.865542e+05  -4.048749e+05   1.605548e+06  -6.721371e-01  -1.305767e+00   1.233687e-21   1.833133e+06   1.754731e-41   0.000000e+00   0.000000e+00
     1808000   1.807999e-05   1.432090e+01   1.471107e+00   4.878674e+01   7.865542e+05  -4.048749e+05   1.605548e+06  -1.576468e+01  -3.062618e+01  -2.236139e-21   1.833133e+06   9.601523e-39   0.000000e+00   0.000000e+00
     1816000   1.815999e-05   1.438383e+01   1.438717e+00   4.891519e+01   7.865542e+05  -4.048749e+05   1.605548e+06  -9.694074e+00  -1.883277e+01   4.916839e-21   1.833133e+06   3.629992e-39   0.000000e+00   0.000000e+00
     1824000   1.823999e-05   1.444675e+01   1.406327e+00   4.904363e+01   7.865542e+05  -4.048749e+05   1.605548e+06  -2.730453e+00  -5.304476e+00  -3.507933e-21   1.833133e+06   2.882176e-40   0.000000e+00   0.000000e+00
     1832000   1.831999e-05   1.450967e+01   1.373937e+00   4.917207e+01   7.865542e+05  -4.048749e+05   1.605548e+06  -7.671304e+00  -1.490311e+01   2.414188e-21   1.833133e+06   2.273915e-39   0.000000e+00   0.000000e+00
     1840000   1.839999e-05   1.457260e+01   1.341547e+00   4.930052e+01   7.865542e+05  -4.048749e+05   1.605548e+06  -2.113280e+00  -4.105487e+00  -6.476879e-21   1.833133e+06   1.725041e-40   0.000000e+00   0.000000e+00
     1848000   1.847999e-05   1.463552e+01   1.309157e+00   4.942896e+01   7.865542e+05  -4.048749e+05   1.605548e+06  -3.619388e+00  -7.031418e+00  -1.415991e-23   1.833133e+06   5.065635e-40   0.000000e+00   0.000000e+00
     1856000   1.855999e-05   1.469845e+01   1.276767e+00   4.955740e+01   7.865542e+05  -4.048749e+05   1.605548e+06   2.771315e+01   5.383859e+01  -2.571713e-20   1.833133e+06   2.967434e-38   0.000000e+00   0.000000e+00
     1864000   1.863999e-05   1.476137e+01   1.244377e+00   4.968585e+01   7.865566e+05  -4.048760e+05   1.605546e+06   5.856769e+07  -2.520634e+07  -3.504865e+07   1.833133e+06   4.283812e-26   0.000000e+00   0.000000e+00
     1872000   1.871999e-05   1.482430e+01   1.211987e+00   4.981429e+01   7.865788e+05  -4.048854e+05   1.605533e+06   2.615349e+08  -1.112251e+08  -1.561794e+08   1.833133e+06   8.516079e-25   0.000000e+00   0.000000e+00
     1880000   1.879999e-05   1.488722e+01   1.179596e+00   4.994273e+01   7.865868e+05  -4.048888e+05   1.605528e+06   0.000000e+00   0.000000e+00   0.000000e+00   1.833133e+06   0.000000e+00   0.000000e+00   0.000000e+00
