     timestep     time              x             y              z              vx             vy             vz             ax             ay             az         v_magnitude      ELoss        Electronic      Nuclear
           0   0.000000e+00   1.000000e-01   1.476826e+01   1.807875e+01   1.263285e+06   7.968181e+05   1.496837e+06   0.000000e+00   0.000000e+00   0.000000e+00   2.114552e+06   0.000000e+00   0.000000e+00   0.000000e+00
        8000   7.999000e-08   2.010628e-01   1.483201e+01   1.819849e+01   1.263285e+06   7.968181e+05   1.496837e+06   0.000000e+00   0.000000e+00   0.000000e+00   2.114552e+06   0.000000e+00   0.000000e+00   0.000000e+00
       16000   1.599900e-07   3.021255e-01   1.489575e+01   1.831824e+01   1.263285e+06   7.968181e+05   1.496837e+06   0.000000e+00   0.000000e+00   0.000000e+00   2.114552e+06   0.000000e+00   0.000000e+00   0.000000e+00
       24000   2.399900e-07   4.031883e-01   1.495950e+01   1.843799e+01   1.263285e+06   7.968181e+05   1.496837e+06   0.000000e+00   0.000000e+00   0.000000e+00   2.114552e+06   0.000000e+00   0.000000e+00   0.000000e+00
       32000   3.199900e-07   5.042511e-01   1.502324e+01   1.855773e+01   1.263285e+06   7.968181e+05   1.496837e+06   0.000000e+00   0.000000e+00   0.000000e+00   2.114552e+06   0.000000e+00   0.000000e+00   0.000000e+00
       40000   3.999900e-07   6.053139e-01   1.508699e+01   1.867748e+01   1.263285e+06   7.968181e+05   1.496837e+06   0.000000e+00   0.000000e+00   0.000000e+00   2.114552e+06   0.000000e+00   0.000000e+00   0.000000e+00
       48000   4.799900e-07   7.063766e-01   1.515073e+01   1.879723e+01   1.263285e+06   7.968181e+05   1.496837e+06   0.000000e+00   0.000000e+00   0.000000e+00   2.114552e+06   0.000000e+00   0.000000e+00   0.000000e+00
       56000   5.599900e-07   8.074394e-01   1.521448e+01   1.891697e+01   1.263285e+06   7.968181e+05   1.496837e+06   0.000000e+00   0.000000e+00   0.000000e+00   2.114552e+06   0.000000e+00   0.000000e+00   0.000000e+00
       64000   6.399900e-07   9.085022e-01   1.527822e+01   1.903672e+01   1.263285e+06   7.968181e+05   1.496837e+06   0.000000e+00   0.000000e+00   0.000000e+00   2.114552e+06   0.000000e+00   0.000000e+00   0.000000e+00
       72000   7.199900e-07   1.009565e+00   1.534197e+01   1.915647e+01   1.263285e+06   7.968181e+05   1.496837e+06   0.000000e+00   0.000000e+00   0.000000e+00   2.114552e+06   0.000000e+00   0.000000e+00   0.000000e+00
       80000   7.999900e-07   1.110628e+00   1.540571e+01   1.927621e+01   1.263285e+06   7.968181e+05   1.496837e+06   0.000000e+00   0.000000e+00   0.000000e+00   2.114552e+06   0.000000e+00   0.000000e+00   0.000000e+00
       88000   8.799900e-07   1.211690e+00   1.546946e+01   1.939596e+01   1.263285e+06   7.968181e+05   1.496837e+06   0.000000e+00   0.000000e+00   0.000000e+00   2.114552e+06   0.000000e+00   0.000000e+00   0.000000e+00
       96000   9.599900e-07   1.312753e+00   1.553321e+01   1.951571e+01   1.263285e+06   7.968181e+05   1.496837e+06   0.000000e+00   0.000000e+00   0.000000e+00   2.114552e+06   0.000000e+00   0.000000e+00   0.000000e+00
      104000   1.039990e-06   1.413816e+00   1.559695e+01   1.963546e+01   1.263284e+06   7.968194e+05   1.496837e+06  -8.167931e+06   2.041983e+07  -3.976717e+06   2.114552e+06   5.378439e-27   0.000000e+00   0.000000e+00
      112000   1.119990e-06   1.514879e+00   1.566070e+01   1.975520e+01   1.263279e+06   7.968320e+05   1.496835e+06  -1.185237e+08   2.996212e+08  -5.947161e+07   2.114552e+06   1.155942e-24   0.000000e+00   0.000000e+00
      120000   1.199990e-06   1.615940e+00   1.572444e+01   1.987495e+01   1.263270e+06   7.968558e+05   1.496830e+06  -9.391725e+07   2.384675e+08  -4.768837e+07   2.114552e+06   7.320363e-25   0.000000e+00   0.000000e+00
      128000   1.279990e-06   1.717002e+00   1.578819e+01   1.999470e+01   1.263268e+06   7.968595e+05   1.496829e+06  -5.791376e+07   1.478880e+08  -2.985334e+07   2.114552e+06   2.812318e-25   0.000000e+00   0.000000e+00
      136000   1.359990e-06   1.818063e+00   1.585194e+01   2.011444e+01   1.263268e+06   7.968600e+05   1.496829e+06   2.492133e+00  -2.880899e+00  -5.695766e-01   2.114552e+06   1.586236e-40   0.000000e+00   0.000000e+00
      144000   1.439990e-06   1.919125e+00   1.591569e+01   2.023419e+01   1.263268e+06   7.968600e+05   1.496829e+06  -1.065981e+01   1.689908e+01   1.781565e-20   2.114552e+06   4.297057e-39   0.000000e+00   0.000000e+00
      152000   1.519990e-06   2.020186e+00   1.597944e+01   2.035393e+01   1.263268e+06   7.968600e+05   1.496829e+06  -4.070039e+00   6.452263e+00   1.627886e-20   2.114552e+06   6.258252e-40   0.000000e+00   0.000000e+00
      160000   1.599990e-06   2.121248e+00   1.604319e+01   2.047368e+01   1.263268e+06   7.968600e+05   1.496829e+06  -1.758595e+01   2.787914e+01   2.272238e-20   2.114552e+06   1.169437e-38   0.000000e+00   0.000000e+00
      168000   1.679990e-06   2.222309e+00   1.610694e+01   2.059343e+01   1.263268e+06   7.968600e+05   1.496829e+06  -5.408833e+00   8.574663e+00  -3.709631e-20   2.114552e+06   1.107468e-39   0.000000e+00   0.000000e+00
      176000   1.759990e-06   2.323371e+00   1.617069e+01   2.071317e+01   1.263268e+06   7.968600e+05   1.496829e+06   8.456256e-01  -1.340576e+00   3.257651e-21   2.114552e+06   2.667567e-41   0.000000e+00   0.000000e+00
      184000   1.839990e-06   2.424432e+00   1.623443e+01   2.083292e+01   1.263268e+06   7.968600e+05   1.496829e+06  -5.187792e+00   8.224245e+00   3.026894e-20   2.114552e+06   1.017347e-39   0.000000e+00   0.000000e+00
      192000   1.919990e-06   2.525494e+00   1.629818e+01   2.095267e+01   1.263268e+06   7.968600e+05   1.496829e+06   1.020704e+01  -1.618129e+01  -7.948909e-21   2.114552e+06   3.940927e-39   0.000000e+00   0.000000e+00
      200000   1.999990e-06   2.626555e+00   1.636193e+01   2.107241e+01   1.263268e+06   7.968600e+05   1.496829e+06  -1.578818e+01   2.502912e+01   1.489292e-20   2.114552e+06   9.426322e-39   0.000000e+00   0.000000e+00
      208000   2.079990e-06   2.727616e+00   1.642568e+01   2.119216e+01   1.263268e+06   7.968600e+05   1.496829e+06  -9.051053e+00   1.434870e+01  -4.269644e-20   2.114552e+06   3.098916e-39   0.000000e+00   0.000000e+00
      216000   2.159990e-06   2.828678e+00   1.648943e+01   2.131191e+01   1.263268e+06   7.968600e+05   1.496829e+06  -4.854054e+00   7.695168e+00  -2.616831e-21   2.114552e+06   8.937436e-40   0.000000e+00   0.000000e+00
      224000   2.239990e-06   2.929739e+00   1.655318e+01   2.143165e+01   1.263268e+06   7.968600e+05   1.496829e+06  -6.098703e+00   9.668318e+00  -1.268685e-20   2.114552e+06   1.407339e-39   0.000000e+00   0.000000e+00
      232000   2.319990e-06   3.030801e+00   1.661693e+01   2.155140e+01   1.263268e+06   7.968600e+05   1.496829e+06  -1.094285e+01   1.734778e+01  -2.273921e-20   2.114552e+06   4.536908e-39   0.000000e+00   0.000000e+00
      240000   2.399990e-06   3.131862e+00   1.668068e+01   2.167114e+01   1.263268e+06   7.968600e+05   1.496829e+06  -1.639333e+01   2.598847e+01  -2.207638e-20   2.114552e+06   1.016723e-38   0.000000e+00   0.000000e+00
      248000   2.479990e-06   3.232924e+00   1.674443e+01   2.179089e+01   1.263268e+06   7.968600e+05   1.496829e+06   7.746815e+00  -1.228108e+01   1.458842e-20   2.114552e+06   2.267967e-39   0.000000e+00   0.000000e+00
      256000   2.559990e-06   3.333985e+00   1.680817e+01   2.191064e+01   1.263268e+06   7.968600e+05   1.496829e+06  -1.029893e+01   1.632697e+01  -1.011741e-20   2.114552e+06   4.009277e-39   0.000000e+00   0.000000e+00
      264000   2.639990e-06   3.435047e+00   1.687192e+01   2.203038e+01   1.263268e+06   7.968600e+05   1.496829e+06   3.993090e+00  -6.330275e+00  -6.774377e-21   2.114552e+06   6.025916e-40   0.000000e+00   0.000000e+00
      272000   2.719990e-06   3.536108e+00   1.693567e+01   2.215013e+01   1.263268e+06   7.968600e+05   1.496829e+06  -1.268747e+01   2.011354e+01  -5.263945e-21   2.114552e+06   6.089245e-39   0.000000e+00   0.000000e+00
      280000   2.799990e-06   3.637169e+00   1.699942e+01   2.226988e+01   1.263268e+06   7.968600e+05   1.496829e+06   4.291462e+00  -6.803286e+00   1.865652e-20   2.114552e+06   6.953615e-40   0.000000e+00   0.000000e+00
      288000   2.879990e-06   3.738231e+00   1.706317e+01   2.238962e+01   1.263268e+06   7.968600e+05   1.496829e+06   3.182423e+00  -5.045119e+00  -1.124175e-20   2.114552e+06   3.823057e-40   0.000000e+00   0.000000e+00
      296000   2.959990e-06   3.839292e+00   1.712692e+01   2.250937e+01   1.263268e+06   7.968600e+05   1.496829e+06  -1.480915e+01   2.347705e+01  -6.185850e-20   2.114552e+06   8.295743e-39   0.000000e+00   0.000000e+00
      304000   3.039990e-06   3.940354e+00   1.719067e+01   2.262911e+01   1.263268e+06   7.968600e+05   1.496829e+06   4.777767e+00  -7.574229e+00  -3.161871e-20   2.114552e+06   8.633359e-40   0.000000e+00   0.000000e+00
      312000   3.119990e-06   4.041415e+00   1.725442e+01   2.274886e+01   1.263268e+06   7.968600e+05   1.496829e+06  -9.328014e+00   1.478777e+01  -1.844934e-22   2.114552e+06   3.294253e-39   0.000000e+00   0.000000e+00
      320000   3.199990e-06   4.142477e+00   1.731816e+01   2.286861e+01   1.263268e+06   7.968600e+05   1.496829e+06  -3.041049e+00   4.820997e+00  -1.016325e-20   2.114552e+06   3.500274e-40   0.000000e+00   0.000000e+00
      328000   3.279990e-06   4.243538e+00   1.738191e+01   2.298835e+01   1.263268e+06   7.968600e+05   1.496829e+06  -2.314222e+01   3.668754e+01   1.051645e-19   2.114552e+06   2.026452e-38   0.000000e+00   0.000000e+00
      336000   3.359990e-06   4.344600e+00   1.744566e+01   2.310810e+01   1.263268e+06   7.968600e+05   1.496829e+06   3.516908e+00  -5.575381e+00  -1.147419e-20   2.114552e+06   4.664587e-40   0.000000e+00   0.000000e+00
      344000   3.439990e-06   4.445661e+00   1.750941e+01   2.322785e+01   1.263268e+06   7.968600e+05   1.496829e+06  -9.809526e+00   1.555111e+01   9.748979e-21   2.114552e+06   3.642668e-39   0.000000e+00   0.000000e+00
      352000   3.519990e-06   4.546722e+00   1.757316e+01   2.334759e+01   1.263268e+06   7.968600e+05   1.496829e+06   6.201905e+00  -9.831927e+00  -1.184373e-20   2.114552e+06   1.451457e-39   0.000000e+00   0.000000e+00
      360000   3.599990e-06   4.647784e+00   1.763691e+01   2.346734e+01   1.263268e+06   7.968600e+05   1.496829e+06  -1.306671e+00   2.071475e+00   3.798864e-21   2.114552e+06   6.490398e-41   0.000000e+00   0.000000e+00
      368000   3.679990e-06   4.748845e+00   1.770066e+01   2.358709e+01   1.263268e+06   7.968600e+05   1.496829e+06  -2.513818e+01   3.985174e+01   1.479804e-19   2.114552e+06   2.390816e-38   0.000000e+00   0.000000e+00
      376000   3.759990e-06   4.849907e+00   1.776441e+01   2.370683e+01   1.263268e+06   7.968600e+05   1.496829e+06  -2.269316e+01   3.597563e+01  -1.579105e-19   2.114552e+06   1.948153e-38   0.000000e+00   0.000000e+00
      384000   3.839990e-06   4.950968e+00   1.782815e+01   2.382658e+01   1.263268e+06   7.968600e+05   1.496829e+06  -1.537815e+01   2.437909e+01  -7.574876e-20   2.114552e+06   8.945676e-39   0.000000e+00   0.000000e+00
      392000   3.919990e-06   5.052030e+00   1.789190e+01   2.394632e+01   1.263268e+06   7.968600e+05   1.496829e+06  -2.372145e+01   3.760579e+01  -3.807289e-20   2.114552e+06   2.129418e-38   0.000000e+00   0.000000e+00
      400000   3.999990e-06   5.153091e+00   1.795565e+01   2.406607e+01   1.263268e+06   7.968600e+05   1.496829e+06  -3.693088e+01   5.854680e+01  -3.954772e-20   2.114552e+06   5.159344e-38   0.000000e+00   0.000000e+00
      408000   4.079990e-06   5.254153e+00   1.801940e+01   2.418582e+01   1.263268e+06   7.968600e+05   1.496829e+06  -2.040356e+01   3.234591e+01   9.551364e-20   2.114552e+06   1.574775e-38   0.000000e+00   0.000000e+00
      416000   4.159990e-06   5.355214e+00   1.808315e+01   2.430556e+01   1.263268e+06   7.968600e+05   1.496829e+06  -3.497425e+01   5.544495e+01   1.876111e-19   2.114552e+06   4.628246e-38   0.000000e+00   0.000000e+00
      424000   4.239990e-06   5.456276e+00   1.814690e+01   2.442531e+01   1.263268e+06   7.968600e+05   1.496829e+06  -1.580179e+01   2.505069e+01   7.969097e-20   2.114552e+06   9.451588e-39   0.000000e+00   0.000000e+00
      432000   4.319990e-06   5.557337e+00   1.821065e+01   2.454506e+01   1.263268e+06   7.968600e+05   1.496829e+06  -1.707690e+01   2.707214e+01   1.510938e-20   2.114552e+06   1.103066e-38   0.000000e+00   0.000000e+00
      440000   4.399990e-06   5.658398e+00   1.827440e+01   2.466480e+01   1.263268e+06   7.968600e+05   1.496829e+06  -1.269274e+00   2.012190e+00  -3.654606e-21   2.114552e+06   6.147421e-41   0.000000e+00   0.000000e+00
      448000   4.479990e-06   5.759460e+00   1.833815e+01   2.478455e+01   1.263268e+06   7.968600e+05   1.496829e+06  -3.984881e+01   6.317262e+01  -1.979741e-19   2.114552e+06   6.007939e-38   0.000000e+00   0.000000e+00
      456000   4.559990e-06   5.860521e+00   1.840189e+01   2.490430e+01   1.263268e+06   7.968600e+05   1.496829e+06  -1.627283e+01   2.579744e+01  -4.912342e-20   2.114552e+06   1.001635e-38   0.000000e+00   0.000000e+00
      464000   4.639990e-06   5.961583e+00   1.846564e+01   2.502404e+01   1.263268e+06   7.968600e+05   1.496829e+06  -1.880288e+01   2.980835e+01   1.427652e-19   2.114552e+06   1.338423e-38   0.000000e+00   0.000000e+00
      472000   4.719990e-06   6.062644e+00   1.852939e+01   2.514379e+01   1.263268e+06   7.968600e+05   1.496829e+06  -3.090661e+01   4.899647e+01  -8.333485e-20   2.114552e+06   3.614187e-38   0.000000e+00   0.000000e+00
      480000   4.799990e-06   6.163706e+00   1.859314e+01   2.526353e+01   1.263268e+06   7.968600e+05   1.496829e+06   6.338303e-01  -1.004816e+00   1.360217e-22   2.114552e+06   1.490752e-41   0.000000e+00   0.000000e+00
      488000   4.879990e-06   6.264767e+00   1.865689e+01   2.538328e+01   1.263268e+06   7.968600e+05   1.496829e+06  -3.847428e+01   6.099356e+01   2.433359e-19   2.114552e+06   5.601095e-38   0.000000e+00   0.000000e+00
      496000   4.959990e-06   6.365829e+00   1.872064e+01   2.550303e+01   1.263268e+06   7.968600e+05   1.496829e+06  -1.882447e+01   2.984257e+01   1.038736e-19   2.114552e+06   1.342747e-38   0.000000e+00   0.000000e+00
      504000   5.039990e-06   6.466890e+00   1.878439e+01   2.562277e+01   1.263268e+06   7.968600e+05   1.496829e+06  -4.558721e+01   7.226974e+01  -2.679223e-19   2.114552e+06   7.862533e-38   0.000000e+00   0.000000e+00
      512000   5.119990e-06   6.567951e+00   1.884814e+01   2.574252e+01   1.263268e+06   7.968600e+05   1.496829e+06  -4.434823e+01   7.030558e+01  -9.274681e-20   2.114552e+06   7.441077e-38   0.000000e+00   0.000000e+00
      520000   5.199990e-06   6.669013e+00   1.891188e+01   2.586227e+01   1.263268e+06   7.968600e+05   1.496829e+06  -4.551081e+01   7.214863e+01   9.993811e-20   2.114552e+06   7.837244e-38   0.000000e+00   0.000000e+00
      528000   5.279990e-06   6.770074e+00   1.897563e+01   2.598201e+01   1.263268e+06   7.968600e+05   1.496829e+06  -6.743530e+01   1.069057e+02   6.322072e-19   2.114552e+06   1.720533e-37   0.000000e+00   0.000000e+00
      536000   5.359990e-06   6.871136e+00   1.903938e+01   2.610176e+01   1.263268e+06   7.968600e+05   1.496829e+06  -2.079722e+01   3.296999e+01   8.491734e-20   2.114552e+06   1.638056e-38   0.000000e+00   0.000000e+00
      544000   5.439990e-06   6.972197e+00   1.910313e+01   2.622150e+01   1.263268e+06   7.968600e+05   1.496829e+06  -4.715652e+01   7.475759e+01   2.062825e-19   2.114552e+06   8.416028e-38   0.000000e+00   0.000000e+00
      552000   5.519990e-06   7.073259e+00   1.916688e+01   2.634125e+01   1.263268e+06   7.968600e+05   1.496829e+06  -4.842992e+01   7.677632e+01  -2.157847e-21   2.114552e+06   8.874445e-38   0.000000e+00   0.000000e+00
      560000   5.599990e-06   7.174320e+00   1.923063e+01   2.646100e+01   1.263268e+06   7.968600e+05   1.496829e+06  -5.971932e+01   9.467348e+01  -7.932872e-20   2.114552e+06   1.349470e-37   0.000000e+00   0.000000e+00
      568000   5.679990e-06   7.275382e+00   1.929438e+01   2.658074e+01   1.263268e+06   7.968600e+05   1.496829e+06  -5.050547e+01   8.006670e+01  -7.324325e-20   2.114552e+06   9.652867e-38   0.000000e+00   0.000000e+00
      576000   5.759990e-06   7.376443e+00   1.935813e+01   2.670049e+01   1.263268e+06   7.968600e+05   1.496829e+06  -4.670967e+01   7.404919e+01  -8.442948e-20   2.114552e+06   8.256179e-38   0.000000e+00   0.000000e+00
      584000   5.839990e-06   7.477504e+00   1.942187e+01   2.682024e+01   1.263268e+06   7.968600e+05   1.496829e+06  -7.487663e+01   1.187025e+02   1.565848e-19   2.114552e+06   2.121075e-37   0.000000e+00   0.000000e+00
      592000   5.919990e-06   7.578566e+00   1.948562e+01   2.693998e+01   1.263268e+06   7.968600e+05   1.496829e+06  -7.335213e+01   1.162857e+02  -2.200011e-19   2.114552e+06   2.035829e-37   0.000000e+00   0.000000e+00
      600000   5.999990e-06   7.679627e+00   1.954937e+01   2.705973e+01   1.263268e+06   7.968600e+05   1.496829e+06  -1.045768e+02   1.657864e+02   4.971334e-19   2.114552e+06   4.137251e-37   0.000000e+00   0.000000e+00
      608000   6.079990e-06   7.780689e+00   1.961312e+01   2.717948e+01   1.263268e+06   7.968600e+05   1.496829e+06  -2.029601e+01   3.217542e+01  -4.404958e-20   2.114552e+06   1.560144e-38   0.000000e+00   0.000000e+00
      616000   6.159990e-06   7.881750e+00   1.967687e+01   2.729922e+01   1.263268e+06   7.968600e+05   1.496829e+06  -1.278185e+02   2.026316e+02   3.562547e-19   2.114552e+06   6.180961e-37   0.000000e+00   0.000000e+00
      624000   6.239990e-06   7.982812e+00   1.974062e+01   2.741897e+01   1.263268e+06   7.968600e+05   1.496829e+06  -6.770778e+01   1.073376e+02   3.448284e-19   2.114552e+06   1.734368e-37   0.000000e+00   0.000000e+00
      632000   6.319990e-06   8.083873e+00   1.980437e+01   2.753871e+01   1.263268e+06   7.968600e+05   1.496829e+06  -8.011167e+01   1.270016e+02   1.693120e-19   2.114552e+06   2.428112e-37   0.000000e+00   0.000000e+00
      640000   6.399990e-06   8.184935e+00   1.986812e+01   2.765846e+01   1.263268e+06   7.968600e+05   1.496829e+06  -9.843788e+01   1.560543e+02  -1.462041e-20   2.114552e+06   3.666472e-37   0.000000e+00   0.000000e+00
      648000   6.479990e-06   8.285996e+00   1.993187e+01   2.777821e+01   1.263268e+06   7.968600e+05   1.496829e+06  -4.094582e+01   6.491170e+01  -1.041686e-20   2.114552e+06   6.347456e-38   0.000000e+00   0.000000e+00
      656000   6.559990e-06   8.387057e+00   1.999561e+01   2.789795e+01   1.263268e+06   7.968600e+05   1.496829e+06  -1.085044e+02   1.720129e+02   1.439518e-19   2.114552e+06   4.454587e-37   0.000000e+00   0.000000e+00
      664000   6.639990e-06   8.488119e+00   2.005936e+01   2.801770e+01   1.263268e+06   7.968600e+05   1.496829e+06  -1.264551e+02   2.004703e+02   1.484200e-19   2.114552e+06   6.049815e-37   0.000000e+00   0.000000e+00
      672000   6.719990e-06   8.589180e+00   2.012311e+01   2.813745e+01   1.263268e+06   7.968600e+05   1.496829e+06  -8.788673e+01   1.393275e+02  -2.723367e-19   2.114552e+06   2.922705e-37   0.000000e+00   0.000000e+00
      680000   6.799990e-06   8.690242e+00   2.018686e+01   2.825719e+01   1.263268e+06   7.968600e+05   1.496829e+06  -1.614336e+02   2.559219e+02   3.804978e-19   2.114552e+06   9.859914e-37   0.000000e+00   0.000000e+00
      688000   6.879990e-06   8.791303e+00   2.025061e+01   2.837694e+01   1.263268e+06   7.968600e+05   1.496829e+06  -3.388682e+01   5.372102e+01   2.513863e-19   2.114552e+06   4.348672e-38   0.000000e+00   0.000000e+00
      696000   6.959990e-06   8.892365e+00   2.031436e+01   2.849668e+01   1.263268e+06   7.968600e+05   1.496829e+06  -1.237640e+02   1.962039e+02  -1.807473e-19   2.114552e+06   5.796099e-37   0.000000e+00   0.000000e+00
      704000   7.039990e-06   8.993426e+00   2.037811e+01   2.861643e+01   1.263268e+06   7.968600e+05   1.496829e+06  -5.870299e+01   9.306229e+01  -4.828451e-20   2.114552e+06   1.304304e-37   0.000000e+00   0.000000e+00
      712000   7.119990e-06   9.094488e+00   2.044186e+01   2.873618e+01   1.263268e+06   7.968600e+05   1.496829e+06  -1.198139e+02   1.899419e+02  -7.001997e-20   2.114552e+06   5.431832e-37   0.000000e+00   0.000000e+00
      720000   7.199990e-06   9.195549e+00   2.050560e+01   2.885592e+01   1.263268e+06   7.968600e+05   1.496829e+06  -1.089926e+02   1.727868e+02  -7.248733e-19   2.114552e+06   4.495466e-37   0.000000e+00   0.000000e+00
      728000   7.279990e-06   9.296611e+00   2.056935e+01   2.897567e+01   1.263268e+06   7.968600e+05   1.496829e+06  -7.998124e+01   1.267949e+02  -2.959832e-19   2.114552e+06   2.421148e-37   0.000000e+00   0.000000e+00
      736000   7.359990e-06   9.397672e+00   2.063310e+01   2.909542e+01   1.263268e+06   7.968600e+05   1.496829e+06  -1.121358e+02   1.777697e+02   1.600302e-19   2.114552e+06   4.758553e-37   0.000000e+00   0.000000e+00
      744000   7.439990e-06   9.498733e+00   2.069685e+01   2.921516e+01   1.263268e+06   7.968600e+05   1.496829e+06  -8.516593e+01   1.350142e+02   2.413104e-19   2.114552e+06   2.744775e-37   0.000000e+00   0.000000e+00
      752000   7.519990e-06   9.599795e+00   2.076060e+01   2.933491e+01   1.263268e+06   7.968600e+05   1.496829e+06  -1.611369e+02   2.554515e+02   3.266191e-19   2.114552e+06   9.825530e-37   0.000000e+00   0.000000e+00
      760000   7.599990e-06   9.700856e+00   2.082435e+01   2.945466e+01   1.263268e+06   7.968600e+05   1.496829e+06  -1.564499e+02   2.480212e+02  -5.513756e-19   2.114552e+06   9.261739e-37   0.000000e+00   0.000000e+00
      768000   7.679990e-06   9.801918e+00   2.088810e+01   2.957440e+01   1.263268e+06   7.968600e+05   1.496829e+06  -1.616797e+02   2.563121e+02   3.432089e-19   2.114552e+06   9.891222e-37   0.000000e+00   0.000000e+00
      776000   7.759990e-06   9.902979e+00   2.095185e+01   2.969415e+01   1.263268e+06   7.968600e+05   1.496829e+06  -1.967942e+02   3.115355e+02   2.362602e-01   2.114552e+06   1.462297e-36   0.000000e+00   0.000000e+00
      784000   7.839990e-06   1.000404e+01   2.101559e+01   2.981389e+01   1.263268e+06   7.968600e+05   1.496829e+06  -1.564835e+02   2.074215e+02   2.164219e+01   2.114552e+06   7.321103e-37   0.000000e+00   0.000000e+00
      792000   7.919990e-06   1.010510e+01   2.107934e+01   2.993364e+01   1.263268e+06   7.968600e+05   1.496829e+06  -1.643587e+02   2.574060e+02   1.678601e+00   2.114552e+06   1.004940e-36   0.000000e+00   0.000000e+00
      800000   7.999990e-06   1.020616e+01   2.114309e+01   3.005339e+01   1.263268e+06   7.968600e+05   1.496829e+06  -1.796333e+02   3.045268e+02  -1.051565e+01   2.114552e+06   1.347595e-36   0.000000e+00   0.000000e+00
      808000   8.079990e-06   1.030722e+01   2.120684e+01   3.017313e+01   1.263268e+06   7.968600e+05   1.496829e+06  -1.661029e+02   2.623782e+02   5.036401e-01   2.114552e+06   1.038541e-36   0.000000e+00   0.000000e+00
      816000   8.159990e-06   1.040829e+01   2.127059e+01   3.029288e+01   1.263268e+06   7.968600e+05   1.496829e+06  -2.546646e+02   4.037217e+02   1.273871e-18   2.114552e+06   2.454067e-36   0.000000e+00   0.000000e+00
      824000   8.239990e-06   1.050935e+01   2.133434e+01   3.041263e+01   1.263268e+06   7.968600e+05   1.496829e+06  -1.964205e+02   3.113868e+02   3.712294e-19   2.114552e+06   1.459972e-36   0.000000e+00   0.000000e+00
      832000   8.319990e-06   1.061041e+01   2.139809e+01   3.053237e+01   1.263268e+06   7.968600e+05   1.496829e+06  -2.301824e+02   3.649098e+02   1.045633e-18   2.114552e+06   2.004926e-36   0.000000e+00   0.000000e+00
      840000   8.399990e-06   1.071147e+01   2.146184e+01   3.065212e+01   1.263268e+06   7.968600e+05   1.496829e+06  -2.211148e+02   3.505349e+02   2.083945e-18   2.114552e+06   1.850078e-36   0.000000e+00   0.000000e+00
      848000   8.479990e-06   1.081253e+01   2.152559e+01   3.077187e+01   1.263268e+06   7.968600e+05   1.496829e+06  -2.325964e+02   3.687368e+02  -3.118788e-20   2.114552e+06   2.047032e-36   0.000000e+00   0.000000e+00
      856000   8.559990e-06   1.091359e+01   2.158933e+01   3.089161e+01   1.263268e+06   7.968600e+05   1.496829e+06  -2.627951e+02   4.166110e+02  -5.406359e-19   2.114552e+06   2.613254e-36   0.000000e+00   0.000000e+00
      864000   8.639990e-06   1.101466e+01   2.165308e+01   3.101136e+01   1.263268e+06   7.968600e+05   1.496829e+06  -2.882409e+02   4.569505e+02   6.697651e-19   2.114552e+06   3.143739e-36   0.000000e+00   0.000000e+00
      872000   8.719990e-06   1.111572e+01   2.171683e+01   3.113110e+01   1.263268e+06   7.968600e+05   1.496829e+06  -2.619451e+02   4.152635e+02  -4.887041e-19   2.114552e+06   2.596419e-36   0.000000e+00   0.000000e+00
      880000   8.799990e-06   1.121678e+01   2.178058e+01   3.125085e+01   1.263268e+06   7.968600e+05   1.496829e+06  -3.360222e+02   5.326985e+02  -9.306108e-20   2.114552e+06   4.272203e-36   0.000000e+00   0.000000e+00
      888000   8.879990e-06   1.131784e+01   2.184433e+01   3.137060e+01   1.263268e+06   7.968600e+05   1.496829e+06  -2.725904e+02   4.321396e+02   1.521184e-18   2.114552e+06   2.811887e-36   0.000000e+00   0.000000e+00
      896000   8.959990e-06   1.141890e+01   2.190808e+01   3.149034e+01   1.263268e+06   7.968600e+05   1.496829e+06  -3.353779e+02   5.316770e+02   5.292945e-19   2.114552e+06   4.256631e-36   0.000000e+00   0.000000e+00
      904000   9.039990e-06   1.151996e+01   2.197183e+01   3.161009e+01   1.263268e+06   7.968600e+05   1.496829e+06  -2.865002e+02   4.541910e+02   1.728965e-18   2.114552e+06   3.106247e-36   0.000000e+00   0.000000e+00
      912000   9.119990e-06   1.162102e+01   2.203558e+01   3.172984e+01   1.263268e+06   7.968600e+05   1.496829e+06  -3.468265e+02   5.498267e+02  -6.016860e-20   2.114552e+06   4.551660e-36   0.000000e+00   0.000000e+00
      920000   9.199990e-06   1.172209e+01   2.209932e+01   3.184958e+01   1.263268e+06   7.968600e+05   1.496829e+06  -3.074560e+02   4.874122e+02   2.955119e-19   2.114552e+06   3.577488e-36   0.000000e+00   0.000000e+00
      928000   9.279990e-06   1.182315e+01   2.216307e+01   3.196933e+01   1.263268e+06   7.968600e+05   1.496829e+06  -3.782593e+02   5.996573e+02   2.240727e-18   2.114552e+06   5.414336e-36   0.000000e+00   0.000000e+00
      936000   9.359990e-06   1.192421e+01   2.222682e+01   3.208907e+01   1.263268e+06   7.968600e+05   1.496829e+06  -3.896594e+02   6.177299e+02  -8.873801e-19   2.114552e+06   5.745907e-36   0.000000e+00   0.000000e+00
      944000   9.439990e-06   1.202527e+01   2.229057e+01   3.220882e+01   1.263268e+06   7.968600e+05   1.496829e+06  -4.182048e+02   6.629832e+02  -9.929484e-19   2.114552e+06   6.618040e-36   0.000000e+00   0.000000e+00
      952000   9.519990e-06   1.212633e+01   2.235432e+01   3.232857e+01   1.263268e+06   7.968600e+05   1.496829e+06  -4.449614e+02   7.054006e+02  -9.169709e-19   2.114552e+06   7.491999e-36   0.000000e+00   0.000000e+00
      960000   9.599990e-06   1.222739e+01   2.241807e+01   3.244831e+01   1.263268e+06   7.968600e+05   1.496829e+06  -4.538219e+02   7.194472e+02  -3.379835e-18   2.114552e+06   7.793437e-36   0.000000e+00   0.000000e+00
      968000   9.679990e-06   1.232845e+01   2.248182e+01   3.256806e+01   1.263268e+06   7.968600e+05   1.496829e+06  -4.843169e+02   7.677912e+02   5.756272e-19   2.114552e+06   8.876064e-36   0.000000e+00   0.000000e+00
      976000   9.759990e-06   1.242952e+01   2.254557e+01   3.268781e+01   1.263268e+06   7.968600e+05   1.496829e+06  -5.030201e+02   7.974415e+02   1.288603e-18   2.114552e+06   9.574665e-36   0.000000e+00   0.000000e+00
      984000   9.839990e-06   1.253058e+01   2.260931e+01   3.280755e+01   1.263268e+06   7.968600e+05   1.496829e+06  -5.062918e+02   8.026282e+02   1.311029e-19   2.114552e+06   9.699360e-36   0.000000e+00   0.000000e+00
      992000   9.919990e-06   1.263164e+01   2.267306e+01   3.292730e+01   1.263268e+06   7.968600e+05   1.496829e+06  -5.592454e+02   8.865759e+02   8.757689e-19   2.114552e+06   1.183447e-35   0.000000e+00   0.000000e+00
     1000000   9.999990e-06   1.273270e+01   2.273681e+01   3.304705e+01   1.263268e+06   7.968600e+05   1.496829e+06  -5.792749e+02   9.183287e+02   6.898625e-19   2.114552e+06   1.269789e-35   0.000000e+00   0.000000e+00
     1008000   1.007999e-05   1.283376e+01   2.280056e+01   3.316679e+01   1.263268e+06   7.968600e+05   1.496829e+06  -6.159333e+02   9.764436e+02  -4.199051e-19   2.114552e+06   1.435591e-35   0.000000e+00   0.000000e+00
     1016000   1.015999e-05   1.293482e+01   2.286431e+01   3.328654e+01   1.263268e+06   7.968600e+05   1.496829e+06  -5.954672e+02   9.439986e+02   2.292928e-18   2.114552e+06   1.341828e-35   0.000000e+00   0.000000e+00
     1024000   1.023999e-05   1.303588e+01   2.292806e+01   3.340628e+01   1.263268e+06   7.968600e+05   1.496829e+06  -6.632490e+02   1.051454e+03  -1.595530e-18   2.114552e+06   1.664578e-35   0.000000e+00   0.000000e+00
     1032000   1.031999e-05   1.313695e+01   2.299181e+01   3.352603e+01   1.263268e+06   7.968600e+05   1.496829e+06  -7.284088e+02   1.154752e+03  -3.377503e-18   2.114552e+06   2.007704e-35   0.000000e+00   0.000000e+00
     1040000   1.039999e-05   1.323801e+01   2.305556e+01   3.364578e+01   1.263268e+06   7.968600e+05   1.496829e+06  -7.172841e+02   1.137116e+03   5.344770e-18   2.114552e+06   1.946934e-35   0.000000e+00   0.000000e+00
     1048000   1.047999e-05   1.333907e+01   2.311931e+01   3.376552e+01   1.263268e+06   7.968600e+05   1.496829e+06  -7.883923e+02   1.249844e+03  -2.260235e-18   2.114552e+06   2.351954e-35   0.000000e+00   0.000000e+00
     1056000   1.055999e-05   1.344013e+01   2.318305e+01   3.388527e+01   1.263268e+06   7.968600e+05   1.496829e+06  -7.699759e+02   1.220648e+03   2.326699e-18   2.114552e+06   2.243511e-35   0.000000e+00   0.000000e+00
     1064000   1.063999e-05   1.354119e+01   2.324680e+01   3.400502e+01   1.263268e+06   7.968600e+05   1.496829e+06  -8.607296e+02   1.364521e+03  -2.914963e-18   2.114552e+06   2.803374e-35   0.000000e+00   0.000000e+00
     1072000   1.071999e-05   1.364225e+01   2.331055e+01   3.412476e+01   1.263268e+06   7.968600e+05   1.496829e+06  -9.110187e+02   1.444245e+03  -2.583454e-18   2.114552e+06   3.140588e-35   0.000000e+00   0.000000e+00
     1080000   1.079999e-05   1.374331e+01   2.337430e+01   3.424451e+01   1.263268e+06   7.968600e+05   1.496829e+06  -9.397703e+02   1.489825e+03  -1.289072e-18   2.114552e+06   3.341971e-35   0.000000e+00   0.000000e+00
     1088000   1.087999e-05   1.384438e+01   2.343805e+01   3.436425e+01   1.263268e+06   7.968600e+05   1.496829e+06  -9.969843e+02   1.580527e+03  -2.477079e-18   2.114552e+06   3.761165e-35   0.000000e+00   0.000000e+00
     1096000   1.095999e-05   1.394544e+01   2.350180e+01   3.448400e+01   1.263268e+06   7.968600e+05   1.496829e+06  -1.057105e+03   1.675836e+03   4.506948e-19   2.114552e+06   4.228518e-35   0.000000e+00   0.000000e+00
     1104000   1.103999e-05   1.404650e+01   2.356555e+01   3.460375e+01   1.263268e+06   7.968600e+05   1.496829e+06  -1.092948e+03   1.732658e+03  -2.186399e-19   2.114552e+06   4.520147e-35   0.000000e+00   0.000000e+00
     1112000   1.111999e-05   1.414756e+01   2.362930e+01   3.472349e+01   1.263268e+06   7.968600e+05   1.496829e+06  -1.149708e+03   1.822640e+03  -2.631044e-18   2.114552e+06   5.001934e-35   0.000000e+00   0.000000e+00
     1120000   1.119999e-05   1.424862e+01   2.369304e+01   3.484324e+01   1.263268e+06   7.968600e+05   1.496829e+06  -1.269894e+03   2.013172e+03  -9.983030e-18   2.114552e+06   6.102166e-35   0.000000e+00   0.000000e+00
     1128000   1.127999e-05   1.434968e+01   2.375679e+01   3.496299e+01   1.263268e+06   7.968600e+05   1.496829e+06  -1.259832e+03   1.997222e+03   6.946362e-18   2.114552e+06   6.005947e-35   0.000000e+00   0.000000e+00
     1136000   1.135999e-05   1.445074e+01   2.382054e+01   3.508273e+01   1.263268e+06   7.968600e+05   1.496829e+06  -1.382432e+03   2.191580e+03   4.622029e-18   2.114552e+06   7.231656e-35   0.000000e+00   0.000000e+00
     1144000   1.143999e-05   1.455181e+01   2.388429e+01   3.520248e+01   1.263268e+06   7.968600e+05   1.496829e+06  -1.377354e+03   2.183530e+03   7.947993e-19   2.114552e+06   7.178890e-35   0.000000e+00   0.000000e+00
     1152000   1.151999e-05   1.465287e+01   2.394804e+01   3.532223e+01   1.263268e+06   7.968600e+05   1.496829e+06  -1.462745e+03   2.318900e+03   3.276684e-18   2.114552e+06   8.096507e-35   0.000000e+00   0.000000e+00
     1160000   1.159999e-05   1.475393e+01   2.401179e+01   3.544197e+01   1.263268e+06   7.968600e+05   1.496829e+06  -1.553287e+03   2.462438e+03   3.440482e-18   2.114552e+06   9.129832e-35   0.000000e+00   0.000000e+00
     1168000   1.167999e-05   1.485499e+01   2.407554e+01   3.556172e+01   1.263268e+06   7.968600e+05   1.496829e+06  -1.601456e+03   2.538801e+03  -6.336971e-18   2.114552e+06   9.704853e-35   0.000000e+00   0.000000e+00
     1176000   1.175999e-05   1.495605e+01   2.413929e+01   3.568146e+01   1.263268e+06   7.968600e+05   1.496829e+06  -1.745878e+03   2.767754e+03   1.487962e-18   2.114552e+06   1.153407e-34   0.000000e+00   0.000000e+00
     1184000   1.183999e-05   1.505711e+01   2.420304e+01   3.580121e+01   1.263268e+06   7.968600e+05   1.496829e+06  -1.793929e+03   2.843929e+03  -2.227581e-18   2.114552e+06   1.217779e-34   0.000000e+00   0.000000e+00
     1192000   1.191999e-05   1.515817e+01   2.426678e+01   3.592096e+01   1.263268e+06   7.968600e+05   1.496829e+06  -1.895698e+03   3.005264e+03   8.998864e-18   2.114552e+06   1.359867e-34   0.000000e+00   0.000000e+00
     1200000   1.199999e-05   1.525924e+01   2.433053e+01   3.604070e+01   1.263268e+06   7.968600e+05   1.496829e+06  -2.009714e+03   3.186014e+03  -9.543105e-18   2.114552e+06   1.528356e-34   0.000000e+00   0.000000e+00
     1208000   1.207999e-05   1.536030e+01   2.439428e+01   3.616045e+01   1.263268e+06   7.968600e+05   1.496829e+06  -2.040535e+03   3.234876e+03  -1.887503e-17   2.114552e+06   1.575608e-34   0.000000e+00   0.000000e+00
     1216000   1.215999e-05   1.546136e+01   2.445803e+01   3.628020e+01   1.263268e+06   7.968600e+05   1.496829e+06  -2.181304e+03   3.458038e+03  -1.329813e-17   2.114552e+06   1.800493e-34   0.000000e+00   0.000000e+00
     1224000   1.223999e-05   1.556242e+01   2.452178e+01   3.639994e+01   1.263268e+06   7.968600e+05   1.496829e+06  -2.304665e+03   3.653602e+03  -7.770609e-18   2.114552e+06   2.009881e-34   0.000000e+00   0.000000e+00
     1232000   1.231999e-05   1.566348e+01   2.458553e+01   3.651969e+01   1.263268e+06   7.968600e+05   1.496829e+06  -2.366064e+03   3.750938e+03  -5.212677e-19   2.114552e+06   2.118429e-34   0.000000e+00   0.000000e+00
     1240000   1.239999e-05   1.576454e+01   2.464928e+01   3.663944e+01   1.263268e+06   7.968600e+05   1.496829e+06  -2.579693e+03   4.089607e+03   4.635312e-19   2.114552e+06   2.518192e-34   0.000000e+00   0.000000e+00
     1248000   1.247999e-05   1.586560e+01   2.471303e+01   3.675918e+01   1.263268e+06   7.968600e+05   1.496829e+06  -2.659119e+03   4.215521e+03   3.459422e-18   2.114552e+06   2.675646e-34   0.000000e+00   0.000000e+00
     1256000   1.255999e-05   1.596667e+01   2.477677e+01   3.687893e+01   1.263268e+06   7.968600e+05   1.496829e+06  -2.812770e+03   4.459104e+03   5.782172e-18   2.114552e+06   2.993808e-34   0.000000e+00   0.000000e+00
     1264000   1.263999e-05   1.606773e+01   2.484052e+01   3.699867e+01   1.263268e+06   7.968600e+05   1.496829e+06  -2.902207e+03   4.600890e+03   8.004865e-18   2.114552e+06   3.187234e-34   0.000000e+00   0.000000e+00
     1272000   1.271999e-05   1.616879e+01   2.490427e+01   3.711842e+01   1.263268e+06   7.968600e+05   1.496829e+06  -3.079257e+03   4.881569e+03  -1.638562e-17   2.114552e+06   3.587956e-34   0.000000e+00   0.000000e+00
     1280000   1.279999e-05   1.626985e+01   2.496802e+01   3.723817e+01   1.263268e+06   7.968600e+05   1.496829e+06  -3.192833e+03   5.061622e+03   9.329031e-18   2.114552e+06   3.857531e-34   0.000000e+00   0.000000e+00
     1288000   1.287999e-05   1.637091e+01   2.503177e+01   3.735791e+01   1.263268e+06   7.968600e+05   1.496829e+06  -3.378415e+03   5.355826e+03   5.423416e-18   2.114552e+06   4.318989e-34   0.000000e+00   0.000000e+00
     1296000   1.295999e-05   1.647197e+01   2.509552e+01   3.747766e+01   1.263268e+06   7.968600e+05   1.496829e+06  -3.561821e+03   5.646581e+03   7.102312e-18   2.114552e+06   4.800630e-34   0.000000e+00   0.000000e+00
     1304000   1.303999e-05   1.657303e+01   2.515927e+01   3.759741e+01   1.263268e+06   7.968600e+05   1.496829e+06  -3.693452e+03   5.855256e+03   3.049121e-18   2.114552e+06   5.162012e-34   0.000000e+00   0.000000e+00
     1312000   1.311999e-05   1.667410e+01   2.522302e+01   3.771715e+01   1.263268e+06   7.968600e+05   1.496829e+06  -3.792133e+03   6.011696e+03   1.472289e-17   2.114552e+06   5.441647e-34   0.000000e+00   0.000000e+00
     1320000   1.319999e-05   1.677516e+01   2.528676e+01   3.783690e+01   1.263268e+06   7.968600e+05   1.496829e+06  -4.031833e+03   6.391694e+03  -6.773917e-18   2.114552e+06   6.151221e-34   0.000000e+00   0.000000e+00
     1328000   1.327999e-05   1.687622e+01   2.535051e+01   3.795664e+01   1.263268e+06   7.968600e+05   1.496829e+06  -4.127393e+03   6.543186e+03  -1.159116e-18   2.114552e+06   6.446298e-34   0.000000e+00   0.000000e+00
     1336000   1.335999e-05   1.697728e+01   2.541426e+01   3.807639e+01   1.263268e+06   7.968600e+05   1.496829e+06  -4.283668e+03   6.790931e+03  -6.596198e-18   2.114552e+06   6.943734e-34   0.000000e+00   0.000000e+00
     1344000   1.343999e-05   1.707834e+01   2.547801e+01   3.819614e+01   1.263268e+06   7.968600e+05   1.496829e+06  -4.460514e+03   7.071286e+03   7.384817e-18   2.114552e+06   7.528848e-34   0.000000e+00   0.000000e+00
     1352000   1.351999e-05   1.717940e+01   2.554176e+01   3.831588e+01   1.263268e+06   7.968600e+05   1.496829e+06  -4.670506e+03   7.404188e+03  -4.775041e-18   2.114552e+06   8.254383e-34   0.000000e+00   0.000000e+00
     1360000   1.359999e-05   1.728046e+01   2.560551e+01   3.843563e+01   1.263268e+06   7.968600e+05   1.496829e+06  -4.839657e+03   7.672345e+03  -2.249859e-17   2.114552e+06   8.863099e-34   0.000000e+00   0.000000e+00
     1368000   1.367999e-05   1.738153e+01   2.566926e+01   3.855538e+01   1.263268e+06   7.968600e+05   1.496829e+06  -5.081543e+03   8.055807e+03  -1.919937e-17   2.114552e+06   9.771171e-34   0.000000e+00   0.000000e+00
     1376000   1.375999e-05   1.748259e+01   2.573301e+01   3.867512e+01   1.263268e+06   7.968600e+05   1.496829e+06  -5.144809e+03   8.156103e+03   1.426922e-17   2.114552e+06   1.001608e-33   0.000000e+00   0.000000e+00
     1384000   1.383999e-05   1.758365e+01   2.579676e+01   3.879487e+01   1.263268e+06   7.968600e+05   1.496829e+06  -5.372171e+03   8.516543e+03  -2.675391e-18   2.114552e+06   1.092086e-33   0.000000e+00   0.000000e+00
     1392000   1.391999e-05   1.768471e+01   2.586050e+01   3.891462e+01   1.263268e+06   7.968600e+05   1.496829e+06  -5.447607e+03   8.636131e+03  -1.057993e-17   2.114552e+06   1.122976e-33   0.000000e+00   0.000000e+00
     1400000   1.399999e-05   1.778577e+01   2.592425e+01   3.903436e+01   1.263268e+06   7.968600e+05   1.496829e+06  -5.662008e+03   8.976023e+03   1.780847e-17   2.114552e+06   1.213101e-33   0.000000e+00   0.000000e+00
     1408000   1.407999e-05   1.788683e+01   2.598800e+01   3.915411e+01   1.263268e+06   7.968600e+05   1.496829e+06  -5.722125e+03   9.071327e+03  -1.714939e-17   2.114552e+06   1.239008e-33   0.000000e+00   0.000000e+00
     1416000   1.415999e-05   1.798789e+01   2.605175e+01   3.927385e+01   1.263268e+06   7.968600e+05   1.496829e+06  -5.957474e+03   9.444428e+03  -1.472501e-17   2.114552e+06   1.343010e-33   0.000000e+00   0.000000e+00
     1424000   1.423999e-05   1.808896e+01   2.611550e+01   3.939360e+01   1.263268e+06   7.968600e+05   1.496829e+06  -5.917803e+03   9.381537e+03   2.921464e-17   2.114552e+06   1.325194e-33   0.000000e+00   0.000000e+00
     1432000   1.431999e-05   1.819002e+01   2.617925e+01   3.951335e+01   1.263268e+06   7.968600e+05   1.496829e+06  -5.946798e+03   9.427503e+03  -2.659717e-17   2.114552e+06   1.338223e-33   0.000000e+00   0.000000e+00
     1440000   1.439999e-05   1.829108e+01   2.624300e+01   3.963309e+01   1.263268e+06   7.968600e+05   1.496829e+06  -6.026217e+03   9.553407e+03  -1.020698e-17   2.114552e+06   1.374195e-33   0.000000e+00   0.000000e+00
     1448000   1.447999e-05   1.839214e+01   2.630675e+01   3.975284e+01   1.263268e+06   7.968600e+05   1.496829e+06  -5.930110e+03   9.401047e+03   2.316934e-18   2.114552e+06   1.330724e-33   0.000000e+00   0.000000e+00
     1456000   1.455999e-05   1.849320e+01   2.637049e+01   3.987259e+01   1.263268e+06   7.968600e+05   1.496829e+06  -5.969633e+03   9.463703e+03  -1.974204e-17   2.114552e+06   1.348519e-33   0.000000e+00   0.000000e+00
     1464000   1.463999e-05   1.859426e+01   2.643424e+01   3.999233e+01   1.263268e+06   7.968600e+05   1.496829e+06  -5.876965e+03   9.316796e+03   6.255030e-17   2.114552e+06   1.306974e-33   0.000000e+00   0.000000e+00
     1472000   1.471999e-05   1.869533e+01   2.649799e+01   4.011208e+01   1.263268e+06   7.968600e+05   1.496829e+06  -5.578778e+03   8.844077e+03   1.355972e-18   2.114552e+06   1.177725e-33   0.000000e+00   0.000000e+00
     1480000   1.479999e-05   1.879639e+01   2.656174e+01   4.023183e+01   1.263268e+06   7.968600e+05   1.496829e+06  -5.473122e+03   8.676581e+03  -1.170743e-17   2.114552e+06   1.133531e-33   0.000000e+00   0.000000e+00
     1488000   1.487999e-05   1.889745e+01   2.662549e+01   4.035157e+01   1.263268e+06   7.968600e+05   1.496829e+06  -5.184888e+03   8.219641e+03   7.656125e-18   2.114552e+06   1.017285e-33   0.000000e+00   0.000000e+00
     1496000   1.495999e-05   1.899851e+01   2.668924e+01   4.047132e+01   1.263268e+06   7.968600e+05   1.496829e+06  -4.827058e+03   7.652371e+03  -3.277613e-17   2.114552e+06   8.817235e-34   0.000000e+00   0.000000e+00
     1504000   1.503999e-05   1.909957e+01   2.675299e+01   4.059106e+01   1.263268e+06   7.968600e+05   1.496829e+06  -4.275085e+03   6.777324e+03  -1.290409e-17   2.114552e+06   6.916131e-34   0.000000e+00   0.000000e+00
     1512000   1.511999e-05   1.920063e+01   2.681674e+01   4.071081e+01   1.263268e+06   7.968600e+05   1.496829e+06  -3.657270e+03   5.797897e+03  -9.213231e-18   2.114552e+06   5.061677e-34   0.000000e+00   0.000000e+00
     1520000   1.519999e-05   1.930169e+01   2.688048e+01   4.083056e+01   1.263268e+06   7.968600e+05   1.496829e+06  -2.988429e+03   4.737578e+03  -7.161648e-18   2.114552e+06   3.379657e-34   0.000000e+00   0.000000e+00
     1528000   1.527999e-05   1.940276e+01   2.694423e+01   4.095030e+01   1.263268e+06   7.968600e+05   1.496829e+06  -2.197932e+03   3.484397e+03  -5.638069e-18   2.114552e+06   1.828236e-34   0.000000e+00   0.000000e+00
     1536000   1.535999e-05   1.950382e+01   2.700798e+01   4.107005e+01   1.263268e+06   7.968600e+05   1.496829e+06  -1.232030e+03   1.953146e+03  -7.679227e-18   2.114552e+06   5.744705e-35   0.000000e+00   0.000000e+00
     1544000   1.543999e-05   1.960488e+01   2.707173e+01   4.118980e+01   1.263268e+06   7.968600e+05   1.496829e+06  -2.093247e+02   3.318440e+02   1.824044e-18   2.114552e+06   1.660296e-36   0.000000e+00   0.000000e+00
     1552000   1.551999e-05   1.970594e+01   2.713548e+01   4.130954e+01   1.263268e+06   7.968600e+05   1.496829e+06   9.183733e+02  -1.455904e+03   6.947424e-19   2.114552e+06   3.190205e-35   0.000000e+00   0.000000e+00
     1560000   1.559999e-05   1.980700e+01   2.719923e+01   4.142929e+01   1.263268e+06   7.968600e+05   1.496829e+06   2.213740e+03  -3.509458e+03  -4.260352e-18   2.114552e+06   1.854182e-34   0.000000e+00   0.000000e+00
     1568000   1.567999e-05   1.990806e+01   2.726298e+01   4.154903e+01   1.263268e+06   7.968600e+05   1.496829e+06   3.756676e+03  -5.955486e+03  -4.176391e-18   2.114552e+06   5.339781e-34   0.000000e+00   0.000000e+00
     1576000   1.575999e-05   2.000912e+01   2.732673e+01   4.166878e+01   1.263268e+06   7.968600e+05   1.496829e+06   5.330684e+03  -8.450773e+03   8.071862e-18   2.114552e+06   1.075208e-33   0.000000e+00   0.000000e+00
     1584000   1.583999e-05   2.011019e+01   2.739048e+01   4.178853e+01   1.263268e+06   7.968600e+05   1.496829e+06   7.183693e+03  -1.138836e+04  -3.383995e-17   2.114552e+06   1.952658e-33   0.000000e+00   0.000000e+00
     1592000   1.591999e-05   2.021124e+01   2.745423e+01   4.190827e+01   1.263162e+06   7.970287e+05   1.496829e+06  -5.113471e+09   8.104026e+09  -8.704921e-11   2.114552e+06   9.889466e-22   0.000000e+00   0.000000e+00
     1600000   1.599999e-05   2.031228e+01   2.751802e+01   4.202802e+01   1.262608e+06   7.979050e+05   1.496829e+06  -2.039573e+10   3.227432e+10  -1.052539e-09   2.114552e+06   1.567558e-20   0.000000e+00   0.000000e+00
     1608000   1.607999e-05   2.041312e+01   2.758211e+01   4.214777e+01   1.258353e+06   8.045989e+05   1.496829e+06  -5.769698e+10   9.023540e+10  -6.967309e-09   2.114552e+06   1.235919e-19   0.000000e+00   0.000000e+00
     1616000   1.615999e-05   2.051366e+01   2.764668e+01   4.226751e+01   1.255134e+06   8.096115e+05   1.496829e+06  -6.844655e+10   1.061123e+11  -1.018018e-08   2.114552e+06   1.716853e-19   0.000000e+00   0.000000e+00
     1624000   1.623999e-05   2.061392e+01   2.771168e+01   4.238726e+01   1.252689e+06   8.133895e+05   1.496829e+06   1.284111e+10  -1.977639e+10  -3.299853e-10   2.114552e+06   5.977301e-21   0.000000e+00   0.000000e+00
     1632000   1.631999e-05   2.071398e+01   2.777700e+01   4.250701e+01   1.247776e+06   8.209064e+05   1.496829e+06  -4.740132e+10   7.205000e+10  -4.545083e-09   2.114552e+06   8.003310e-20   0.000000e+00   0.000000e+00
     1640000   1.639999e-05   2.081366e+01   2.784288e+01   4.262675e+01   1.245235e+06   8.247555e+05   1.496829e+06  -1.828815e+10   2.761189e+10  -6.099546e-10   2.114552e+06   1.182714e-20   0.000000e+00   0.000000e+00
     1648000   1.647999e-05   2.091326e+01   2.790889e+01   4.274650e+01   1.243806e+06   8.269096e+05   1.496829e+06  -6.921804e+10   1.041153e+11  -1.013189e-08   2.114552e+06   1.684551e-19   0.000000e+00   0.000000e+00
     1656000   1.655999e-05   2.101267e+01   2.797519e+01   4.286624e+01   1.241873e+06   8.298094e+05   1.496829e+06  -2.748480e+10   4.113313e+10  -1.519405e-09   2.114552e+06   2.638668e-20   0.000000e+00   0.000000e+00
     1664000   1.663999e-05   2.111194e+01   2.804168e+01   4.298599e+01   1.240068e+06   8.325048e+05   1.496829e+06  -7.179977e+10   1.069504e+11  -1.060450e-08   2.114552e+06   1.786579e-19   0.000000e+00   0.000000e+00
     1672000   1.671999e-05   2.121107e+01   2.810841e+01   4.310574e+01   1.239253e+06   8.337176e+05   1.496829e+06  -7.737754e+06   1.150154e+07   8.415556e-16   2.114552e+06   2.131129e-28   0.000000e+00   0.000000e+00
     1680000   1.679999e-05   2.131013e+01   2.817522e+01   4.322548e+01   1.237343e+06   8.365495e+05   1.496829e+06   1.515684e+09  -2.241853e+09   2.848571e-13   2.114552e+06   7.894764e-23   0.000000e+00   0.000000e+00
     1688000   1.687999e-05   2.140912e+01   2.824213e+01   4.334523e+01   1.237425e+06   8.364273e+05   1.496829e+06   7.459510e+09  -1.103573e+10  -1.205545e-10   2.114552e+06   1.911130e-21   0.000000e+00   0.000000e+00
     1696000   1.695999e-05   2.150814e+01   2.830901e+01   4.346498e+01   1.238022e+06   8.355442e+05   1.496829e+06   7.451632e+09  -1.104105e+10  -1.298798e-10   2.114552e+06   1.911129e-21   0.000000e+00   0.000000e+00
     1704000   1.703999e-05   2.160721e+01   2.837582e+01   4.358472e+01   1.238618e+06   8.346607e+05   1.496829e+06   7.443756e+09  -1.104636e+10  -9.812551e-11   2.114552e+06   1.911130e-21   0.000000e+00   0.000000e+00
     1712000   1.711999e-05   2.170632e+01   2.844256e+01   4.370447e+01   1.239144e+06   8.338797e+05   1.496829e+06   7.436790e+09  -1.105105e+10  -1.306822e-10   2.114552e+06   1.911130e-21   0.000000e+00   0.000000e+00
     1720000   1.719999e-05   2.180548e+01   2.850923e+01   4.382421e+01   1.239733e+06   8.330039e+05   1.496829e+06   7.428977e+09  -1.105630e+10  -9.847495e-11   2.114552e+06   1.911129e-21   0.000000e+00   0.000000e+00
     1728000   1.727999e-05   2.190468e+01   2.857584e+01   4.394396e+01   1.240327e+06   8.321191e+05   1.496829e+06   7.421088e+09  -1.106160e+10  -8.763109e-11   2.114552e+06   1.911130e-21   0.000000e+00   0.000000e+00
     1736000   1.735999e-05   2.200393e+01   2.864237e+01   4.406371e+01   1.240920e+06   8.312340e+05   1.496829e+06   7.413193e+09  -1.106689e+10  -6.775443e-11   2.114552e+06   1.911129e-21   0.000000e+00   0.000000e+00
     1744000   1.743999e-05   2.210322e+01   2.870884e+01   4.418345e+01   1.241510e+06   8.303518e+05   1.496829e+06   7.405329e+09  -1.107216e+10  -8.489090e-11   2.114552e+06   1.911131e-21   0.000000e+00   0.000000e+00
     1752000   1.751999e-05   2.220257e+01   2.877523e+01   4.430320e+01   1.242103e+06   8.294658e+05   1.496829e+06   7.397425e+09  -1.107744e+10  -1.348582e-10   2.114552e+06   1.911129e-21   0.000000e+00   0.000000e+00
     1760000   1.759999e-05   2.230196e+01   2.884155e+01   4.442295e+01   1.242694e+06   8.285794e+05   1.496829e+06   7.389518e+09  -1.108271e+10  -1.076197e-10   2.114552e+06   1.911129e-21   0.000000e+00   0.000000e+00
     1768000   1.767999e-05   2.240140e+01   2.890780e+01   4.454269e+01   1.243285e+06   8.276926e+05   1.496829e+06   7.381612e+09  -1.108799e+10  -9.297766e-11   2.114552e+06   1.911130e-21   0.000000e+00   0.000000e+00
     1776000   1.775999e-05   2.250089e+01   2.897398e+01   4.466244e+01   1.243875e+06   8.268054e+05   1.496829e+06   7.373700e+09  -1.109325e+10  -8.931919e-11   2.114552e+06   1.911131e-21   0.000000e+00   0.000000e+00
     1784000   1.783999e-05   2.260042e+01   2.904009e+01   4.478219e+01   1.244378e+06   8.260479e+05   1.496829e+06   7.366944e+09  -1.109774e+10  -7.910117e-11   2.114552e+06   1.911130e-21   0.000000e+00   0.000000e+00
     1792000   1.791999e-05   2.269999e+01   2.910614e+01   4.490193e+01   1.244965e+06   8.251633e+05   1.496829e+06   5.397455e+09  -8.143408e+09  -5.431719e-11   2.114552e+06   1.029080e-21   0.000000e+00   0.000000e+00
     1800000   1.799999e-05   2.279961e+01   2.917212e+01   4.502168e+01   1.245553e+06   8.242749e+05   1.496829e+06   7.351126e+09  -1.110821e+10  -1.187871e-10   2.114552e+06   1.911127e-21   0.000000e+00   0.000000e+00
     1808000   1.807999e-05   2.289928e+01   2.923803e+01   4.514142e+01   1.246128e+06   8.234060e+05   1.496829e+06   7.343387e+09  -1.111335e+10  -1.592133e-10   2.114552e+06   1.911132e-21   0.000000e+00   0.000000e+00
     1816000   1.815999e-05   2.299898e+01   2.930388e+01   4.526117e+01   1.246489e+06   8.228587e+05   1.496829e+06  -1.968679e+07   2.982210e+07  -4.932070e-14   2.114552e+06   7.798553e-27   0.000000e+00   0.000000e+00
     1824000   1.823999e-05   2.309871e+01   2.936970e+01   4.538092e+01   1.246242e+06   8.232338e+05   1.496829e+06  -1.517830e+10   2.297749e+10  -4.372783e-10   2.114552e+06   8.165341e-21   0.000000e+00   0.000000e+00
     1832000   1.831999e-05   2.319842e+01   2.943555e+01   4.550066e+01   1.246604e+06   8.226856e+05   1.496829e+06  -1.397204e+10   2.117165e+10  -4.706643e-10   2.114552e+06   6.924423e-21   0.000000e+00   0.000000e+00
     1840000   1.839999e-05   2.329816e+01   2.950133e+01   4.562041e+01   1.246800e+06   8.223879e+05   1.496829e+06   1.287173e+10  -1.951447e+10  -2.944274e-10   2.114552e+06   5.880960e-21   0.000000e+00   0.000000e+00
     1848000   1.847999e-05   2.339786e+01   2.956719e+01   4.574016e+01   1.245692e+06   8.240657e+05   1.496829e+06  -2.205438e+09   3.333831e+09  -1.017978e-11   2.114552e+06   1.722692e-22   0.000000e+00   0.000000e+00
     1856000   1.855999e-05   2.349742e+01   2.963326e+01   4.585990e+01   1.243282e+06   8.276963e+05   1.496829e+06  -2.871220e+10   4.312862e+10  -1.871939e-09   2.114552e+06   2.891210e-20   0.000000e+00   0.000000e+00
     1864000   1.863999e-05   2.359676e+01   2.969966e+01   4.597965e+01   1.238589e+06   8.347035e+05   1.496829e+06  -1.193421e+11   1.770883e+11  -2.858252e-08   2.114552e+06   4.910777e-19   0.000000e+00   0.000000e+00
     1872000   1.871999e-05   2.369571e+01   2.976664e+01   4.609940e+01   1.236499e+06   8.377964e+05   1.496829e+06   2.483270e+10  -3.665042e+10  -1.323414e-09   2.114552e+06   2.108784e-20   0.000000e+00   0.000000e+00
     1880000   1.879999e-05   2.379454e+01   2.983380e+01   4.621914e+01   1.234687e+06   8.404636e+05   1.496829e+06  -5.590693e+10   8.213048e+10  -6.025543e-09   2.114552e+06   1.062734e-19   0.000000e+00   0.000000e+00
     1888000   1.887999e-05   2.389323e+01   2.990116e+01   4.633889e+01   1.231244e+06   8.454996e+05   1.496829e+06   1.173194e+10  -1.708444e+10  -2.808079e-10   2.114552e+06   4.616585e-21   0.000000e+00   0.000000e+00
     1896000   1.895999e-05   2.399161e+01   2.996897e+01   4.645863e+01   1.229441e+06   8.481203e+05   1.496829e+06   4.304013e+10  -6.239118e+10  -3.696744e-09   2.114552e+06   6.183202e-20   0.000000e+00   0.000000e+00
     1904000   1.903999e-05   2.408981e+01   3.003704e+01   4.657838e+01   1.224830e+06   8.547657e+05   1.496829e+06  -1.019832e+11   1.461364e+11  -1.963117e-08   2.114552e+06   3.419500e-19   0.000000e+00   0.000000e+00
     1912000   1.911999e-05   2.418760e+01   3.010570e+01   4.669813e+01   1.219347e+06   8.625695e+05   1.496829e+06  -8.736746e+10   1.235048e+11  -1.371509e-08   2.114552e+06   2.464755e-19   0.000000e+00   0.000000e+00
     1920000   1.919999e-05   2.428502e+01   3.017490e+01   4.681787e+01   1.216124e+06   8.671073e+05   1.496829e+06   1.604327e+10  -2.250078e+10  -5.171360e-10   2.114552e+06   8.211420e-21   0.000000e+00   0.000000e+00
     1928000   1.927999e-05   2.438230e+01   3.024428e+01   4.693762e+01   1.215773e+06   8.675993e+05   1.496829e+06  -1.259657e+10   1.765167e+10  -3.399773e-10   2.114552e+06   5.062863e-21   0.000000e+00   0.000000e+00
     1936000   1.935999e-05   2.447955e+01   3.031370e+01   4.705737e+01   1.215593e+06   8.678508e+05   1.496829e+06  -2.126261e+04   2.978242e+04   5.029466e-17   2.114552e+06   1.442345e-32   0.000000e+00   0.000000e+00
     1944000   1.943999e-05   2.457680e+01   3.038313e+01   4.717711e+01   1.215593e+06   8.678508e+05   1.496829e+06  -2.075717e+04   2.907444e+04   2.106075e-17   2.114552e+06   1.374593e-32   0.000000e+00   0.000000e+00
     1952000   1.951999e-05   2.467404e+01   3.045256e+01   4.729686e+01   1.215593e+06   8.678508e+05   1.496829e+06  -2.007406e+04   2.811762e+04   1.462715e-17   2.114552e+06   1.285611e-32   0.000000e+00   0.000000e+00
     1960000   1.959999e-05   2.477129e+01   3.052199e+01   4.741660e+01   1.215593e+06   8.678508e+05   1.496829e+06  -1.926668e+04   2.698672e+04   4.222920e-17   2.114552e+06   1.184278e-32   0.000000e+00   0.000000e+00
     1968000   1.967999e-05   2.486854e+01   3.059141e+01   4.753635e+01   1.215593e+06   8.678508e+05   1.496829e+06  -1.836348e+04   2.572162e+04   3.247543e-17   2.114552e+06   1.075850e-32   0.000000e+00   0.000000e+00
     1976000   1.975999e-05   2.496579e+01   3.066084e+01   4.765610e+01   1.215593e+06   8.678508e+05   1.496829e+06  -1.750306e+04   2.451643e+04   6.195750e-17   2.114552e+06   9.773947e-33   0.000000e+00   0.000000e+00
     1984000   1.983999e-05   2.506303e+01   3.073027e+01   4.777584e+01   1.215593e+06   8.678508e+05   1.496829e+06  -1.665645e+04   2.333058e+04  -2.907827e-17   2.114552e+06   8.851283e-33   0.000000e+00   0.000000e+00
     1992000   1.991999e-05   2.516028e+01   3.079970e+01   4.789559e+01   1.215593e+06   8.678508e+05   1.496829e+06  -1.569248e+04   2.198036e+04   1.985975e-16   2.114552e+06   7.856437e-33   0.000000e+00   0.000000e+00
     2000000   1.999999e-05   2.525753e+01   3.086913e+01   4.801534e+01   1.215593e+06   8.678508e+05   1.496829e+06  -1.465981e+04   2.053391e+04   4.272792e-17   2.114552e+06   6.856474e-33   0.000000e+00   0.000000e+00
     2008000   2.007999e-05   2.535478e+01   3.093855e+01   4.813508e+01   1.215593e+06   8.678508e+05   1.496829e+06  -1.378669e+04   1.931093e+04  -6.097361e-17   2.114552e+06   6.064043e-33   0.000000e+00   0.000000e+00
     2016000   2.015999e-05   2.545202e+01   3.100798e+01   4.825483e+01   1.215593e+06   8.678508e+05   1.496829e+06  -1.278916e+04   1.791370e+04  -2.884894e-17   2.114552e+06   5.218283e-33   0.000000e+00   0.000000e+00
     2024000   2.023999e-05   2.554927e+01   3.107741e+01   4.837458e+01   1.215593e+06   8.678508e+05   1.496829e+06  -1.186217e+04   1.661527e+04  -1.236856e-17   2.114552e+06   4.489250e-33   0.000000e+00   0.000000e+00
     2032000   2.031999e-05   2.564652e+01   3.114684e+01   4.849432e+01   1.215593e+06   8.678508e+05   1.496829e+06  -1.093472e+04   1.531620e+04   4.040050e-18   2.114552e+06   3.814710e-33   0.000000e+00   0.000000e+00
     2040000   2.039999e-05   2.574377e+01   3.121627e+01   4.861407e+01   1.215593e+06   8.678508e+05   1.496829e+06  -1.013017e+04   1.418927e+04  -4.583048e-17   2.114552e+06   3.274011e-33   0.000000e+00   0.000000e+00
     2048000   2.047999e-05   2.584101e+01   3.128569e+01   4.873381e+01   1.215593e+06   8.678508e+05   1.496829e+06  -9.206565e+03   1.289558e+04   2.418691e-17   2.114552e+06   2.704226e-33   0.000000e+00   0.000000e+00
     2056000   2.055999e-05   2.593826e+01   3.135512e+01   4.885356e+01   1.215593e+06   8.678508e+05   1.496829e+06  -8.438781e+03   1.182015e+04   5.144379e-18   2.114552e+06   2.272004e-33   0.000000e+00   0.000000e+00
     2064000   2.063999e-05   2.603551e+01   3.142455e+01   4.897331e+01   1.215593e+06   8.678508e+05   1.496829e+06  -7.795704e+03   1.091940e+04   1.024871e-17   2.114552e+06   1.938905e-33   0.000000e+00   0.000000e+00
     2072000   2.071999e-05   2.613276e+01   3.149398e+01   4.909305e+01   1.215593e+06   8.678508e+05   1.496829e+06  -7.054515e+03   9.881216e+03  -1.308273e-17   2.114552e+06   1.587744e-33   0.000000e+00   0.000000e+00
     2080000   2.079999e-05   2.623000e+01   3.156341e+01   4.921280e+01   1.215593e+06   8.678508e+05   1.496829e+06  -6.344586e+03   8.886823e+03   2.499005e-17   2.114552e+06   1.284262e-33   0.000000e+00   0.000000e+00
     2088000   2.087999e-05   2.632725e+01   3.163283e+01   4.933255e+01   1.215593e+06   8.678508e+05   1.496829e+06  -5.823274e+03   8.156624e+03  -1.519414e-17   2.114552e+06   1.081885e-33   0.000000e+00   0.000000e+00
     2096000   2.095999e-05   2.642450e+01   3.170226e+01   4.945229e+01   1.215593e+06   8.678508e+05   1.496829e+06  -5.250469e+03   7.354299e+03   2.669249e-18   2.114552e+06   8.795271e-34   0.000000e+00   0.000000e+00
     2104000   2.103999e-05   2.652175e+01   3.177169e+01   4.957204e+01   1.215592e+06   8.678510e+05   1.496830e+06  -4.728306e+03   6.622904e+03  -1.117997e-17   2.114552e+06   7.132685e-34   0.000000e+00   0.000000e+00
     2112000   2.111999e-05   2.661899e+01   3.184112e+01   4.969179e+01   1.215573e+06   8.678557e+05   1.496843e+06  -8.799951e+08   2.169778e+08   5.888346e+08   2.114552e+06   1.257825e-23   0.000000e+00   0.000000e+00
     2120000   2.119999e-05   2.671624e+01   3.191055e+01   4.981153e+01   1.215534e+06   8.678656e+05   1.496869e+06  -9.539568e+08   2.472210e+08   6.313262e+08   2.114552e+06   1.475944e-23   0.000000e+00   0.000000e+00
     2128000   2.127999e-05   2.681348e+01   3.197998e+01   4.993128e+01   1.215512e+06   8.678717e+05   1.496883e+06   0.000000e+00   0.000000e+00   0.000000e+00   2.114552e+06   0.000000e+00   0.000000e+00   0.000000e+00
