     timestep     time              x             y              z              vx             vy             vz             ax             ay             az         v_magnitude      ELoss        Electronic      Nuclear
           0   0.000000e+00   1.000000e-01   1.234466e+01   1.963815e+01   1.026685e+06   2.843350e+05   1.826582e+06   0.000000e+00   0.000000e+00   0.000000e+00   2.114552e+06   0.000000e+00   0.000000e+00   0.000000e+00
        8000   7.999000e-08   1.821345e-01   1.236741e+01   1.978428e+01   1.026679e+06   2.843468e+05   1.826583e+06  -5.111018e+07   1.008176e+08   1.303338e+07   2.114552e+06   1.394597e-25   0.000000e+00   0.000000e+00
       16000   1.599900e-07   2.642684e-01   1.239015e+01   1.993041e+01   1.026671e+06   2.843629e+05   1.826586e+06   3.370710e+07  -6.295234e+07  -9.145359e+06   2.114552e+06   5.572718e-26   0.000000e+00   0.000000e+00
       24000   2.399900e-07   3.464023e-01   1.241290e+01   2.007653e+01   1.026674e+06   2.843574e+05   1.826585e+06   2.401623e+01  -6.544958e+01  -3.309868e+00   2.114552e+06   5.244961e-38   0.000000e+00   0.000000e+00
       32000   3.199900e-07   4.285361e-01   1.243565e+01   2.022266e+01   1.026674e+06   2.843574e+05   1.826585e+06   1.985444e+00  -7.168452e+00  -4.274536e-21   2.114552e+06   5.969301e-40   0.000000e+00   0.000000e+00
       40000   3.999900e-07   5.106700e-01   1.245840e+01   2.036879e+01   1.026674e+06   2.843574e+05   1.826585e+06   4.133087e+00  -1.492253e+01   3.379478e-21   2.114552e+06   2.582849e-39   0.000000e+00   0.000000e+00
       48000   4.799900e-07   5.928039e-01   1.248115e+01   2.051491e+01   1.026674e+06   2.843574e+05   1.826585e+06   3.172218e+00  -1.145331e+01  -1.138124e-20   2.114552e+06   1.521573e-39   0.000000e+00   0.000000e+00
       56000   5.599900e-07   6.749378e-01   1.250390e+01   2.066104e+01   1.026674e+06   2.843574e+05   1.826585e+06   1.087254e+00  -3.925536e+00  -2.870089e-22   2.114552e+06   1.791446e-40   0.000000e+00   0.000000e+00
       64000   6.399900e-07   7.570717e-01   1.252665e+01   2.080717e+01   1.026674e+06   2.843574e+05   1.826585e+06   1.220681e+00  -4.407274e+00   1.015449e-21   2.114552e+06   2.252312e-40   0.000000e+00   0.000000e+00
       72000   7.199900e-07   8.392056e-01   1.254939e+01   2.095329e+01   1.026674e+06   2.843574e+05   1.826585e+06   6.605086e+00  -2.384769e+01   4.293560e-20   2.114552e+06   6.593088e-39   0.000000e+00   0.000000e+00
       80000   7.999900e-07   9.213394e-01   1.257214e+01   2.109942e+01   1.026674e+06   2.843574e+05   1.826585e+06   1.117723e+01  -4.035544e+01  -1.951759e-20   2.114552e+06   1.888385e-38   0.000000e+00   0.000000e+00
       88000   8.799900e-07   1.003473e+00   1.259489e+01   2.124555e+01   1.026674e+06   2.843574e+05   1.826585e+06   1.551976e+00  -5.603415e+00  -1.119261e-20   2.114552e+06   3.647745e-40   0.000000e+00   0.000000e+00
       96000   9.599900e-07   1.085607e+00   1.261764e+01   2.139167e+01   1.026674e+06   2.843574e+05   1.826585e+06   1.358815e+01  -4.906007e+01  -6.407354e-20   2.114552e+06   2.790273e-38   0.000000e+00   0.000000e+00
      104000   1.039990e-06   1.167741e+00   1.264039e+01   2.153780e+01   1.026674e+06   2.843574e+05   1.826585e+06   1.097482e+01  -3.962464e+01  -5.056461e-21   2.114552e+06   1.820698e-38   0.000000e+00   0.000000e+00
      112000   1.119990e-06   1.249875e+00   1.266314e+01   2.168393e+01   1.026674e+06   2.843574e+05   1.826585e+06   1.043725e+01  -3.768374e+01   4.280353e-21   2.114552e+06   1.646566e-38   0.000000e+00   0.000000e+00
      120000   1.199990e-06   1.332009e+00   1.268589e+01   2.183005e+01   1.026674e+06   2.843574e+05   1.826585e+06   9.327232e+00  -3.367601e+01  -1.715394e-20   2.114552e+06   1.314592e-38   0.000000e+00   0.000000e+00
      128000   1.279990e-06   1.414143e+00   1.270863e+01   2.197618e+01   1.026674e+06   2.843574e+05   1.826585e+06   6.261658e+00  -2.260774e+01   1.348455e-20   2.114552e+06   5.928731e-39   0.000000e+00   0.000000e+00
      136000   1.359990e-06   1.496277e+00   1.273138e+01   2.212231e+01   1.026674e+06   2.843574e+05   1.826585e+06   1.953324e+00  -7.052482e+00   8.388412e-22   2.114552e+06   5.772007e-40   0.000000e+00   0.000000e+00
      144000   1.439990e-06   1.578410e+00   1.275413e+01   2.226843e+01   1.026674e+06   2.843574e+05   1.826585e+06   1.176028e+01  -4.246053e+01   2.685469e-20   2.114552e+06   2.090461e-38   0.000000e+00   0.000000e+00
      152000   1.519990e-06   1.660544e+00   1.277688e+01   2.241456e+01   1.026674e+06   2.843574e+05   1.826585e+06  -8.683953e-01   3.135344e+00  -2.718856e-21   2.114552e+06   1.134114e-40   0.000000e+00   0.000000e+00
      160000   1.599990e-06   1.742678e+00   1.279963e+01   2.256069e+01   1.026674e+06   2.843574e+05   1.826585e+06  -2.486080e+00   8.976000e+00  -2.698914e-21   2.114552e+06   9.345044e-40   0.000000e+00   0.000000e+00
      168000   1.679990e-06   1.824812e+00   1.282238e+01   2.270681e+01   1.026674e+06   2.843574e+05   1.826585e+06   8.734312e+00  -3.153527e+01  -4.006980e-21   2.114552e+06   1.153230e-38   0.000000e+00   0.000000e+00
      176000   1.759990e-06   1.906946e+00   1.284513e+01   2.285294e+01   1.026674e+06   2.843574e+05   1.826585e+06   9.606293e+00  -3.468356e+01   5.779010e-21   2.114552e+06   1.396103e-38   0.000000e+00   0.000000e+00
      184000   1.839990e-06   1.989080e+00   1.286787e+01   2.299907e+01   1.026674e+06   2.843574e+05   1.826585e+06   2.907663e+00  -1.049813e+01  -2.257799e-21   2.114552e+06   1.278184e-39   0.000000e+00   0.000000e+00
      192000   1.919990e-06   2.071214e+00   1.289062e+01   2.314519e+01   1.026674e+06   2.843574e+05   1.826585e+06   5.794640e+00  -2.092157e+01  -1.109258e-20   2.114552e+06   5.074754e-39   0.000000e+00   0.000000e+00
      200000   1.999990e-06   2.153348e+00   1.291337e+01   2.329132e+01   1.026674e+06   2.843574e+05   1.826585e+06   1.311659e+01  -4.735751e+01   1.805341e-20   2.114552e+06   2.600307e-38   0.000000e+00   0.000000e+00
      208000   2.079990e-06   2.235482e+00   1.293612e+01   2.343745e+01   1.026674e+06   2.843574e+05   1.826585e+06   4.826658e+00  -1.742667e+01  -2.015687e-21   2.114552e+06   3.524767e-39   0.000000e+00   0.000000e+00
      216000   2.159990e-06   2.317615e+00   1.295887e+01   2.358357e+01   1.026674e+06   2.843574e+05   1.826585e+06   1.096384e+01  -3.958498e+01  -3.219659e-20   2.114552e+06   1.816686e-38   0.000000e+00   0.000000e+00
      224000   2.239990e-06   2.399749e+00   1.298162e+01   2.372970e+01   1.026674e+06   2.843574e+05   1.826585e+06   1.568415e+01  -5.662768e+01   2.136756e-20   2.114552e+06   3.718078e-38   0.000000e+00   0.000000e+00
      232000   2.319990e-06   2.481883e+00   1.300437e+01   2.387583e+01   1.026674e+06   2.843574e+05   1.826585e+06   5.743278e+00  -2.073613e+01   2.495453e-20   2.114552e+06   4.988088e-39   0.000000e+00   0.000000e+00
      240000   2.399990e-06   2.564017e+00   1.302711e+01   2.402196e+01   1.026674e+06   2.843574e+05   1.826585e+06   6.279489e+00  -2.267212e+01   4.328188e-20   2.114552e+06   5.963317e-39   0.000000e+00   0.000000e+00
      248000   2.479990e-06   2.646151e+00   1.304986e+01   2.416808e+01   1.026674e+06   2.843574e+05   1.826585e+06  -3.486142e+00   1.258673e+01   1.872241e-20   2.114552e+06   1.834472e-39   0.000000e+00   0.000000e+00
      256000   2.559990e-06   2.728285e+00   1.307261e+01   2.431421e+01   1.026674e+06   2.843574e+05   1.826585e+06   6.832907e+00  -2.467024e+01  -2.003910e-20   2.114552e+06   7.055469e-39   0.000000e+00   0.000000e+00
      264000   2.639990e-06   2.810419e+00   1.309536e+01   2.446034e+01   1.026674e+06   2.843574e+05   1.826585e+06   8.386402e+00  -3.027914e+01  -1.019535e-20   2.114552e+06   1.063316e-38   0.000000e+00   0.000000e+00
      272000   2.719990e-06   2.892553e+00   1.311811e+01   2.460646e+01   1.026674e+06   2.843574e+05   1.826585e+06   1.683573e+00  -6.078545e+00  -2.859575e-21   2.114552e+06   4.289018e-40   0.000000e+00   0.000000e+00
      280000   2.799990e-06   2.974686e+00   1.314086e+01   2.475259e+01   1.026674e+06   2.843574e+05   1.826585e+06   1.029365e+01  -3.716525e+01   6.162690e-20   2.114552e+06   1.601887e-38   0.000000e+00   0.000000e+00
      288000   2.879990e-06   3.056820e+00   1.316361e+01   2.489872e+01   1.026674e+06   2.843574e+05   1.826585e+06   7.545081e+00  -2.724155e+01  -3.126964e-20   2.114552e+06   8.606088e-39   0.000000e+00   0.000000e+00
      296000   2.959990e-06   3.138954e+00   1.318635e+01   2.504484e+01   1.026674e+06   2.843574e+05   1.826585e+06   6.676001e-01  -2.410373e+00  -4.077146e-22   2.114552e+06   6.749724e-41   0.000000e+00   0.000000e+00
      304000   3.039990e-06   3.221088e+00   1.320910e+01   2.519097e+01   1.026674e+06   2.843574e+05   1.826585e+06   6.162407e+00  -2.224939e+01  -3.401909e-20   2.114552e+06   5.743881e-39   0.000000e+00   0.000000e+00
      312000   3.119990e-06   3.303222e+00   1.323185e+01   2.533710e+01   1.026674e+06   2.843574e+05   1.826585e+06   5.855926e+00  -2.114284e+01   1.268629e-20   2.114552e+06   5.183367e-39   0.000000e+00   0.000000e+00
      320000   3.199990e-06   3.385356e+00   1.325460e+01   2.548322e+01   1.026674e+06   2.843574e+05   1.826585e+06   4.748210e+00  -1.714343e+01  -1.891560e-20   2.114552e+06   3.409290e-39   0.000000e+00   0.000000e+00
      328000   3.279990e-06   3.467490e+00   1.327735e+01   2.562935e+01   1.026674e+06   2.843574e+05   1.826585e+06   2.626826e+00  -9.484164e+00   1.291551e-20   2.114552e+06   1.043964e-39   0.000000e+00   0.000000e+00
      336000   3.359990e-06   3.549624e+00   1.330010e+01   2.577548e+01   1.026674e+06   2.843574e+05   1.826585e+06   1.059758e+01  -3.826262e+01  -1.655953e-20   2.114552e+06   1.697740e-38   0.000000e+00   0.000000e+00
      344000   3.439990e-06   3.631758e+00   1.332285e+01   2.592160e+01   1.026674e+06   2.843574e+05   1.826585e+06   7.986740e+00  -2.883616e+01   3.859497e-20   2.114552e+06   9.643263e-39   0.000000e+00   0.000000e+00
      352000   3.519990e-06   3.713891e+00   1.334559e+01   2.606773e+01   1.026674e+06   2.843574e+05   1.826585e+06   9.966083e+00  -3.598258e+01  -1.867755e-20   2.114552e+06   1.500905e-38   0.000000e+00   0.000000e+00
      360000   3.599990e-06   3.796025e+00   1.336834e+01   2.621386e+01   1.026674e+06   2.843574e+05   1.826585e+06   1.808551e+01  -6.529779e+01   1.263610e-19   2.114552e+06   4.943687e-38   0.000000e+00   0.000000e+00
      368000   3.679990e-06   3.878159e+00   1.339109e+01   2.635998e+01   1.026674e+06   2.843574e+05   1.826585e+06   7.985468e+00  -2.883156e+01  -2.381028e-21   2.114552e+06   9.641564e-39   0.000000e+00   0.000000e+00
      376000   3.759990e-06   3.960293e+00   1.341384e+01   2.650611e+01   1.026674e+06   2.843574e+05   1.826585e+06   4.761788e+00  -1.719245e+01   6.130613e-21   2.114552e+06   3.430082e-39   0.000000e+00   0.000000e+00
      384000   3.839990e-06   4.042427e+00   1.343659e+01   2.665224e+01   1.026674e+06   2.843574e+05   1.826585e+06   3.056111e+00  -1.103410e+01   6.693066e-21   2.114552e+06   1.414253e-39   0.000000e+00   0.000000e+00
      392000   3.919990e-06   4.124561e+00   1.345934e+01   2.679836e+01   1.026674e+06   2.843574e+05   1.826585e+06   1.336726e+01  -4.826253e+01   3.939405e-21   2.114552e+06   2.701042e-38   0.000000e+00   0.000000e+00
      400000   3.999990e-06   4.206695e+00   1.348209e+01   2.694449e+01   1.026674e+06   2.843574e+05   1.826585e+06   8.684149e+00  -3.135415e+01  -4.361246e-20   2.114552e+06   1.139959e-38   0.000000e+00   0.000000e+00
      408000   4.079990e-06   4.288829e+00   1.350484e+01   2.709062e+01   1.026674e+06   2.843574e+05   1.826585e+06   3.575172e+00  -1.290817e+01   5.537586e-23   2.114552e+06   1.934124e-39   0.000000e+00   0.000000e+00
      416000   4.159990e-06   4.370962e+00   1.352758e+01   2.723674e+01   1.026674e+06   2.843574e+05   1.826585e+06   1.232607e+01  -4.450332e+01  -1.064958e-20   2.114552e+06   2.296688e-38   0.000000e+00   0.000000e+00
      424000   4.239990e-06   4.453096e+00   1.355033e+01   2.738287e+01   1.026674e+06   2.843574e+05   1.826585e+06   1.101274e+01  -3.976153e+01   8.363877e-21   2.114552e+06   1.833500e-38   0.000000e+00   0.000000e+00
      432000   4.319990e-06   4.535230e+00   1.357308e+01   2.752900e+01   1.026674e+06   2.843574e+05   1.826585e+06   1.262209e+01  -4.557210e+01  -6.214337e-20   2.114552e+06   2.408161e-38   0.000000e+00   0.000000e+00
      440000   4.399990e-06   4.617364e+00   1.359583e+01   2.767512e+01   1.026674e+06   2.843574e+05   1.826585e+06   5.623942e+00  -2.030526e+01  -2.887907e-20   2.114552e+06   4.783548e-39   0.000000e+00   0.000000e+00
      448000   4.479990e-06   4.699498e+00   1.361858e+01   2.782125e+01   1.026674e+06   2.843574e+05   1.826585e+06   1.254277e+01  -4.528571e+01  -2.765157e-21   2.114552e+06   2.377977e-38   0.000000e+00   0.000000e+00
      456000   4.559990e-06   4.781632e+00   1.364133e+01   2.796738e+01   1.026674e+06   2.843574e+05   1.826585e+06   8.577061e+00  -3.096751e+01   1.068462e-20   2.114552e+06   1.112182e-38   0.000000e+00   0.000000e+00
      464000   4.639990e-06   4.863766e+00   1.366408e+01   2.811351e+01   1.026674e+06   2.843574e+05   1.826585e+06   1.185172e+01  -4.279069e+01  -2.690629e-20   2.114552e+06   2.123257e-38   0.000000e+00   0.000000e+00
      472000   4.719990e-06   4.945900e+00   1.368682e+01   2.825963e+01   1.026674e+06   2.843574e+05   1.826585e+06   1.076560e+01  -3.886924e+01  -6.605305e-20   2.114552e+06   1.752406e-38   0.000000e+00   0.000000e+00
      480000   4.799990e-06   5.028034e+00   1.370957e+01   2.840576e+01   1.026674e+06   2.843574e+05   1.826585e+06   4.329409e+00  -1.563135e+01  -5.454887e-21   2.114552e+06   2.831010e-39   0.000000e+00   0.000000e+00
      488000   4.879990e-06   5.110167e+00   1.373232e+01   2.855189e+01   1.026674e+06   2.843574e+05   1.826585e+06   9.761025e+00  -3.524222e+01   2.345867e-20   2.114552e+06   1.440634e-38   0.000000e+00   0.000000e+00
      496000   4.959990e-06   5.192301e+00   1.375507e+01   2.869801e+01   1.026674e+06   2.843574e+05   1.826585e+06   3.292371e+01  -1.188712e+02  -5.212467e-20   2.114552e+06   1.638468e-37   0.000000e+00   0.000000e+00
      504000   5.039990e-06   5.274435e+00   1.377782e+01   2.884414e+01   1.026674e+06   2.843574e+05   1.826585e+06  -1.314208e+00   4.744954e+00   1.341221e-21   2.114552e+06   2.597732e-40   0.000000e+00   0.000000e+00
      512000   5.119990e-06   5.356569e+00   1.380057e+01   2.899027e+01   1.026674e+06   2.843574e+05   1.826585e+06   7.167821e+00  -2.587944e+01   1.078472e-20   2.114552e+06   7.768479e-39   0.000000e+00   0.000000e+00
      520000   5.199990e-06   5.438703e+00   1.382332e+01   2.913639e+01   1.026674e+06   2.843574e+05   1.826585e+06   1.568985e+01  -5.664828e+01   4.655173e-20   2.114552e+06   3.721085e-38   0.000000e+00   0.000000e+00
      528000   5.279990e-06   5.520837e+00   1.384606e+01   2.928252e+01   1.026674e+06   2.843574e+05   1.826585e+06   1.208138e+01  -4.361986e+01   1.181766e-19   2.114552e+06   2.206552e-38   0.000000e+00   0.000000e+00
      536000   5.359990e-06   5.602971e+00   1.386881e+01   2.942865e+01   1.026674e+06   2.843574e+05   1.826585e+06   1.444633e+01  -5.215851e+01  -6.275180e-20   2.114552e+06   3.154165e-38   0.000000e+00   0.000000e+00
      544000   5.439990e-06   5.685105e+00   1.389156e+01   2.957477e+01   1.026674e+06   2.843574e+05   1.826585e+06   1.731974e+01  -6.253299e+01  -8.296306e-20   2.114552e+06   4.534954e-38   0.000000e+00   0.000000e+00
      552000   5.519990e-06   5.767238e+00   1.391431e+01   2.972090e+01   1.026674e+06   2.843574e+05   1.826585e+06   1.295739e+01  -4.337237e+01  -5.309136e-01   2.114552e+06   2.207646e-38   0.000000e+00   0.000000e+00
      560000   5.599990e-06   5.849372e+00   1.393706e+01   2.986703e+01   1.026674e+06   2.843574e+05   1.826585e+06   2.200204e+01  -7.830924e+01  -1.757894e-01   2.114552e+06   7.125049e-38   0.000000e+00   0.000000e+00
      568000   5.679990e-06   5.931506e+00   1.395981e+01   3.001315e+01   1.026674e+06   2.843574e+05   1.826585e+06   1.562318e+01  -6.681245e+01   1.619802e+00   2.114552e+06   5.074802e-38   0.000000e+00   0.000000e+00
      576000   5.759990e-06   6.013640e+00   1.398256e+01   3.015928e+01   1.026674e+06   2.843574e+05   1.826585e+06  -2.834576e+00  -9.083971e+00   3.007404e+00   2.114552e+06   1.074065e-39   0.000000e+00   0.000000e+00
      584000   5.839990e-06   6.095774e+00   1.400530e+01   3.030541e+01   1.026674e+06   2.843574e+05   1.826585e+06   1.573434e+01  -5.680889e+01  -3.271418e-20   2.114552e+06   3.742043e-38   0.000000e+00   0.000000e+00
      592000   5.919990e-06   6.177908e+00   1.402805e+01   3.045153e+01   1.026674e+06   2.843574e+05   1.826585e+06   8.556664e+00  -3.089387e+01   1.843529e-21   2.114552e+06   1.107448e-38   0.000000e+00   0.000000e+00
      600000   5.999990e-06   6.260042e+00   1.405080e+01   3.059766e+01   1.026674e+06   2.843574e+05   1.826585e+06   3.101820e+00  -1.119913e+01   5.340069e-21   2.114552e+06   1.457445e-39   0.000000e+00   0.000000e+00
      608000   6.079990e-06   6.342176e+00   1.407355e+01   3.074379e+01   1.026674e+06   2.843574e+05   1.826585e+06   1.367458e+01  -4.937213e+01  -2.075046e-23   2.114552e+06   2.826877e-38   0.000000e+00   0.000000e+00
      616000   6.159990e-06   6.424310e+00   1.409630e+01   3.088991e+01   1.026674e+06   2.843574e+05   1.826585e+06   1.275692e+01  -4.605890e+01  -9.108525e-20   2.114552e+06   2.460592e-38   0.000000e+00   0.000000e+00
      624000   6.239990e-06   6.506443e+00   1.411905e+01   3.103604e+01   1.026674e+06   2.843574e+05   1.826585e+06   1.414808e+01  -5.108171e+01  -3.197396e-20   2.114552e+06   3.026726e-38   0.000000e+00   0.000000e+00
      632000   6.319990e-06   6.588577e+00   1.414180e+01   3.118217e+01   1.026674e+06   2.843574e+05   1.826585e+06   1.918237e+01  -6.925801e+01  -8.134020e-20   2.114552e+06   5.562034e-38   0.000000e+00   0.000000e+00
      640000   6.399990e-06   6.670711e+00   1.416454e+01   3.132829e+01   1.026674e+06   2.843574e+05   1.826585e+06   2.524144e+01  -9.113430e+01  -2.190373e-21   2.114552e+06   9.630742e-38   0.000000e+00   0.000000e+00
      648000   6.479990e-06   6.752845e+00   1.418729e+01   3.147442e+01   1.026674e+06   2.843574e+05   1.826585e+06   2.611076e+01  -9.427299e+01   1.139483e-20   2.114552e+06   1.030549e-37   0.000000e+00   0.000000e+00
      656000   6.559990e-06   6.834979e+00   1.421004e+01   3.162055e+01   1.026674e+06   2.843574e+05   1.826585e+06   1.602254e+01  -5.784946e+01  -5.865931e-20   2.114552e+06   3.880995e-38   0.000000e+00   0.000000e+00
      664000   6.639990e-06   6.917113e+00   1.423279e+01   3.176667e+01   1.026674e+06   2.843574e+05   1.826585e+06   2.436078e+01  -8.795468e+01  -5.659736e-20   2.114552e+06   8.971902e-38   0.000000e+00   0.000000e+00
      672000   6.719990e-06   6.999247e+00   1.425554e+01   3.191280e+01   1.026674e+06   2.843574e+05   1.826585e+06   1.793416e+01  -6.475136e+01   3.524437e-20   2.114552e+06   4.862584e-38   0.000000e+00   0.000000e+00
      680000   6.799990e-06   7.081381e+00   1.427829e+01   3.205893e+01   1.026674e+06   2.843574e+05   1.826585e+06   8.273464e+00  -2.987137e+01   4.719997e-21   2.114552e+06   1.035205e-38   0.000000e+00   0.000000e+00
      688000   6.879990e-06   7.163514e+00   1.430104e+01   3.220505e+01   1.026674e+06   2.843574e+05   1.826585e+06   2.115627e+01  -7.638478e+01  -5.561153e-20   2.114552e+06   6.766036e-38   0.000000e+00   0.000000e+00
      696000   6.959990e-06   7.245648e+00   1.432378e+01   3.235118e+01   1.026674e+06   2.843574e+05   1.826585e+06   1.991280e+01  -7.189524e+01  -8.603832e-20   2.114552e+06   5.993919e-38   0.000000e+00   0.000000e+00
      704000   7.039990e-06   7.327782e+00   1.434653e+01   3.249731e+01   1.026674e+06   2.843574e+05   1.826585e+06   2.016383e+01  -7.280158e+01  -3.702089e-20   2.114552e+06   6.146001e-38   0.000000e+00   0.000000e+00
      712000   7.119990e-06   7.409916e+00   1.436928e+01   3.264344e+01   1.026674e+06   2.843574e+05   1.826585e+06   2.272496e+01  -8.204856e+01   1.681762e-23   2.114552e+06   7.808466e-38   0.000000e+00   0.000000e+00
      720000   7.199990e-06   7.492050e+00   1.439203e+01   3.278956e+01   1.026674e+06   2.843574e+05   1.826585e+06   1.586099e+01  -5.726617e+01  -5.332751e-20   2.114552e+06   3.803508e-38   0.000000e+00   0.000000e+00
      728000   7.279990e-06   7.574184e+00   1.441478e+01   3.293569e+01   1.026674e+06   2.843574e+05   1.826585e+06   1.522320e+01  -5.496342e+01  -2.464919e-20   2.114552e+06   3.504622e-38   0.000000e+00   0.000000e+00
      736000   7.359990e-06   7.656318e+00   1.443753e+01   3.308182e+01   1.026674e+06   2.843574e+05   1.826585e+06   1.976886e+01  -7.137554e+01  -1.571109e-20   2.114552e+06   5.908423e-38   0.000000e+00   0.000000e+00
      744000   7.439990e-06   7.738452e+00   1.446028e+01   3.322794e+01   1.026674e+06   2.843574e+05   1.826585e+06   2.599450e+01  -9.385323e+01  -4.125695e-20   2.114552e+06   1.021470e-37   0.000000e+00   0.000000e+00
      752000   7.519990e-06   7.820586e+00   1.448302e+01   3.337407e+01   1.026674e+06   2.843574e+05   1.826585e+06   2.510929e+01  -9.065717e+01  -6.505265e-20   2.114552e+06   9.530219e-38   0.000000e+00   0.000000e+00
      760000   7.599990e-06   7.902719e+00   1.450577e+01   3.352020e+01   1.026674e+06   2.843574e+05   1.826585e+06   2.845641e+01  -1.027420e+02   6.554050e-20   2.114552e+06   1.224215e-37   0.000000e+00   0.000000e+00
      768000   7.679990e-06   7.984853e+00   1.452852e+01   3.366632e+01   1.026674e+06   2.843574e+05   1.826585e+06   3.031548e+01  -1.094542e+02  -1.269549e-19   2.114552e+06   1.389390e-37   0.000000e+00   0.000000e+00
      776000   7.759990e-06   8.066987e+00   1.455127e+01   3.381245e+01   1.026674e+06   2.843574e+05   1.826585e+06   1.771704e+01  -6.396743e+01  -1.611035e-19   2.114552e+06   4.746887e-38   0.000000e+00   0.000000e+00
      784000   7.839990e-06   8.149121e+00   1.457402e+01   3.395858e+01   1.026674e+06   2.843574e+05   1.826585e+06   2.008036e+01  -7.250022e+01   5.142705e-20   2.114552e+06   6.096605e-38   0.000000e+00   0.000000e+00
      792000   7.919990e-06   8.231255e+00   1.459677e+01   3.410470e+01   1.026674e+06   2.843574e+05   1.826585e+06   3.467947e+01  -1.252104e+02  -1.321779e-19   2.114552e+06   1.818030e-37   0.000000e+00   0.000000e+00
      800000   7.999990e-06   8.313389e+00   1.461952e+01   3.425083e+01   1.026674e+06   2.843574e+05   1.826585e+06   2.559653e+01  -9.241636e+01  -1.192768e-19   2.114552e+06   9.904968e-38   0.000000e+00   0.000000e+00
      808000   8.079990e-06   8.395523e+00   1.464226e+01   3.439696e+01   1.026674e+06   2.843574e+05   1.826585e+06   1.999511e+01  -7.219242e+01   5.454662e-20   2.114552e+06   6.044595e-38   0.000000e+00   0.000000e+00
      816000   8.159990e-06   8.477657e+00   1.466501e+01   3.454308e+01   1.026674e+06   2.843574e+05   1.826585e+06   4.041000e+01  -1.459004e+02  -3.726204e-20   2.114552e+06   2.468413e-37   0.000000e+00   0.000000e+00
      824000   8.239990e-06   8.559790e+00   1.468776e+01   3.468921e+01   1.026674e+06   2.843574e+05   1.826585e+06   3.548809e+01  -1.281299e+02   2.065313e-20   2.114552e+06   1.903761e-37   0.000000e+00   0.000000e+00
      832000   8.319990e-06   8.641924e+00   1.471051e+01   3.483534e+01   1.026674e+06   2.843574e+05   1.826585e+06   2.847757e+01  -1.028184e+02  -7.230340e-20   2.114552e+06   1.226184e-37   0.000000e+00   0.000000e+00
      840000   8.399990e-06   8.724058e+00   1.473326e+01   3.498146e+01   1.026674e+06   2.843574e+05   1.826585e+06   2.624055e+01  -9.474160e+01   1.060606e-19   2.114552e+06   1.041145e-37   0.000000e+00   0.000000e+00
      848000   8.479990e-06   8.806192e+00   1.475601e+01   3.512759e+01   1.026674e+06   2.843574e+05   1.826585e+06   2.498032e+01  -9.019155e+01   8.120168e-20   2.114552e+06   9.433827e-38   0.000000e+00   0.000000e+00
      856000   8.559990e-06   8.888326e+00   1.477876e+01   3.527372e+01   1.026674e+06   2.843574e+05   1.826585e+06   3.565274e+01  -1.287244e+02   1.115292e-19   2.114552e+06   1.921574e-37   0.000000e+00   0.000000e+00
      864000   8.639990e-06   8.970460e+00   1.480150e+01   3.541984e+01   1.026674e+06   2.843574e+05   1.826585e+06   3.053746e+01  -1.102556e+02  -4.246261e-20   2.114552e+06   1.409807e-37   0.000000e+00   0.000000e+00
      872000   8.719990e-06   9.052594e+00   1.482425e+01   3.556597e+01   1.026674e+06   2.843574e+05   1.826585e+06   3.098897e+01  -1.118858e+02  -3.116198e-20   2.114552e+06   1.451932e-37   0.000000e+00   0.000000e+00
      880000   8.799990e-06   9.134728e+00   1.484700e+01   3.571210e+01   1.026674e+06   2.843574e+05   1.826585e+06   2.547698e+01  -9.198472e+01   1.897644e-20   2.114552e+06   9.813672e-38   0.000000e+00   0.000000e+00
      888000   8.879990e-06   9.216862e+00   1.486975e+01   3.585822e+01   1.026674e+06   2.843574e+05   1.826585e+06   3.035458e+01  -1.095953e+02   1.582077e-19   2.114552e+06   1.393003e-37   0.000000e+00   0.000000e+00
      896000   8.959990e-06   9.298995e+00   1.489250e+01   3.600435e+01   1.026674e+06   2.843574e+05   1.826585e+06   3.395156e+01  -1.225822e+02  -1.039476e-19   2.114552e+06   1.742698e-37   0.000000e+00   0.000000e+00
      904000   9.039990e-06   9.381129e+00   1.491525e+01   3.615048e+01   1.026674e+06   2.843574e+05   1.826585e+06   3.788868e+01  -1.367972e+02   1.765830e-19   2.114552e+06   2.170348e-37   0.000000e+00   0.000000e+00
      912000   9.119990e-06   9.463263e+00   1.493800e+01   3.629660e+01   1.026674e+06   2.843574e+05   1.826585e+06   4.210657e+01  -1.520259e+02  -3.545636e-20   2.114552e+06   2.680264e-37   0.000000e+00   0.000000e+00
      920000   9.199990e-06   9.545397e+00   1.496074e+01   3.644273e+01   1.026674e+06   2.843574e+05   1.826585e+06   2.574870e+01  -9.296577e+01  -8.992726e-20   2.114552e+06   1.002593e-37   0.000000e+00   0.000000e+00
      928000   9.279990e-06   9.627531e+00   1.498349e+01   3.658886e+01   1.026674e+06   2.843574e+05   1.826585e+06   4.302711e+01  -1.553495e+02   1.507169e-19   2.114552e+06   2.798863e-37   0.000000e+00   0.000000e+00
      936000   9.359990e-06   9.709665e+00   1.500624e+01   3.673499e+01   1.026674e+06   2.843574e+05   1.826585e+06   3.692879e+01  -1.333315e+02   6.644894e-20   2.114552e+06   2.061565e-37   0.000000e+00   0.000000e+00
      944000   9.439990e-06   9.791799e+00   1.502899e+01   3.688111e+01   1.026674e+06   2.843574e+05   1.826585e+06   2.882088e+01  -1.040579e+02   5.022476e-20   2.114552e+06   1.255917e-37   0.000000e+00   0.000000e+00
      952000   9.519990e-06   9.873933e+00   1.505174e+01   3.702724e+01   1.026674e+06   2.843574e+05   1.826585e+06   4.492002e+01  -1.621839e+02   2.036937e-20   2.114552e+06   3.050320e-37   0.000000e+00   0.000000e+00
      960000   9.599990e-06   9.956066e+00   1.507449e+01   3.717337e+01   1.026674e+06   2.843574e+05   1.826585e+06   3.795301e+01  -1.370295e+02   1.136725e-19   2.114552e+06   2.177706e-37   0.000000e+00   0.000000e+00
      968000   9.679990e-06   1.003820e+01   1.509724e+01   3.731949e+01   1.026674e+06   2.843574e+05   1.826585e+06   4.348924e+01  -1.570181e+02   5.012381e-20   2.114552e+06   2.859416e-37   0.000000e+00   0.000000e+00
      976000   9.759990e-06   1.012033e+01   1.511999e+01   3.746562e+01   1.026674e+06   2.843574e+05   1.826585e+06   4.260444e+01  -1.538235e+02   1.278846e-19   2.114552e+06   2.744187e-37   0.000000e+00   0.000000e+00
      984000   9.839990e-06   1.020247e+01   1.514273e+01   3.761175e+01   1.026674e+06   2.843574e+05   1.826585e+06   4.725995e+01  -1.706322e+02  -7.041047e-21   2.114552e+06   3.376766e-37   0.000000e+00   0.000000e+00
      992000   9.919990e-06   1.028460e+01   1.516548e+01   3.775787e+01   1.026674e+06   2.843574e+05   1.826585e+06   6.190149e+01  -2.234956e+02   2.231773e-19   2.114552e+06   5.792455e-37   0.000000e+00   0.000000e+00
     1000000   9.999990e-06   1.036674e+01   1.518823e+01   3.790400e+01   1.026674e+06   2.843574e+05   1.826585e+06   4.505541e+01  -1.626727e+02   6.764001e-20   2.114552e+06   3.069136e-37   0.000000e+00   0.000000e+00
     1008000   1.007999e-05   1.044887e+01   1.521098e+01   3.805013e+01   1.026674e+06   2.843574e+05   1.826585e+06   4.139494e+01  -1.494566e+02  -2.254137e-19   2.114552e+06   2.590888e-37   0.000000e+00   0.000000e+00
     1016000   1.015999e-05   1.053100e+01   1.523373e+01   3.819625e+01   1.026674e+06   2.843574e+05   1.826585e+06   4.719787e+01  -1.704081e+02   1.342101e-19   2.114552e+06   3.367714e-37   0.000000e+00   0.000000e+00
     1024000   1.023999e-05   1.061314e+01   1.525648e+01   3.834238e+01   1.026674e+06   2.843574e+05   1.826585e+06   5.147093e+01  -1.858360e+02   5.851292e-20   2.114552e+06   4.005277e-37   0.000000e+00   0.000000e+00
     1032000   1.031999e-05   1.069527e+01   1.527923e+01   3.848851e+01   1.026674e+06   2.843574e+05   1.826585e+06   6.802622e+01  -2.456089e+02   2.212460e-19   2.114552e+06   6.995656e-37   0.000000e+00   0.000000e+00
     1040000   1.039999e-05   1.077741e+01   1.530197e+01   3.863463e+01   1.026674e+06   2.843574e+05   1.826585e+06   5.554501e+01  -2.005455e+02   9.447170e-20   2.114552e+06   4.664079e-37   0.000000e+00   0.000000e+00
     1048000   1.047999e-05   1.085954e+01   1.532472e+01   3.878076e+01   1.026674e+06   2.843574e+05   1.826585e+06   5.673861e+01  -2.048550e+02  -2.166590e-19   2.114552e+06   4.866840e-37   0.000000e+00   0.000000e+00
     1056000   1.055999e-05   1.094167e+01   1.534747e+01   3.892689e+01   1.026674e+06   2.843574e+05   1.826585e+06   6.070429e+01  -2.191731e+02  -5.403487e-19   2.114552e+06   5.570589e-37   0.000000e+00   0.000000e+00
     1064000   1.063999e-05   1.102381e+01   1.537022e+01   3.907301e+01   1.026674e+06   2.843574e+05   1.826585e+06   5.736813e+01  -2.071279e+02  -5.550725e-20   2.114552e+06   4.976030e-37   0.000000e+00   0.000000e+00
     1072000   1.071999e-05   1.110594e+01   1.539297e+01   3.921914e+01   1.026674e+06   2.843574e+05   1.826585e+06   4.666318e+01  -1.684776e+02  -1.119074e-20   2.114552e+06   3.292120e-37   0.000000e+00   0.000000e+00
     1080000   1.079999e-05   1.118807e+01   1.541572e+01   3.936527e+01   1.026674e+06   2.843574e+05   1.826585e+06   6.063209e+01  -2.189124e+02  -5.510350e-20   2.114552e+06   5.557669e-37   0.000000e+00   0.000000e+00
     1088000   1.087999e-05   1.127021e+01   1.543847e+01   3.951139e+01   1.026674e+06   2.843574e+05   1.826585e+06   6.139803e+01  -2.216778e+02  -3.593640e-20   2.114552e+06   5.698849e-37   0.000000e+00   0.000000e+00
     1096000   1.095999e-05   1.135234e+01   1.546121e+01   3.965752e+01   1.026674e+06   2.843574e+05   1.826585e+06   5.767602e+01  -2.082395e+02  -4.437486e-20   2.114552e+06   5.029194e-37   0.000000e+00   0.000000e+00
     1104000   1.103999e-05   1.143448e+01   1.548396e+01   3.980365e+01   1.026674e+06   2.843574e+05   1.826585e+06   7.537645e+01  -2.721469e+02   2.708068e-19   2.114552e+06   8.589164e-37   0.000000e+00   0.000000e+00
     1112000   1.111999e-05   1.151661e+01   1.550671e+01   3.994977e+01   1.026674e+06   2.843574e+05   1.826585e+06   6.609877e+01  -2.386498e+02   3.231221e-19   2.114552e+06   6.604724e-37   0.000000e+00   0.000000e+00
     1120000   1.119999e-05   1.159874e+01   1.552946e+01   4.009590e+01   1.026674e+06   2.843574e+05   1.826585e+06   5.350687e+01  -1.931867e+02   1.832774e-19   2.114552e+06   4.328594e-37   0.000000e+00   0.000000e+00
     1128000   1.127999e-05   1.168088e+01   1.555221e+01   4.024203e+01   1.026674e+06   2.843574e+05   1.826585e+06   7.008630e+01  -2.530469e+02   9.176877e-20   2.114552e+06   7.425836e-37   0.000000e+00   0.000000e+00
     1136000   1.135999e-05   1.176301e+01   1.557496e+01   4.038815e+01   1.026674e+06   2.843574e+05   1.826585e+06   7.550493e+01  -2.726108e+02  -7.270272e-20   2.114552e+06   8.618736e-37   0.000000e+00   0.000000e+00
     1144000   1.143999e-05   1.184515e+01   1.559771e+01   4.053428e+01   1.026674e+06   2.843574e+05   1.826585e+06   7.474678e+01  -2.698735e+02   1.663242e-19   2.114552e+06   8.446448e-37   0.000000e+00   0.000000e+00
     1152000   1.151999e-05   1.192728e+01   1.562045e+01   4.068041e+01   1.026674e+06   2.843574e+05   1.826585e+06   7.628155e+01  -2.754148e+02   1.323550e-19   2.114552e+06   8.796324e-37   0.000000e+00   0.000000e+00
     1160000   1.159999e-05   1.200941e+01   1.564320e+01   4.082653e+01   1.026674e+06   2.843574e+05   1.826585e+06   8.148196e+01  -2.941909e+02  -2.477997e-19   2.114552e+06   1.003686e-36   0.000000e+00   0.000000e+00
     1168000   1.167999e-05   1.209155e+01   1.566595e+01   4.097266e+01   1.026674e+06   2.843574e+05   1.826585e+06   8.000448e+01  -2.888565e+02   1.118824e-19   2.114552e+06   9.676639e-37   0.000000e+00   0.000000e+00
     1176000   1.175999e-05   1.217368e+01   1.568870e+01   4.111879e+01   1.026674e+06   2.843574e+05   1.826585e+06   7.979723e+01  -2.881082e+02  -3.379653e-20   2.114552e+06   9.626231e-37   0.000000e+00   0.000000e+00
     1184000   1.183999e-05   1.225582e+01   1.571145e+01   4.126492e+01   1.026674e+06   2.843574e+05   1.826585e+06   8.431692e+01  -3.044266e+02   8.845348e-20   2.114552e+06   1.074755e-36   0.000000e+00   0.000000e+00
     1192000   1.191999e-05   1.233795e+01   1.573420e+01   4.141104e+01   1.026674e+06   2.843574e+05   1.826585e+06   9.021535e+01  -3.257229e+02  -3.343541e-20   2.114552e+06   1.230361e-36   0.000000e+00   0.000000e+00
     1200000   1.199999e-05   1.242008e+01   1.575695e+01   4.155717e+01   1.026674e+06   2.843574e+05   1.826585e+06   8.837128e+01  -3.190649e+02   7.612783e-19   2.114552e+06   1.180623e-36   0.000000e+00   0.000000e+00
     1208000   1.207999e-05   1.250222e+01   1.577969e+01   4.170330e+01   1.026674e+06   2.843574e+05   1.826585e+06   9.635938e+01  -3.479059e+02   5.082949e-19   2.114552e+06   1.403783e-36   0.000000e+00   0.000000e+00
     1216000   1.215999e-05   1.258435e+01   1.580244e+01   4.184942e+01   1.026674e+06   2.843574e+05   1.826585e+06   9.753906e+01  -3.521652e+02   3.426517e-20   2.114552e+06   1.438276e-36   0.000000e+00   0.000000e+00
     1224000   1.223999e-05   1.266648e+01   1.582519e+01   4.199555e+01   1.026674e+06   2.843574e+05   1.826585e+06   1.040070e+02  -3.755178e+02  -4.238208e-19   2.114552e+06   1.635313e-36   0.000000e+00   0.000000e+00
     1232000   1.231999e-05   1.274862e+01   1.584794e+01   4.214168e+01   1.026674e+06   2.843574e+05   1.826585e+06   1.108577e+02  -4.002522e+02   6.277018e-20   2.114552e+06   1.857852e-36   0.000000e+00   0.000000e+00
     1240000   1.239999e-05   1.283075e+01   1.587069e+01   4.228780e+01   1.026674e+06   2.843574e+05   1.826585e+06   1.041519e+02  -3.760408e+02   1.396225e-19   2.114552e+06   1.639982e-36   0.000000e+00   0.000000e+00
     1248000   1.247999e-05   1.291289e+01   1.589344e+01   4.243393e+01   1.026674e+06   2.843574e+05   1.826585e+06   1.066193e+02  -3.849494e+02   2.646607e-19   2.114552e+06   1.718488e-36   0.000000e+00   0.000000e+00
     1256000   1.255999e-05   1.299502e+01   1.591619e+01   4.258006e+01   1.026674e+06   2.843574e+05   1.826585e+06   1.192661e+02  -4.306105e+02   1.258276e-19   2.114552e+06   2.150311e-36   0.000000e+00   0.000000e+00
     1264000   1.263999e-05   1.307715e+01   1.593893e+01   4.272618e+01   1.026674e+06   2.843574e+05   1.826585e+06   1.122151e+02  -4.051530e+02  -8.200708e-20   2.114552e+06   1.903635e-36   0.000000e+00   0.000000e+00
     1272000   1.271999e-05   1.315929e+01   1.596168e+01   4.287231e+01   1.026674e+06   2.843574e+05   1.826585e+06   1.032803e+02  -3.728938e+02   1.188830e-19   2.114552e+06   1.612607e-36   0.000000e+00   0.000000e+00
     1280000   1.279999e-05   1.324142e+01   1.598443e+01   4.301844e+01   1.026674e+06   2.843574e+05   1.826585e+06   1.265378e+02  -4.568650e+02  -1.233291e-19   2.114552e+06   2.420599e-36   0.000000e+00   0.000000e+00
     1288000   1.287999e-05   1.332356e+01   1.600718e+01   4.316456e+01   1.026674e+06   2.843574e+05   1.826585e+06   1.206617e+02  -4.356494e+02   1.848160e-19   2.114552e+06   2.200979e-36   0.000000e+00   0.000000e+00
     1296000   1.295999e-05   1.340569e+01   1.602993e+01   4.331069e+01   1.026674e+06   2.843574e+05   1.826585e+06   1.288678e+02  -4.652777e+02   9.762234e-19   2.114552e+06   2.510680e-36   0.000000e+00   0.000000e+00
     1304000   1.303999e-05   1.348782e+01   1.605268e+01   4.345682e+01   1.026674e+06   2.843574e+05   1.826585e+06   1.199655e+02  -4.331358e+02  -2.451013e-19   2.114552e+06   2.175781e-36   0.000000e+00   0.000000e+00
     1312000   1.311999e-05   1.356996e+01   1.607543e+01   4.360294e+01   1.026674e+06   2.843574e+05   1.826585e+06   1.348739e+02  -4.869628e+02   7.983994e-20   2.114552e+06   2.750010e-36   0.000000e+00   0.000000e+00
     1320000   1.319999e-05   1.365209e+01   1.609817e+01   4.374907e+01   1.026674e+06   2.843574e+05   1.826585e+06   1.427305e+02  -5.153290e+02  -2.734988e-19   2.114552e+06   3.079839e-36   0.000000e+00   0.000000e+00
     1328000   1.327999e-05   1.373423e+01   1.612092e+01   4.389520e+01   1.026674e+06   2.843574e+05   1.826585e+06   1.408820e+02  -5.086551e+02  -5.446286e-19   2.114552e+06   3.000393e-36   0.000000e+00   0.000000e+00
     1336000   1.335999e-05   1.381636e+01   1.614367e+01   4.404132e+01   1.026674e+06   2.843574e+05   1.826585e+06   1.464697e+02  -5.288294e+02   8.224738e-19   2.114552e+06   3.243288e-36   0.000000e+00   0.000000e+00
     1344000   1.343999e-05   1.389849e+01   1.616642e+01   4.418745e+01   1.026674e+06   2.843574e+05   1.826585e+06   1.368713e+02  -4.941745e+02   4.350449e-19   2.114552e+06   2.832202e-36   0.000000e+00   0.000000e+00
     1352000   1.351999e-05   1.398063e+01   1.618917e+01   4.433358e+01   1.026674e+06   2.843574e+05   1.826585e+06   1.315068e+02  -4.748057e+02  -4.435914e-19   2.114552e+06   2.614435e-36   0.000000e+00   0.000000e+00
     1360000   1.359999e-05   1.406276e+01   1.621192e+01   4.447970e+01   1.026674e+06   2.843574e+05   1.826585e+06   1.682854e+02  -6.075949e+02   4.750810e-20   2.114552e+06   4.281301e-36   0.000000e+00   0.000000e+00
     1368000   1.367999e-05   1.414489e+01   1.623467e+01   4.462583e+01   1.026674e+06   2.843574e+05   1.826585e+06   1.558697e+02  -5.627680e+02   9.338965e-19   2.114552e+06   3.673045e-36   0.000000e+00   0.000000e+00
     1376000   1.375999e-05   1.422703e+01   1.625741e+01   4.477196e+01   1.026674e+06   2.843574e+05   1.826585e+06   1.614610e+02  -5.829556e+02   1.386668e-19   2.114552e+06   3.941185e-36   0.000000e+00   0.000000e+00
     1384000   1.383999e-05   1.430916e+01   1.628016e+01   4.491808e+01   1.026674e+06   2.843574e+05   1.826585e+06   1.763504e+02  -6.367137e+02  -2.909097e-19   2.114552e+06   4.701517e-36   0.000000e+00   0.000000e+00
     1392000   1.391999e-05   1.439130e+01   1.630291e+01   4.506421e+01   1.026674e+06   2.843574e+05   1.826585e+06   1.797773e+02  -6.490868e+02  -1.258819e-19   2.114552e+06   4.886126e-36   0.000000e+00   0.000000e+00
     1400000   1.399999e-05   1.447343e+01   1.632566e+01   4.521034e+01   1.026674e+06   2.843574e+05   1.826585e+06   1.839841e+02  -6.642751e+02  -6.440869e-19   2.114552e+06   5.117497e-36   0.000000e+00   0.000000e+00
     1408000   1.407999e-05   1.455556e+01   1.634841e+01   4.535647e+01   1.026674e+06   2.843574e+05   1.826585e+06   1.835411e+02  -6.626759e+02   1.447629e-18   2.114552e+06   5.092867e-36   0.000000e+00   0.000000e+00
     1416000   1.415999e-05   1.463770e+01   1.637116e+01   4.550259e+01   1.026674e+06   2.843574e+05   1.826585e+06   1.746078e+02  -6.304220e+02  -9.686542e-20   2.114552e+06   4.609245e-36   0.000000e+00   0.000000e+00
     1424000   1.423999e-05   1.471983e+01   1.639391e+01   4.564872e+01   1.026674e+06   2.843574e+05   1.826585e+06   2.136054e+02  -7.712232e+02  -4.539188e-19   2.114552e+06   6.897431e-36   0.000000e+00   0.000000e+00
     1432000   1.431999e-05   1.480197e+01   1.641665e+01   4.579485e+01   1.026674e+06   2.843574e+05   1.826585e+06   1.920724e+02  -6.934782e+02   5.624022e-19   2.114552e+06   5.577262e-36   0.000000e+00   0.000000e+00
     1440000   1.439999e-05   1.488410e+01   1.643940e+01   4.594097e+01   1.026674e+06   2.843574e+05   1.826585e+06   1.926178e+02  -6.954473e+02  -1.289595e-19   2.114552e+06   5.608980e-36   0.000000e+00   0.000000e+00
     1448000   1.447999e-05   1.496623e+01   1.646215e+01   4.608710e+01   1.026674e+06   2.843574e+05   1.826585e+06   2.519358e+02  -9.096153e+02   8.399425e-19   2.114552e+06   9.594962e-36   0.000000e+00   0.000000e+00
     1456000   1.455999e-05   1.504837e+01   1.648490e+01   4.623323e+01   1.026674e+06   2.843574e+05   1.826585e+06   2.003226e+02  -7.232655e+02   1.504832e-19   2.114552e+06   6.067027e-36   0.000000e+00   0.000000e+00
     1464000   1.463999e-05   1.513050e+01   1.650765e+01   4.637935e+01   1.026674e+06   2.843574e+05   1.826585e+06   2.193610e+02  -7.920039e+02  -7.384309e-19   2.114552e+06   7.274657e-36   0.000000e+00   0.000000e+00
     1472000   1.471999e-05   1.521263e+01   1.653040e+01   4.652548e+01   1.026674e+06   2.843574e+05   1.826585e+06   2.264767e+02  -8.176950e+02  -7.318183e-19   2.114552e+06   7.754342e-36   0.000000e+00   0.000000e+00
     1480000   1.479999e-05   1.529477e+01   1.655315e+01   4.667161e+01   1.026674e+06   2.843574e+05   1.826585e+06   2.180371e+02  -7.872239e+02   5.797859e-20   2.114552e+06   7.187216e-36   0.000000e+00   0.000000e+00
     1488000   1.487999e-05   1.537690e+01   1.657590e+01   4.681773e+01   1.026674e+06   2.843574e+05   1.826585e+06   2.423203e+02  -8.748984e+02  -1.653065e-19   2.114552e+06   8.877122e-36   0.000000e+00   0.000000e+00
     1496000   1.495999e-05   1.545904e+01   1.659864e+01   4.696386e+01   1.026674e+06   2.843574e+05   1.826585e+06   2.521707e+02  -9.104633e+02   1.057422e-18   2.114552e+06   9.613467e-36   0.000000e+00   0.000000e+00
     1504000   1.503999e-05   1.554117e+01   1.662139e+01   4.710999e+01   1.026674e+06   2.843574e+05   1.826585e+06   2.464531e+02  -8.898198e+02   1.176916e-18   2.114552e+06   9.182495e-36   0.000000e+00   0.000000e+00
     1512000   1.511999e-05   1.562330e+01   1.664414e+01   4.725611e+01   1.026674e+06   2.843574e+05   1.826585e+06   2.559056e+02  -9.239482e+02  -4.040302e-20   2.114552e+06   9.900316e-36   0.000000e+00   0.000000e+00
     1520000   1.519999e-05   1.570544e+01   1.666689e+01   4.740224e+01   1.026674e+06   2.843574e+05   1.826585e+06   2.631766e+02  -9.502001e+02  -9.168187e-19   2.114552e+06   1.047081e-35   0.000000e+00   0.000000e+00
     1528000   1.527999e-05   1.578757e+01   1.668964e+01   4.754837e+01   1.026674e+06   2.843574e+05   1.826585e+06   2.869257e+02  -1.035946e+03   9.179487e-20   2.114552e+06   1.244595e-35   0.000000e+00   0.000000e+00
     1536000   1.535999e-05   1.586971e+01   1.671239e+01   4.769449e+01   1.026674e+06   2.843574e+05   1.826585e+06   2.728996e+02  -9.853050e+02   1.418764e-18   2.114552e+06   1.125909e-35   0.000000e+00   0.000000e+00
     1544000   1.543999e-05   1.595184e+01   1.673514e+01   4.784062e+01   1.026674e+06   2.843574e+05   1.826585e+06   2.887477e+02  -1.042525e+03   1.842007e-19   2.114552e+06   1.260453e-35   0.000000e+00   0.000000e+00
     1552000   1.551999e-05   1.603397e+01   1.675788e+01   4.798675e+01   1.026674e+06   2.843574e+05   1.826585e+06   3.088854e+02  -1.115232e+03  -8.040818e-19   2.114552e+06   1.442391e-35   0.000000e+00   0.000000e+00
     1560000   1.559999e-05   1.611611e+01   1.678063e+01   4.813287e+01   1.026674e+06   2.843574e+05   1.826585e+06   3.031784e+02  -1.094627e+03   1.478968e-18   2.114552e+06   1.389580e-35   0.000000e+00   0.000000e+00
     1568000   1.567999e-05   1.619824e+01   1.680338e+01   4.827900e+01   1.026674e+06   2.843574e+05   1.826585e+06   3.166783e+02  -1.143368e+03   3.505203e-19   2.114552e+06   1.516085e-35   0.000000e+00   0.000000e+00
     1576000   1.575999e-05   1.628038e+01   1.682613e+01   4.842513e+01   1.026674e+06   2.843574e+05   1.826585e+06   3.298082e+02  -1.190774e+03   6.309050e-19   2.114552e+06   1.644410e-35   0.000000e+00   0.000000e+00
     1584000   1.583999e-05   1.636251e+01   1.684888e+01   4.857125e+01   1.026674e+06   2.843574e+05   1.826585e+06   3.422225e+02  -1.235596e+03   5.340847e-19   2.114552e+06   1.770530e-35   0.000000e+00   0.000000e+00
     1592000   1.591999e-05   1.644464e+01   1.687163e+01   4.871738e+01   1.026674e+06   2.843574e+05   1.826585e+06   3.394717e+02  -1.225664e+03  -7.247129e-19   2.114552e+06   1.742208e-35   0.000000e+00   0.000000e+00
     1600000   1.599999e-05   1.652678e+01   1.689438e+01   4.886351e+01   1.026674e+06   2.843574e+05   1.826585e+06   3.501413e+02  -1.264186e+03  -7.003801e-19   2.114552e+06   1.853440e-35   0.000000e+00   0.000000e+00
     1608000   1.607999e-05   1.660891e+01   1.691712e+01   4.900963e+01   1.026674e+06   2.843574e+05   1.826585e+06   3.544282e+02  -1.279664e+03   1.565972e-18   2.114552e+06   1.899099e-35   0.000000e+00   0.000000e+00
     1616000   1.615999e-05   1.669104e+01   1.693987e+01   4.915576e+01   1.026674e+06   2.843574e+05   1.826585e+06   3.652769e+02  -1.318834e+03  -1.587545e-18   2.114552e+06   2.017155e-35   0.000000e+00   0.000000e+00
     1624000   1.623999e-05   1.677318e+01   1.696262e+01   4.930189e+01   1.026674e+06   2.843574e+05   1.826585e+06   3.931231e+02  -1.419372e+03   1.101763e-18   2.114552e+06   2.336400e-35   0.000000e+00   0.000000e+00
     1632000   1.631999e-05   1.685531e+01   1.698537e+01   4.944801e+01   1.026674e+06   2.843574e+05   1.826585e+06   3.835905e+02  -1.384955e+03  -1.570659e-18   2.114552e+06   2.224469e-35   0.000000e+00   0.000000e+00
     1640000   1.639999e-05   1.693745e+01   1.700812e+01   4.959414e+01   1.026675e+06   2.843559e+05   1.826584e+06   6.570815e+07  -6.654097e+07  -2.657397e+07   2.114552e+06   1.017627e-25   0.000000e+00   0.000000e+00
     1648000   1.647999e-05   1.701958e+01   1.703087e+01   4.974027e+01   1.026689e+06   2.843414e+05   1.826578e+06   4.137668e+08  -4.140768e+08  -1.681126e+08   2.114552e+06   3.995446e-24   0.000000e+00   0.000000e+00
     1656000   1.655999e-05   1.710172e+01   1.705361e+01   4.988639e+01   1.026716e+06   2.843149e+05   1.826567e+06   1.189323e+08  -1.217132e+08  -4.790671e+07   2.114552e+06   3.371758e-25   0.000000e+00   0.000000e+00
