     timestep     time              x             y              z              vx             vy             vz             ax             ay             az         v_magnitude      ELoss        Electronic      Nuclear
           0   0.000000e+00   1.000000e-01   1.278559e+01   2.072070e+01   1.793973e+05   2.103223e+05   1.144991e+06   0.000000e+00   0.000000e+00   0.000000e+00   1.177889e+06   0.000000e+00   0.000000e+00   0.000000e+00
        8000   7.999000e-08   1.143518e-01   1.280241e+01   2.081230e+01   1.793969e+05   2.103227e+05   1.144991e+06  -2.262500e+07   1.929823e+07   2.219302e-15   1.177889e+06   2.956067e-27   0.000000e+00   0.000000e+00
       16000   1.599900e-07   1.287035e-01   1.281924e+01   2.090390e+01   1.793959e+05   2.103235e+05   1.144991e+06  -1.404735e+07   1.198172e+07   1.665626e-15   1.177889e+06   1.138898e-27   0.000000e+00   0.000000e+00
       24000   2.399900e-07   1.430551e-01   1.283606e+01   2.099550e+01   1.793941e+05   2.103250e+05   1.144991e+06  -3.095655e+07   2.640400e+07  -2.451435e-14   1.177889e+06   5.531795e-27   0.000000e+00   0.000000e+00
       32000   3.199900e-07   1.574066e-01   1.285289e+01   2.108710e+01   1.793940e+05   2.103251e+05   1.144991e+06   1.087591e+07  -9.276464e+06   1.349738e-15   1.177889e+06   6.825408e-28   0.000000e+00   0.000000e+00
       40000   3.999900e-07   1.717581e-01   1.286972e+01   2.117870e+01   1.793925e+05   2.103264e+05   1.144991e+06  -3.138514e+07   2.676915e+07   1.483158e-15   1.177889e+06   5.685966e-27   0.000000e+00   0.000000e+00
       48000   4.799900e-07   1.861094e-01   1.288654e+01   2.127030e+01   1.793927e+05   2.103262e+05   1.144991e+06   2.208013e+07  -1.883272e+07  -4.826307e-15   1.177889e+06   2.813902e-27   0.000000e+00   0.000000e+00
       56000   5.599900e-07   2.004609e-01   1.290337e+01   2.136190e+01   1.793925e+05   2.103263e+05   1.144991e+06  -2.728984e+06   2.327618e+06   3.407820e-18   1.177889e+06   4.297702e-29   0.000000e+00   0.000000e+00
       64000   6.399900e-07   2.148123e-01   1.292019e+01   2.145350e+01   1.793923e+05   2.103265e+05   1.144991e+06  -4.814766e+05   4.106624e+05  -7.475638e-17   1.177889e+06   1.341903e-30   0.000000e+00   0.000000e+00
       72000   7.199900e-07   2.291636e-01   1.293702e+01   2.154509e+01   1.793923e+05   2.103266e+05   1.144991e+06  -3.438013e+06   2.932359e+06  -4.433727e-16   1.177889e+06   6.821590e-29   0.000000e+00   0.000000e+00
       80000   7.999900e-07   2.435150e-01   1.295385e+01   2.163669e+01   1.793920e+05   2.103268e+05   1.144991e+06   1.423426e+06  -1.214069e+06   3.868301e-16   1.177889e+06   1.168667e-29   0.000000e+00   0.000000e+00
       88000   8.799900e-07   2.578664e-01   1.297067e+01   2.172829e+01   1.793921e+05   2.103267e+05   1.144991e+06  -4.147043e+06   3.537101e+06   6.192386e-17   1.177889e+06   9.925939e-29   0.000000e+00   0.000000e+00
       96000   9.599900e-07   2.722177e-01   1.298750e+01   2.181989e+01   1.793918e+05   2.103270e+05   1.144991e+06   3.328331e+06  -2.838796e+06  -3.558291e-15   1.177889e+06   6.392897e-29   0.000000e+00   0.000000e+00
      104000   1.039990e-06   2.865691e-01   1.300432e+01   2.191149e+01   1.793921e+05   2.103267e+05   1.144991e+06   9.941615e+04  -8.479411e+04   3.303781e-17   1.177889e+06   5.632280e-32   0.000000e+00   0.000000e+00
      112000   1.119990e-06   3.009205e-01   1.302115e+01   2.200309e+01   1.793923e+05   2.103266e+05   1.144991e+06   6.696130e+00  -5.711280e+00   1.298170e-21   1.177889e+06   2.588938e-40   0.000000e+00   0.000000e+00
      120000   1.199990e-06   3.152718e-01   1.303798e+01   2.209469e+01   1.793923e+05   2.103266e+05   1.144991e+06   2.990837e+00  -2.550952e+00   2.568250e-21   1.177889e+06   5.165754e-41   0.000000e+00   0.000000e+00
      128000   1.279990e-06   3.296232e-01   1.305480e+01   2.218629e+01   1.793923e+05   2.103266e+05   1.144991e+06   3.140955e+00  -2.678991e+00  -9.130705e-23   1.177889e+06   5.695358e-41   0.000000e+00   0.000000e+00
      136000   1.359990e-06   3.439746e-01   1.307163e+01   2.227789e+01   1.793923e+05   2.103266e+05   1.144991e+06   5.094030e-02  -4.344812e-02   2.088807e-23   1.177889e+06   1.525452e-44   0.000000e+00   0.000000e+00
      144000   1.439990e-06   3.583260e-01   1.308846e+01   2.236949e+01   1.793923e+05   2.103266e+05   1.144991e+06  -3.873264e-01   3.303594e-01  -9.382976e-23   1.177889e+06   8.663632e-43   0.000000e+00   0.000000e+00
      152000   1.519990e-06   3.726774e-01   1.310528e+01   2.246109e+01   1.793923e+05   2.103266e+05   1.144991e+06  -3.648029e+00   3.111486e+00   3.514114e-22   1.177889e+06   7.680945e-41   0.000000e+00   0.000000e+00
      160000   1.599990e-06   3.870288e-01   1.312211e+01   2.255269e+01   1.793923e+05   2.103266e+05   1.144991e+06   6.375415e+00  -5.437735e+00  -9.384299e-22   1.177889e+06   2.346156e-40   0.000000e+00   0.000000e+00
      168000   1.679990e-06   4.013801e-01   1.313893e+01   2.264429e+01   1.793923e+05   2.103266e+05   1.144991e+06   2.228287e+00  -1.900556e+00  -9.122067e-22   1.177889e+06   2.863684e-41   0.000000e+00   0.000000e+00
      176000   1.759990e-06   4.157315e-01   1.315576e+01   2.273588e+01   1.793923e+05   2.103266e+05   1.144991e+06  -1.081253e+00   9.222252e-01  -5.976989e-22   1.177889e+06   6.737084e-42   0.000000e+00   0.000000e+00
      184000   1.839990e-06   4.300829e-01   1.317259e+01   2.282748e+01   1.793923e+05   2.103266e+05   1.144991e+06   4.741395e+00  -4.044042e+00  -3.373809e-21   1.177889e+06   1.297249e-40   0.000000e+00   0.000000e+00
      192000   1.919990e-06   4.444343e-01   1.318941e+01   2.291908e+01   1.793923e+05   2.103266e+05   1.144991e+06  -1.771045e+00   1.510564e+00   5.307584e-22   1.177889e+06   1.808784e-41   0.000000e+00   0.000000e+00
      200000   1.999990e-06   4.587857e-01   1.320624e+01   2.301068e+01   1.793923e+05   2.103266e+05   1.144991e+06   3.641197e+00  -3.105658e+00   1.408284e-21   1.177889e+06   7.655136e-41   0.000000e+00   0.000000e+00
      208000   2.079990e-06   4.731370e-01   1.322306e+01   2.310228e+01   1.793923e+05   2.103266e+05   1.144991e+06   1.618674e+00  -1.380604e+00   5.599154e-22   1.177889e+06   1.512133e-41   0.000000e+00   0.000000e+00
      216000   2.159990e-06   4.874884e-01   1.323989e+01   2.319388e+01   1.793923e+05   2.103266e+05   1.144991e+06   3.742899e+00  -3.192403e+00  -1.970031e-22   1.177889e+06   8.086647e-41   0.000000e+00   0.000000e+00
      224000   2.239990e-06   5.018398e-01   1.325672e+01   2.328548e+01   1.793923e+05   2.103266e+05   1.144991e+06  -1.104348e+00   9.419236e-01   3.003194e-22   1.177889e+06   7.032794e-42   0.000000e+00   0.000000e+00
      232000   2.319990e-06   5.161912e-01   1.327354e+01   2.337708e+01   1.793923e+05   2.103266e+05   1.144991e+06   5.987741e+00  -5.107079e+00  -8.866890e-22   1.177889e+06   2.069557e-40   0.000000e+00   0.000000e+00
      240000   2.399990e-06   5.305426e-01   1.329037e+01   2.346868e+01   1.793923e+05   2.103266e+05   1.144991e+06  -4.475319e+00   3.817100e+00  -1.050968e-21   1.177889e+06   1.155950e-40   0.000000e+00   0.000000e+00
      248000   2.479990e-06   5.448939e-01   1.330719e+01   2.356028e+01   1.793923e+05   2.103266e+05   1.144991e+06  -4.126685e-01   3.519742e-01   9.012091e-23   1.177889e+06   9.800718e-43   0.000000e+00   0.000000e+00
      256000   2.559990e-06   5.592453e-01   1.332402e+01   2.365188e+01   1.793923e+05   2.103266e+05   1.144991e+06   5.695531e+00  -4.857846e+00  -4.524234e-21   1.177889e+06   1.872310e-40   0.000000e+00   0.000000e+00
      264000   2.639990e-06   5.735967e-01   1.334085e+01   2.374348e+01   1.793923e+05   2.103266e+05   1.144991e+06  -1.564494e+00   1.334392e+00   1.293458e-21   1.177889e+06   1.411899e-41   0.000000e+00   0.000000e+00
      272000   2.719990e-06   5.879481e-01   1.335767e+01   2.383508e+01   1.793923e+05   2.103266e+05   1.144991e+06   7.478813e+00  -6.378848e+00  -1.870424e-21   1.177889e+06   3.228492e-40   0.000000e+00   0.000000e+00
      280000   2.799990e-06   6.022995e-01   1.337450e+01   2.392668e+01   1.793923e+05   2.103266e+05   1.144991e+06   1.281364e+00  -1.092904e+00  -1.938770e-22   1.177889e+06   9.472204e-42   0.000000e+00   0.000000e+00
      288000   2.879990e-06   6.166508e-01   1.339133e+01   2.401827e+01   1.793923e+05   2.103266e+05   1.144991e+06   4.819305e-01  -4.110493e-01  -3.737569e-22   1.177889e+06   1.343992e-42   0.000000e+00   0.000000e+00
      296000   2.959990e-06   6.310022e-01   1.340815e+01   2.410987e+01   1.793923e+05   2.103266e+05   1.144991e+06   6.740962e-01  -5.749518e-01  -6.426128e-24   1.177889e+06   2.621666e-42   0.000000e+00   0.000000e+00
      304000   3.039990e-06   6.453536e-01   1.342498e+01   2.420147e+01   1.793923e+05   2.103266e+05   1.144991e+06  -6.511393e-01   5.553713e-01   3.595981e-22   1.177889e+06   2.446108e-42   0.000000e+00   0.000000e+00
      312000   3.119990e-06   6.597050e-01   1.344180e+01   2.429307e+01   1.793923e+05   2.103266e+05   1.144991e+06  -2.365516e+00   2.017602e+00   6.862024e-22   1.177889e+06   3.229884e-41   0.000000e+00   0.000000e+00
      320000   3.199990e-06   6.740564e-01   1.345863e+01   2.438467e+01   1.793923e+05   2.103266e+05   1.144991e+06   3.493620e+00  -2.979787e+00  -9.420659e-22   1.177889e+06   7.045489e-41   0.000000e+00   0.000000e+00
      328000   3.279990e-06   6.884078e-01   1.347546e+01   2.447627e+01   1.793923e+05   2.103266e+05   1.144991e+06  -3.397438e+00   2.897751e+00   1.075395e-21   1.177889e+06   6.662882e-41   0.000000e+00   0.000000e+00
      336000   3.359990e-06   7.027591e-01   1.349228e+01   2.456787e+01   1.793923e+05   2.103266e+05   1.144991e+06  -2.440408e+00   2.081479e+00  -3.585646e-22   1.177889e+06   3.437066e-41   0.000000e+00   0.000000e+00
      344000   3.439990e-06   7.171105e-01   1.350911e+01   2.465947e+01   1.793923e+05   2.103266e+05   1.144991e+06   1.628072e+00  -1.388620e+00  -1.350528e-21   1.177889e+06   1.530455e-41   0.000000e+00   0.000000e+00
      352000   3.519990e-06   7.314619e-01   1.352593e+01   2.475107e+01   1.793923e+05   2.103266e+05   1.144991e+06   2.253674e-01  -1.922209e-01  -1.022619e-22   1.177889e+06   2.928376e-43   0.000000e+00   0.000000e+00
      360000   3.599990e-06   7.458133e-01   1.354276e+01   2.484267e+01   1.793923e+05   2.103266e+05   1.144991e+06   3.511091e+00  -2.994688e+00   2.227344e-22   1.177889e+06   7.117467e-41   0.000000e+00   0.000000e+00
      368000   3.679990e-06   7.601647e-01   1.355959e+01   2.493427e+01   1.793923e+05   2.103266e+05   1.144991e+06  -1.077202e+00   9.187697e-01   6.369416e-23   1.177889e+06   6.700806e-42   0.000000e+00   0.000000e+00
      376000   3.759990e-06   7.745160e-01   1.357641e+01   2.502587e+01   1.793923e+05   2.103266e+05   1.144991e+06   5.394109e+00  -4.600757e+00   1.210734e-21   1.177889e+06   1.679853e-40   0.000000e+00   0.000000e+00
      384000   3.839990e-06   7.888674e-01   1.359324e+01   2.511747e+01   1.793923e+05   2.103266e+05   1.144991e+06  -2.379771e+00   2.029760e+00   2.420660e-22   1.177889e+06   3.269927e-41   0.000000e+00   0.000000e+00
      392000   3.919990e-06   8.032188e-01   1.361007e+01   2.520907e+01   1.793923e+05   2.103266e+05   1.144991e+06   2.862111e+00  -2.441159e+00  -2.301172e-21   1.177889e+06   4.728485e-41   0.000000e+00   0.000000e+00
      400000   3.999990e-06   8.175702e-01   1.362689e+01   2.530066e+01   1.793923e+05   2.103266e+05   1.144991e+06   3.090484e+00  -2.635943e+00  -1.957295e-21   1.177889e+06   5.516475e-41   0.000000e+00   0.000000e+00
      408000   4.079990e-06   8.319216e-01   1.364372e+01   2.539226e+01   1.793923e+05   2.103266e+05   1.144991e+06  -2.455552e+00   2.094395e+00   1.300921e-21   1.177889e+06   3.479099e-41   0.000000e+00   0.000000e+00
      416000   4.159990e-06   8.462729e-01   1.366054e+01   2.548386e+01   1.793923e+05   2.103266e+05   1.144991e+06   1.162249e+00  -9.913079e-01  -1.231377e-21   1.177889e+06   7.795652e-42   0.000000e+00   0.000000e+00
      424000   4.239990e-06   8.606243e-01   1.367737e+01   2.557546e+01   1.793923e+05   2.103266e+05   1.144991e+06  -6.730942e+00   5.740971e+00   3.314325e-21   1.177889e+06   2.615026e-40   0.000000e+00   0.000000e+00
      432000   4.319990e-06   8.749757e-01   1.369420e+01   2.566706e+01   1.793923e+05   2.103266e+05   1.144991e+06  -2.243221e+00   1.913293e+00   1.158103e-21   1.177889e+06   2.905630e-41   0.000000e+00   0.000000e+00
      440000   4.399990e-06   8.893271e-01   1.371102e+01   2.575866e+01   1.793923e+05   2.103266e+05   1.144991e+06  -2.249425e+00   1.918585e+00   2.099778e-22   1.177889e+06   2.921568e-41   0.000000e+00   0.000000e+00
      448000   4.479990e-06   9.036785e-01   1.372785e+01   2.585026e+01   1.793923e+05   2.103266e+05   1.144991e+06   2.180034e-01  -1.859400e-01  -1.808647e-22   1.177889e+06   2.755337e-43   0.000000e+00   0.000000e+00
      456000   4.559990e-06   9.180299e-01   1.374467e+01   2.594186e+01   1.793923e+05   2.103266e+05   1.144991e+06   5.261248e+00  -4.487436e+00   2.402224e-21   1.177889e+06   1.597528e-40   0.000000e+00   0.000000e+00
      464000   4.639990e-06   9.323812e-01   1.376150e+01   2.603346e+01   1.793923e+05   2.103266e+05   1.144991e+06   1.535315e+00  -1.309505e+00  -9.152063e-22   1.177889e+06   1.361663e-41   0.000000e+00   0.000000e+00
      472000   4.719990e-06   9.467326e-01   1.377833e+01   2.612506e+01   1.793923e+05   2.103266e+05   1.144991e+06   1.040563e+01  -8.875193e+00   8.209268e-21   1.177889e+06   6.249972e-40   0.000000e+00   0.000000e+00
      480000   4.799990e-06   9.610840e-01   1.379515e+01   2.621666e+01   1.793923e+05   2.103266e+05   1.144991e+06   2.852627e+00  -2.433070e+00   2.769666e-21   1.177889e+06   4.699419e-41   0.000000e+00   0.000000e+00
      488000   4.879990e-06   9.754354e-01   1.381198e+01   2.630826e+01   1.793923e+05   2.103266e+05   1.144991e+06   1.912821e+00  -1.631488e+00   1.157590e-23   1.177889e+06   2.113876e-41   0.000000e+00   0.000000e+00
      496000   4.959990e-06   9.897868e-01   1.382880e+01   2.639986e+01   1.793923e+05   2.103266e+05   1.144991e+06  -3.672240e+00   3.132136e+00   1.483212e-21   1.177889e+06   7.782350e-41   0.000000e+00   0.000000e+00
      504000   5.039990e-06   1.004138e+00   1.384563e+01   2.649145e+01   1.793923e+05   2.103266e+05   1.144991e+06   2.525493e+00  -2.154049e+00   1.742777e-21   1.177889e+06   3.681171e-41   0.000000e+00   0.000000e+00
      512000   5.119990e-06   1.018490e+00   1.386246e+01   2.658305e+01   1.793923e+05   2.103266e+05   1.144991e+06   2.339010e+00  -1.994994e+00  -2.596953e-22   1.177889e+06   3.158826e-41   0.000000e+00   0.000000e+00
      520000   5.199990e-06   1.032841e+00   1.387928e+01   2.667465e+01   1.793923e+05   2.103266e+05   1.144991e+06   4.321551e+00  -3.685948e+00   1.089995e-21   1.177889e+06   1.078010e-40   0.000000e+00   0.000000e+00
      528000   5.279990e-06   1.047192e+00   1.389611e+01   2.676625e+01   1.793923e+05   2.103266e+05   1.144991e+06   4.072137e+00  -3.473217e+00  -6.357455e-22   1.177889e+06   9.573835e-41   0.000000e+00   0.000000e+00
      536000   5.359990e-06   1.061544e+00   1.391294e+01   2.685785e+01   1.793923e+05   2.103266e+05   1.144991e+06   4.165709e+00  -3.553027e+00   1.087184e-21   1.177889e+06   1.001559e-40   0.000000e+00   0.000000e+00
      544000   5.439990e-06   1.075895e+00   1.392976e+01   2.694945e+01   1.793923e+05   2.103266e+05   1.144991e+06   1.902970e+00  -1.623086e+00   9.350348e-23   1.177889e+06   2.091334e-41   0.000000e+00   0.000000e+00
      552000   5.519990e-06   1.090246e+00   1.394659e+01   2.704105e+01   1.793923e+05   2.103266e+05   1.144991e+06   6.167829e+00  -5.260680e+00   2.147123e-21   1.177889e+06   2.195841e-40   0.000000e+00   0.000000e+00
      560000   5.599990e-06   1.104598e+00   1.396341e+01   2.713265e+01   1.793923e+05   2.103266e+05   1.144991e+06   3.375502e-01  -2.879042e-01  -2.569733e-22   1.177889e+06   6.575829e-43   0.000000e+00   0.000000e+00
      568000   5.679990e-06   1.118949e+00   1.398024e+01   2.722425e+01   1.793923e+05   2.103266e+05   1.144991e+06  -8.692964e-01   7.414425e-01  -4.848264e-22   1.177889e+06   4.360940e-42   0.000000e+00   0.000000e+00
      576000   5.759990e-06   1.133301e+00   1.399707e+01   2.731585e+01   1.793923e+05   2.103266e+05   1.144991e+06  -1.165391e-02   9.939885e-03   9.107255e-25   1.177889e+06   7.914212e-46   0.000000e+00   0.000000e+00
      584000   5.839990e-06   1.147652e+00   1.401389e+01   2.740745e+01   1.793923e+05   2.103266e+05   1.144991e+06  -1.882948e-02   1.606008e-02  -1.120292e-24   1.177889e+06   2.065324e-45   0.000000e+00   0.000000e+00
      592000   5.919990e-06   1.162003e+00   1.403072e+01   2.749905e+01   1.793923e+05   2.103266e+05   1.144991e+06   6.586789e-01  -5.618020e-01   1.454257e-22   1.177889e+06   2.504088e-42   0.000000e+00   0.000000e+00
      600000   5.999990e-06   1.176355e+00   1.404754e+01   2.759065e+01   1.793923e+05   2.103266e+05   1.144991e+06   2.339438e+00  -1.995359e+00   1.042333e-21   1.177889e+06   3.159361e-41   0.000000e+00   0.000000e+00
      608000   6.079990e-06   1.190706e+00   1.406437e+01   2.768225e+01   1.793923e+05   2.103266e+05   1.144991e+06   1.660740e+00  -1.416482e+00   4.288311e-23   1.177889e+06   1.592108e-41   0.000000e+00   0.000000e+00
      616000   6.159990e-06   1.205057e+00   1.408120e+01   2.777384e+01   1.793923e+05   2.103266e+05   1.144991e+06   3.941668e+00  -3.361937e+00  -4.874349e-22   1.177889e+06   8.968910e-41   0.000000e+00   0.000000e+00
      624000   6.239990e-06   1.219409e+00   1.409802e+01   2.786544e+01   1.793923e+05   2.103266e+05   1.144991e+06   7.738130e+00  -6.600025e+00  -1.917043e-21   1.177889e+06   3.456656e-40   0.000000e+00   0.000000e+00
      632000   6.319990e-06   1.233760e+00   1.411485e+01   2.795704e+01   1.793923e+05   2.103266e+05   1.144991e+06   2.694144e+00  -2.297896e+00   2.877476e-21   1.177889e+06   4.190495e-41   0.000000e+00   0.000000e+00
      640000   6.399990e-06   1.248112e+00   1.413168e+01   2.804864e+01   1.793923e+05   2.103266e+05   1.144991e+06  -6.161564e-01   5.255337e-01  -7.249548e-23   1.177889e+06   2.187909e-42   0.000000e+00   0.000000e+00
      648000   6.479990e-06   1.262463e+00   1.414850e+01   2.814024e+01   1.793923e+05   2.103266e+05   1.144991e+06  -1.751960e+00   1.494286e+00   5.913428e-22   1.177889e+06   1.771930e-41   0.000000e+00   0.000000e+00
      656000   6.559990e-06   1.276814e+00   1.416533e+01   2.823184e+01   1.793923e+05   2.103266e+05   1.144991e+06  -5.363642e+00   4.574771e+00   1.777870e-21   1.177889e+06   1.660525e-40   0.000000e+00   0.000000e+00
      664000   6.639990e-06   1.291166e+00   1.418215e+01   2.832344e+01   1.793923e+05   2.103266e+05   1.144991e+06  -6.198063e+00   5.286467e+00  -6.011484e-22   1.177889e+06   2.217795e-40   0.000000e+00   0.000000e+00
      672000   6.719990e-06   1.305517e+00   1.419898e+01   2.841504e+01   1.793923e+05   2.103266e+05   1.144991e+06  -6.469657e+00   5.518116e+00   5.420932e-21   1.177889e+06   2.416321e-40   0.000000e+00   0.000000e+00
      680000   6.799990e-06   1.319869e+00   1.421581e+01   2.850664e+01   1.793923e+05   2.103266e+05   1.144991e+06   7.516379e-01  -6.410888e-01  -8.609332e-23   1.177889e+06   3.268981e-42   0.000000e+00   0.000000e+00
      688000   6.879990e-06   1.334220e+00   1.423263e+01   2.859824e+01   1.793923e+05   2.103266e+05   1.144991e+06  -6.045698e+00   5.156512e+00  -2.381507e-23   1.177889e+06   2.109525e-40   0.000000e+00   0.000000e+00
      696000   6.959990e-06   1.348571e+00   1.424946e+01   2.868984e+01   1.793923e+05   2.103266e+05   1.144991e+06   7.837088e+00  -6.684429e+00  -3.424947e-21   1.177889e+06   3.544826e-40   0.000000e+00   0.000000e+00
      704000   7.039990e-06   1.362923e+00   1.426628e+01   2.878144e+01   1.793923e+05   2.103266e+05   1.144991e+06  -4.716365e+00   4.022694e+00   1.702357e-21   1.177889e+06   1.283726e-40   0.000000e+00   0.000000e+00
      712000   7.119990e-06   1.377274e+00   1.428311e+01   2.887304e+01   1.793923e+05   2.103266e+05   1.144991e+06   1.145020e+01  -9.766137e+00  -4.066103e-21   1.177889e+06   7.567500e-40   0.000000e+00   0.000000e+00
      720000   7.199990e-06   1.391625e+00   1.429994e+01   2.896464e+01   1.793923e+05   2.103266e+05   1.144991e+06  -3.387033e+00   2.888876e+00  -1.155979e-21   1.177889e+06   6.619644e-41   0.000000e+00   0.000000e+00
      728000   7.279990e-06   1.405977e+00   1.431676e+01   2.905623e+01   1.793923e+05   2.103266e+05   1.144991e+06   2.988912e+00  -2.549310e+00   1.008605e-21   1.177889e+06   5.160267e-41   0.000000e+00   0.000000e+00
      736000   7.359990e-06   1.420328e+00   1.433359e+01   2.914783e+01   1.793923e+05   2.103266e+05   1.144991e+06   5.125520e+00  -4.371671e+00   9.655906e-22   1.177889e+06   1.516184e-40   0.000000e+00   0.000000e+00
      744000   7.439990e-06   1.434680e+00   1.435041e+01   2.923943e+01   1.793923e+05   2.103266e+05   1.144991e+06   2.625875e+00  -2.239668e+00   5.467778e-22   1.177889e+06   3.983145e-41   0.000000e+00   0.000000e+00
      752000   7.519990e-06   1.449031e+00   1.436724e+01   2.933103e+01   1.793923e+05   2.103266e+05   1.144991e+06   5.716968e+00  -4.876131e+00  -6.844539e-22   1.177889e+06   1.886348e-40   0.000000e+00   0.000000e+00
      760000   7.599990e-06   1.463382e+00   1.438407e+01   2.942263e+01   1.793923e+05   2.103266e+05   1.144991e+06   2.262838e+00  -1.930026e+00  -1.059253e-21   1.177889e+06   2.958199e-41   0.000000e+00   0.000000e+00
      768000   7.679990e-06   1.477734e+00   1.440089e+01   2.951423e+01   1.793923e+05   2.103266e+05   1.144991e+06   4.540551e-02  -3.872738e-02  -3.244003e-23   1.177889e+06   1.185680e-44   0.000000e+00   0.000000e+00
      776000   7.759990e-06   1.492085e+00   1.441772e+01   2.960583e+01   1.793923e+05   2.103266e+05   1.144991e+06  -6.254413e+00   5.482162e+00  -2.711902e-02   1.177889e+06   2.311079e-40   0.000000e+00   0.000000e+00
      784000   7.839990e-06   1.506436e+00   1.443455e+01   2.969743e+01   1.793923e+05   2.103266e+05   1.144991e+06   2.076726e+00  -1.771286e+00  -2.269307e-22   1.177889e+06   2.487789e-41   0.000000e+00   0.000000e+00
      792000   7.919990e-06   1.520788e+00   1.445137e+01   2.978903e+01   1.793923e+05   2.103266e+05   1.144991e+06  -1.240217e+01   2.586864e+01  -2.808764e+00   1.177889e+06   2.776006e-39   0.000000e+00   0.000000e+00
      800000   7.999990e-06   1.535139e+00   1.446820e+01   2.988063e+01   1.793923e+05   2.103266e+05   1.144991e+06   3.825166e+01  -6.432256e+01   5.822486e+00   1.177889e+06   1.882581e-38   0.000000e+00   0.000000e+00
      808000   8.079990e-06   1.549491e+00   1.448502e+01   2.997223e+01   1.793923e+05   2.103266e+05   1.144991e+06   4.447238e+00  -1.885487e+01   2.766729e+00   1.177889e+06   1.279427e-39   0.000000e+00   0.000000e+00
      816000   8.159990e-06   1.563842e+00   1.450185e+01   3.006383e+01   1.793923e+05   2.103266e+05   1.144991e+06   3.896076e-01   3.883408e+00  -7.743961e-01   1.177889e+06   5.296601e-41   0.000000e+00   0.000000e+00
      824000   8.239990e-06   1.578193e+00   1.451868e+01   3.015543e+01   1.793923e+05   2.103266e+05   1.144991e+06   7.711024e+00  -8.925061e+00   4.313392e-01   1.177889e+06   4.653877e-40   0.000000e+00   0.000000e+00
      832000   8.319990e-06   1.592545e+00   1.453550e+01   3.024703e+01   1.793923e+05   2.103266e+05   1.144991e+06   7.349991e+00  -6.268973e+00  -2.773748e-22   1.177889e+06   3.118963e-40   0.000000e+00   0.000000e+00
      840000   8.399990e-06   1.606896e+00   1.455233e+01   3.033862e+01   1.793923e+05   2.103266e+05   1.144991e+06   4.844107e+00  -4.131648e+00   4.923700e-22   1.177889e+06   1.354380e-40   0.000000e+00   0.000000e+00
      848000   8.479990e-06   1.621248e+00   1.456915e+01   3.043022e+01   1.793923e+05   2.103266e+05   1.144991e+06  -2.190596e+00   1.868408e+00   1.287546e-21   1.177889e+06   2.767496e-41   0.000000e+00   0.000000e+00
      856000   8.559990e-06   1.635599e+00   1.458598e+01   3.052182e+01   1.793923e+05   2.103266e+05   1.144991e+06   1.777607e+00  -1.516161e+00  -4.894312e-22   1.177889e+06   1.823102e-41   0.000000e+00   0.000000e+00
      864000   8.639990e-06   1.649950e+00   1.460281e+01   3.061342e+01   1.793923e+05   2.103266e+05   1.144991e+06  -8.051458e-01   6.867269e-01   1.181376e-22   1.177889e+06   3.746921e-42   0.000000e+00   0.000000e+00
      872000   8.719990e-06   1.664302e+00   1.461963e+01   3.070502e+01   1.793923e+05   2.103266e+05   1.144991e+06  -1.960524e+00   1.672175e+00  -2.620158e-22   1.177889e+06   2.217821e-41   0.000000e+00   0.000000e+00
      880000   8.799990e-06   1.678653e+00   1.463646e+01   3.079662e+01   1.793923e+05   2.103266e+05   1.144991e+06  -6.145757e+00   5.241854e+00  -2.884707e-21   1.177889e+06   2.180171e-40   0.000000e+00   0.000000e+00
      888000   8.879990e-06   1.693004e+00   1.465329e+01   3.088822e+01   1.793923e+05   2.103266e+05   1.144991e+06   4.105990e+00  -3.502091e+00  -6.791678e-22   1.177889e+06   9.730812e-41   0.000000e+00   0.000000e+00
      896000   8.959990e-06   1.707356e+00   1.467011e+01   3.097982e+01   1.793923e+05   2.103266e+05   1.144991e+06   4.354490e+00  -3.714042e+00  -1.321849e-22   1.177889e+06   1.094463e-40   0.000000e+00   0.000000e+00
      904000   9.039990e-06   1.721707e+00   1.468694e+01   3.107142e+01   1.793923e+05   2.103266e+05   1.144991e+06   1.121419e+00  -9.564835e-01   2.591753e-22   1.177889e+06   7.260708e-42   0.000000e+00   0.000000e+00
      912000   9.119990e-06   1.736059e+00   1.470376e+01   3.116302e+01   1.793923e+05   2.103266e+05   1.144991e+06   1.238220e+00  -1.056105e+00  -7.549406e-23   1.177889e+06   8.859786e-42   0.000000e+00   0.000000e+00
      920000   9.199990e-06   1.750410e+00   1.472059e+01   3.125462e+01   1.793923e+05   2.103266e+05   1.144991e+06   2.827075e+00  -2.411276e+00   3.836993e-22   1.177889e+06   4.613026e-41   0.000000e+00   0.000000e+00
      928000   9.279990e-06   1.764761e+00   1.473742e+01   3.134622e+01   1.793923e+05   2.103266e+05   1.144991e+06  -1.542922e+00   1.315993e+00   7.645123e-22   1.177889e+06   1.373312e-41   0.000000e+00   0.000000e+00
      936000   9.359990e-06   1.779113e+00   1.475424e+01   3.143782e+01   1.793923e+05   2.103266e+05   1.144991e+06   1.499134e+00  -1.278645e+00  -8.117806e-22   1.177889e+06   1.296885e-41   0.000000e+00   0.000000e+00
      944000   9.439990e-06   1.793464e+00   1.477107e+01   3.152941e+01   1.793923e+05   2.103266e+05   1.144991e+06  -4.324063e+00   3.688091e+00   1.605536e-21   1.177889e+06   1.079144e-40   0.000000e+00   0.000000e+00
      952000   9.519990e-06   1.807815e+00   1.478789e+01   3.162101e+01   1.793923e+05   2.103266e+05   1.144991e+06   1.411723e+00  -1.204090e+00   1.937083e-22   1.177889e+06   1.150571e-41   0.000000e+00   0.000000e+00
      960000   9.599990e-06   1.822167e+00   1.480472e+01   3.171261e+01   1.793923e+05   2.103266e+05   1.144991e+06  -6.566220e-03   5.600477e-03  -6.555535e-25   1.177889e+06   2.949601e-46   0.000000e+00   0.000000e+00
      968000   9.679990e-06   1.836518e+00   1.482155e+01   3.180421e+01   1.793923e+05   2.103266e+05   1.144991e+06   9.745631e-01  -8.312267e-01  -1.097387e-22   1.177889e+06   5.487680e-42   0.000000e+00   0.000000e+00
      976000   9.759990e-06   1.850870e+00   1.483837e+01   3.189581e+01   1.793923e+05   2.103266e+05   1.144991e+06  -2.213536e+00   1.887975e+00   3.701953e-22   1.177889e+06   2.827683e-41   0.000000e+00   0.000000e+00
      984000   9.839990e-06   1.865221e+00   1.485520e+01   3.198741e+01   1.793923e+05   2.103266e+05   1.144991e+06   7.379056e+00  -6.293762e+00   2.852718e-23   1.177889e+06   3.143018e-40   0.000000e+00   0.000000e+00
      992000   9.919990e-06   1.879572e+00   1.487202e+01   3.207901e+01   1.793923e+05   2.103266e+05   1.144991e+06  -2.016503e+00   1.719920e+00  -3.311508e-23   1.177889e+06   2.346604e-41   0.000000e+00   0.000000e+00
     1000000   9.999990e-06   1.893924e+00   1.488885e+01   3.217061e+01   1.793923e+05   2.103266e+05   1.144991e+06   1.011173e+01  -8.624519e+00   6.777436e-21   1.177889e+06   5.902207e-40   0.000000e+00   0.000000e+00
     1008000   1.007999e-05   1.908275e+00   1.490568e+01   3.226221e+01   1.793923e+05   2.103266e+05   1.144991e+06   2.050242e+00  -1.748697e+00   6.524736e-23   1.177889e+06   2.426999e-41   0.000000e+00   0.000000e+00
     1016000   1.015999e-05   1.922627e+00   1.492250e+01   3.235381e+01   1.793923e+05   2.103266e+05   1.144991e+06   2.072941e+00  -1.768058e+00  -4.166917e-22   1.177889e+06   2.480728e-41   0.000000e+00   0.000000e+00
     1024000   1.023999e-05   1.936978e+00   1.493933e+01   3.244541e+01   1.793923e+05   2.103266e+05   1.144991e+06   1.175875e+00  -1.002930e+00  -4.052219e-22   1.177889e+06   7.983903e-42   0.000000e+00   0.000000e+00
     1032000   1.031999e-05   1.951329e+00   1.495616e+01   3.253701e+01   1.793923e+05   2.103266e+05   1.144991e+06   1.553440e+00  -1.324964e+00   5.827707e-22   1.177889e+06   1.393129e-41   0.000000e+00   0.000000e+00
     1040000   1.039999e-05   1.965681e+00   1.497298e+01   3.262861e+01   1.793923e+05   2.103266e+05   1.144991e+06   3.015073e-01  -2.571624e-01   1.363935e-22   1.177889e+06   5.251932e-43   0.000000e+00   0.000000e+00
     1048000   1.047999e-05   1.980032e+00   1.498981e+01   3.272021e+01   1.793923e+05   2.103266e+05   1.144991e+06   1.033939e+00  -8.818698e-01  -1.366607e-22   1.177889e+06   6.171440e-42   0.000000e+00   0.000000e+00
     1056000   1.055999e-05   1.994383e+00   1.500663e+01   3.281180e+01   1.793923e+05   2.103266e+05   1.144991e+06   1.535562e+00  -1.309715e+00   8.574177e-22   1.177889e+06   1.361616e-41   0.000000e+00   0.000000e+00
     1064000   1.063999e-05   2.008735e+00   1.502346e+01   3.290340e+01   1.793923e+05   2.103266e+05   1.144991e+06  -5.321030e-01   4.538426e-01   1.774806e-22   1.177889e+06   1.636469e-42   0.000000e+00   0.000000e+00
     1072000   1.071999e-05   2.023086e+00   1.504029e+01   3.299500e+01   1.793923e+05   2.103266e+05   1.144991e+06   1.931077e+00  -1.647059e+00  -7.805372e-22   1.177889e+06   2.152159e-41   0.000000e+00   0.000000e+00
     1080000   1.079999e-05   2.037438e+00   1.505711e+01   3.308660e+01   1.793923e+05   2.103266e+05   1.144991e+06  -2.803923e+00   2.391529e+00  -4.500354e-22   1.177889e+06   4.537713e-41   0.000000e+00   0.000000e+00
     1088000   1.087999e-05   2.051789e+00   1.507394e+01   3.317820e+01   1.793923e+05   2.103266e+05   1.144991e+06   2.112236e+00  -1.801574e+00   2.759412e-22   1.177889e+06   2.574970e-41   0.000000e+00   0.000000e+00
     1096000   1.095999e-05   2.066140e+00   1.509076e+01   3.326980e+01   1.793923e+05   2.103266e+05   1.144991e+06  -3.686416e+00   3.144227e+00   5.275772e-22   1.177889e+06   7.844035e-41   0.000000e+00   0.000000e+00
     1104000   1.103999e-05   2.080492e+00   1.510759e+01   3.336140e+01   1.793923e+05   2.103266e+05   1.144991e+06  -1.371223e+00   1.169547e+00   3.801011e-22   1.177889e+06   1.085064e-41   0.000000e+00   0.000000e+00
     1112000   1.111999e-05   2.094843e+00   1.512442e+01   3.345300e+01   1.793923e+05   2.103266e+05   1.144991e+06   2.242516e+00  -1.912692e+00  -7.939232e-22   1.177889e+06   2.902078e-41   0.000000e+00   0.000000e+00
     1120000   1.119999e-05   2.109194e+00   1.514124e+01   3.354460e+01   1.793923e+05   2.103266e+05   1.144991e+06   4.869888e-01  -4.153636e-01   1.625737e-22   1.177889e+06   1.369585e-42   0.000000e+00   0.000000e+00
     1128000   1.127999e-05   2.123546e+00   1.515807e+01   3.363620e+01   1.793923e+05   2.103266e+05   1.144991e+06   3.244402e+00  -2.767223e+00  -2.009574e-21   1.177889e+06   6.076317e-41   0.000000e+00   0.000000e+00
     1136000   1.135999e-05   2.137897e+00   1.517489e+01   3.372780e+01   1.793923e+05   2.103266e+05   1.144991e+06   2.973962e-01  -2.536559e-01   1.817420e-23   1.177889e+06   5.108691e-43   0.000000e+00   0.000000e+00
     1144000   1.143999e-05   2.152249e+00   1.519172e+01   3.381940e+01   1.793923e+05   2.103266e+05   1.144991e+06   4.750188e+00  -4.051542e+00   8.076958e-22   1.177889e+06   1.302586e-40   0.000000e+00   0.000000e+00
     1152000   1.151999e-05   2.166600e+00   1.520855e+01   3.391100e+01   1.793923e+05   2.103266e+05   1.144991e+06   2.822794e+00  -2.407625e+00   3.647224e-22   1.177889e+06   4.598515e-41   0.000000e+00   0.000000e+00
     1160000   1.159999e-05   2.180951e+00   1.522537e+01   3.400260e+01   1.793923e+05   2.103266e+05   1.144991e+06  -7.224565e-01   6.161994e-01   1.937999e-22   1.177889e+06   3.006974e-42   0.000000e+00   0.000000e+00
     1168000   1.167999e-05   2.195303e+00   1.524220e+01   3.409419e+01   1.793923e+05   2.103266e+05   1.144991e+06  -6.758285e+00   5.764293e+00   6.511835e-23   1.177889e+06   2.636269e-40   0.000000e+00   0.000000e+00
     1176000   1.175999e-05   2.209654e+00   1.525903e+01   3.418579e+01   1.793923e+05   2.103266e+05   1.144991e+06  -3.994260e-01   3.406794e-01   2.795312e-23   1.177889e+06   9.194171e-43   0.000000e+00   0.000000e+00
     1184000   1.183999e-05   2.224006e+00   1.527585e+01   3.427739e+01   1.793923e+05   2.103266e+05   1.144991e+06   1.404743e+00  -1.198137e+00  -7.718209e-22   1.177889e+06   1.138850e-41   0.000000e+00   0.000000e+00
     1192000   1.191999e-05   2.238357e+00   1.529268e+01   3.436899e+01   1.793923e+05   2.103266e+05   1.144991e+06  -1.168651e+00   9.967687e-01   1.466948e-22   1.177889e+06   7.879870e-42   0.000000e+00   0.000000e+00
     1200000   1.199999e-05   2.252708e+00   1.530950e+01   3.446059e+01   1.793923e+05   2.103266e+05   1.144991e+06   4.591360e-01  -3.916074e-01  -1.272849e-22   1.177889e+06   1.216559e-42   0.000000e+00   0.000000e+00
     1208000   1.207999e-05   2.267060e+00   1.532633e+01   3.455219e+01   1.793923e+05   2.103266e+05   1.144991e+06  -1.065031e+00   9.083886e-01  -6.038669e-22   1.177889e+06   6.545766e-42   0.000000e+00   0.000000e+00
     1216000   1.215999e-05   2.281411e+00   1.534316e+01   3.464379e+01   1.793923e+05   2.103266e+05   1.144991e+06  -6.670709e-01   5.689598e-01   3.261355e-23   1.177889e+06   2.569628e-42   0.000000e+00   0.000000e+00
     1224000   1.223999e-05   2.295762e+00   1.535998e+01   3.473539e+01   1.793923e+05   2.103266e+05   1.144991e+06  -2.039505e+00   1.739540e+00   1.414071e-22   1.177889e+06   2.400882e-41   0.000000e+00   0.000000e+00
     1232000   1.231999e-05   2.310114e+00   1.537681e+01   3.482699e+01   1.793923e+05   2.103266e+05   1.144991e+06   2.345585e+00  -2.000602e+00   1.079002e-21   1.177889e+06   3.176006e-41   0.000000e+00   0.000000e+00
     1240000   1.239999e-05   2.324465e+00   1.539363e+01   3.491859e+01   1.793923e+05   2.103266e+05   1.144991e+06   4.102139e+00  -3.498807e+00   1.298576e-21   1.177889e+06   9.713898e-41   0.000000e+00   0.000000e+00
     1248000   1.247999e-05   2.338817e+00   1.541046e+01   3.501019e+01   1.793923e+05   2.103266e+05   1.144991e+06   2.464404e+00  -2.101946e+00  -9.470908e-22   1.177889e+06   3.506199e-41   0.000000e+00   0.000000e+00
     1256000   1.255999e-05   2.353168e+00   1.542729e+01   3.510179e+01   1.793923e+05   2.103266e+05   1.144991e+06   1.623553e-01  -1.384765e-01  -1.346047e-22   1.177889e+06   1.525471e-43   0.000000e+00   0.000000e+00
     1264000   1.263999e-05   2.367519e+00   1.544411e+01   3.519339e+01   1.793923e+05   2.103266e+05   1.144991e+06  -1.419882e+00   1.211050e+00   8.317261e-22   1.177889e+06   1.163583e-41   0.000000e+00   0.000000e+00
     1272000   1.271999e-05   2.381871e+00   1.546094e+01   3.528498e+01   1.793923e+05   2.103266e+05   1.144991e+06   1.662786e+00  -1.418227e+00  -6.085729e-22   1.177889e+06   1.596191e-41   0.000000e+00   0.000000e+00
     1280000   1.279999e-05   2.396222e+00   1.547777e+01   3.537658e+01   1.793923e+05   2.103266e+05   1.144991e+06  -3.714890e+00   3.168513e+00   6.364930e-22   1.177889e+06   7.966350e-41   0.000000e+00   0.000000e+00
     1288000   1.287999e-05   2.410573e+00   1.549459e+01   3.546818e+01   1.793923e+05   2.103266e+05   1.144991e+06  -5.893257e+00   5.026492e+00   4.198913e-21   1.177889e+06   2.004669e-40   0.000000e+00   0.000000e+00
     1296000   1.295999e-05   2.424925e+00   1.551142e+01   3.555978e+01   1.793923e+05   2.103266e+05   1.144991e+06  -8.488366e-01   7.239918e-01  -4.246288e-22   1.177889e+06   4.161952e-42   0.000000e+00   0.000000e+00
     1304000   1.303999e-05   2.439276e+00   1.552824e+01   3.565138e+01   1.793923e+05   2.103266e+05   1.144991e+06   2.170032e+00  -1.850869e+00   1.317891e-22   1.177889e+06   2.717668e-41   0.000000e+00   0.000000e+00
     1312000   1.311999e-05   2.453628e+00   1.554507e+01   3.574298e+01   1.793923e+05   2.103266e+05   1.144991e+06   3.708899e+00  -3.163403e+00   2.008912e-21   1.177889e+06   7.940539e-41   0.000000e+00   0.000000e+00
     1320000   1.319999e-05   2.467979e+00   1.556190e+01   3.583458e+01   1.793923e+05   2.103266e+05   1.144991e+06   7.270905e+00  -6.201519e+00   4.325449e-21   1.177889e+06   3.051730e-40   0.000000e+00   0.000000e+00
     1328000   1.327999e-05   2.482330e+00   1.557872e+01   3.592618e+01   1.793923e+05   2.103266e+05   1.144991e+06   8.266634e+00  -7.050798e+00  -2.489560e-22   1.177889e+06   3.945001e-40   0.000000e+00   0.000000e+00
     1336000   1.335999e-05   2.496682e+00   1.559555e+01   3.601778e+01   1.793923e+05   2.103266e+05   1.144991e+06   1.237178e+01  -1.055217e+01  -8.306142e-21   1.177889e+06   8.835921e-40   0.000000e+00   0.000000e+00
     1344000   1.343999e-05   2.511033e+00   1.561237e+01   3.610938e+01   1.793923e+05   2.103266e+05   1.144991e+06  -2.298960e+00   1.960834e+00   1.323178e-21   1.177889e+06   3.051545e-41   0.000000e+00   0.000000e+00
     1352000   1.351999e-05   2.525385e+00   1.562920e+01   3.620098e+01   1.793923e+05   2.103266e+05   1.144991e+06  -1.555862e+00   1.327030e+00   2.927260e-23   1.177889e+06   1.397184e-41   0.000000e+00   0.000000e+00
     1360000   1.359999e-05   2.539736e+00   1.564603e+01   3.629258e+01   1.793923e+05   2.103266e+05   1.144991e+06  -3.022674e+00   2.578106e+00   8.527332e-22   1.177889e+06   5.274043e-41   0.000000e+00   0.000000e+00
     1368000   1.367999e-05   2.554087e+00   1.566285e+01   3.638418e+01   1.793923e+05   2.103266e+05   1.144991e+06  -2.065181e+00   1.761440e+00  -1.297164e-21   1.177889e+06   2.462512e-41   0.000000e+00   0.000000e+00
     1376000   1.375999e-05   2.568439e+00   1.567968e+01   3.647578e+01   1.793923e+05   2.103266e+05   1.144991e+06  -3.444842e+00   2.938183e+00  -1.024547e-21   1.177889e+06   6.850245e-41   0.000000e+00   0.000000e+00
     1384000   1.383999e-05   2.582790e+00   1.569650e+01   3.656737e+01   1.793923e+05   2.103266e+05   1.144991e+06  -2.746481e+00   2.342535e+00  -1.529644e-22   1.177889e+06   4.355150e-41   0.000000e+00   0.000000e+00
     1392000   1.391999e-05   2.597141e+00   1.571333e+01   3.665897e+01   1.793923e+05   2.103266e+05   1.144991e+06  -1.208063e+00   1.030384e+00  -2.187655e-22   1.177889e+06   8.423343e-42   0.000000e+00   0.000000e+00
     1400000   1.399999e-05   2.611493e+00   1.573016e+01   3.675057e+01   1.793923e+05   2.103266e+05   1.144991e+06   2.476605e-01  -2.112352e-01  -2.970766e-23   1.177889e+06   3.543951e-43   0.000000e+00   0.000000e+00
     1408000   1.407999e-05   2.625844e+00   1.574698e+01   3.684217e+01   1.793923e+05   2.103266e+05   1.144991e+06  -8.782685e-01   7.490949e-01   8.641700e-23   1.177889e+06   4.453672e-42   0.000000e+00   0.000000e+00
     1416000   1.415999e-05   2.640196e+00   1.576381e+01   3.693377e+01   1.793923e+05   2.103266e+05   1.144991e+06   4.840904e-01  -4.128916e-01   1.811369e-23   1.177889e+06   1.353478e-42   0.000000e+00   0.000000e+00
     1424000   1.423999e-05   2.654547e+00   1.578064e+01   3.702537e+01   1.793923e+05   2.103266e+05   1.144991e+06  -1.952660e+00   1.665467e+00  -4.032252e-22   1.177889e+06   2.201352e-41   0.000000e+00   0.000000e+00
     1432000   1.431999e-05   2.668898e+00   1.579746e+01   3.711697e+01   1.793923e+05   2.103266e+05   1.144991e+06   7.205202e-01  -6.145479e-01  -5.782554e-22   1.177889e+06   2.997989e-42   0.000000e+00   0.000000e+00
     1440000   1.439999e-05   2.683250e+00   1.581429e+01   3.720857e+01   1.793923e+05   2.103266e+05   1.144991e+06   1.528850e-02  -1.303991e-02  -1.738008e-24   1.177889e+06   1.303699e-45   0.000000e+00   0.000000e+00
     1448000   1.447999e-05   2.697601e+00   1.583111e+01   3.730017e+01   1.793923e+05   2.103266e+05   1.144991e+06  -6.500443e-01   5.544374e-01  -4.209415e-22   1.177889e+06   2.437430e-42   0.000000e+00   0.000000e+00
     1456000   1.455999e-05   2.711952e+00   1.584794e+01   3.739177e+01   1.793923e+05   2.103266e+05   1.144991e+06   3.877487e-01  -3.307196e-01   1.320865e-22   1.177889e+06   8.672089e-43   0.000000e+00   0.000000e+00
     1464000   1.463999e-05   2.726304e+00   1.586477e+01   3.748337e+01   1.793923e+05   2.103266e+05   1.144991e+06  -7.054675e-01   6.017091e-01  -4.616036e-22   1.177889e+06   2.872583e-42   0.000000e+00   0.000000e+00
     1472000   1.471999e-05   2.740655e+00   1.588159e+01   3.757497e+01   1.793923e+05   2.103266e+05   1.144991e+06   1.600997e+00  -1.365527e+00   1.787469e-23   1.177889e+06   1.479451e-41   0.000000e+00   0.000000e+00
     1480000   1.479999e-05   2.755007e+00   1.589842e+01   3.766657e+01   1.793923e+05   2.103266e+05   1.144991e+06  -3.667573e-01   3.128155e-01  -2.126866e-22   1.177889e+06   7.762258e-43   0.000000e+00   0.000000e+00
     1488000   1.487999e-05   2.769358e+00   1.591524e+01   3.775817e+01   1.793923e+05   2.103266e+05   1.144991e+06   8.237317e-01  -7.025793e-01  -3.447975e-22   1.177889e+06   3.916194e-42   0.000000e+00   0.000000e+00
     1496000   1.495999e-05   2.783709e+00   1.593207e+01   3.784976e+01   1.793923e+05   2.103266e+05   1.144991e+06  -4.878998e-01   4.161407e-01  -9.156479e-23   1.177889e+06   1.374096e-42   0.000000e+00   0.000000e+00
     1504000   1.503999e-05   2.798061e+00   1.594890e+01   3.794136e+01   1.793923e+05   2.103266e+05   1.144991e+06   1.849909e+00  -1.577829e+00  -8.832008e-22   1.177889e+06   1.975425e-41   0.000000e+00   0.000000e+00
     1512000   1.511999e-05   2.812412e+00   1.596572e+01   3.803296e+01   1.793923e+05   2.103266e+05   1.144991e+06   3.681816e-01  -3.140304e-01  -7.590673e-23   1.177889e+06   7.817776e-43   0.000000e+00   0.000000e+00
     1520000   1.519999e-05   2.826764e+00   1.598255e+01   3.812456e+01   1.793923e+05   2.103266e+05   1.144991e+06  -1.466297e+00   1.250637e+00   1.528026e-21   1.177889e+06   1.240809e-41   0.000000e+00   0.000000e+00
     1528000   1.527999e-05   2.841115e+00   1.599938e+01   3.821616e+01   1.793923e+05   2.103266e+05   1.144991e+06   7.289896e-01  -6.217716e-01  -5.155676e-23   1.177889e+06   3.066386e-42   0.000000e+00   0.000000e+00
     1536000   1.535999e-05   2.855466e+00   1.601620e+01   3.830776e+01   1.793923e+05   2.103266e+05   1.144991e+06   6.042216e-01  -5.153542e-01   1.241444e-22   1.177889e+06   2.107727e-42   0.000000e+00   0.000000e+00
     1544000   1.543999e-05   2.869818e+00   1.603303e+01   3.839936e+01   1.793923e+05   2.103266e+05   1.144991e+06   5.596097e-01  -4.773037e-01  -1.042770e-22   1.177889e+06   1.807977e-42   0.000000e+00   0.000000e+00
     1552000   1.551999e-05   2.884169e+00   1.604985e+01   3.849096e+01   1.793923e+05   2.103266e+05   1.144991e+06   2.690106e+00  -2.294451e+00  -6.989862e-22   1.177889e+06   4.177619e-41   0.000000e+00   0.000000e+00
     1560000   1.559999e-05   2.898520e+00   1.606668e+01   3.858256e+01   1.793923e+05   2.103266e+05   1.144991e+06   6.888730e-01  -5.875553e-01   1.222968e-22   1.177889e+06   2.739676e-42   0.000000e+00   0.000000e+00
     1568000   1.567999e-05   2.912872e+00   1.608351e+01   3.867416e+01   1.793923e+05   2.103266e+05   1.144991e+06   7.440192e-01  -6.345907e-01   6.971124e-23   1.177889e+06   3.197625e-42   0.000000e+00   0.000000e+00
     1576000   1.575999e-05   2.927223e+00   1.610033e+01   3.876576e+01   1.793923e+05   2.103266e+05   1.144991e+06   5.662245e-02  -4.829456e-02  -3.266723e-23   1.177889e+06   1.836953e-44   0.000000e+00   0.000000e+00
     1584000   1.583999e-05   2.941575e+00   1.611716e+01   3.885736e+01   1.793923e+05   2.103266e+05   1.144991e+06  -2.527160e+00   2.155472e+00   2.071572e-21   1.177889e+06   3.685698e-41   0.000000e+00   0.000000e+00
     1592000   1.591999e-05   2.955926e+00   1.613398e+01   3.894896e+01   1.793923e+05   2.103266e+05   1.144991e+06  -1.335704e+00   1.139252e+00  -5.269893e-23   1.177889e+06   1.030323e-41   0.000000e+00   0.000000e+00
     1600000   1.599999e-05   2.970277e+00   1.615081e+01   3.904055e+01   1.793923e+05   2.103266e+05   1.144991e+06  -5.137699e+00   4.382059e+00   3.560113e-22   1.177889e+06   1.523606e-40   0.000000e+00   0.000000e+00
     1608000   1.607999e-05   2.984629e+00   1.616764e+01   3.913215e+01   1.793923e+05   2.103266e+05   1.144991e+06  -2.728030e+00   2.326798e+00  -2.224079e-21   1.177889e+06   4.297149e-41   0.000000e+00   0.000000e+00
     1616000   1.615999e-05   2.998980e+00   1.618446e+01   3.922375e+01   1.793923e+05   2.103266e+05   1.144991e+06  -7.748238e+00   6.608646e+00   4.335636e-21   1.177889e+06   3.465513e-40   0.000000e+00   0.000000e+00
     1624000   1.623999e-05   3.013331e+00   1.620129e+01   3.931535e+01   1.793923e+05   2.103266e+05   1.144991e+06  -9.069546e-01   7.735620e-01  -1.585586e-22   1.177889e+06   4.750185e-42   0.000000e+00   0.000000e+00
     1632000   1.631999e-05   3.027683e+00   1.621811e+01   3.940695e+01   1.793923e+05   2.103266e+05   1.144991e+06  -1.013713e-01   8.646189e-02   1.644202e-24   1.177889e+06   5.921411e-44   0.000000e+00   0.000000e+00
     1640000   1.639999e-05   3.042034e+00   1.623494e+01   3.949855e+01   1.793923e+05   2.103266e+05   1.144991e+06  -8.656289e-01   7.383143e-01   1.804513e-22   1.177889e+06   4.324953e-42   0.000000e+00   0.000000e+00
     1648000   1.647999e-05   3.056386e+00   1.625177e+01   3.959015e+01   1.793923e+05   2.103266e+05   1.144991e+06   2.808973e-01  -2.395836e-01  -2.486341e-22   1.177889e+06   4.550963e-43   0.000000e+00   0.000000e+00
     1656000   1.655999e-05   3.070737e+00   1.626859e+01   3.968175e+01   1.793923e+05   2.103266e+05   1.144991e+06  -4.339785e-01   3.701500e-01   1.590781e-22   1.177889e+06   1.086823e-42   0.000000e+00   0.000000e+00
     1664000   1.663999e-05   3.085088e+00   1.628542e+01   3.977335e+01   1.793923e+05   2.103266e+05   1.144991e+06   4.194101e-01  -3.577243e-01   9.127527e-24   1.177889e+06   1.014892e-42   0.000000e+00   0.000000e+00
     1672000   1.671999e-05   3.099440e+00   1.630225e+01   3.986495e+01   1.793923e+05   2.103266e+05   1.144991e+06  -5.500157e+00   4.691207e+00  -1.571681e-22   1.177889e+06   1.746196e-40   0.000000e+00   0.000000e+00
     1680000   1.679999e-05   3.113791e+00   1.631907e+01   3.995655e+01   1.793923e+05   2.103266e+05   1.144991e+06  -2.906372e+00   2.478910e+00   9.253703e-22   1.177889e+06   4.875865e-41   0.000000e+00   0.000000e+00
     1688000   1.687999e-05   3.128143e+00   1.633590e+01   4.004815e+01   1.793923e+05   2.103266e+05   1.144991e+06   1.797170e-02  -1.532846e-02   1.101990e-24   1.177889e+06   1.767898e-45   0.000000e+00   0.000000e+00
     1696000   1.695999e-05   3.142494e+00   1.635272e+01   4.013975e+01   1.793923e+05   2.103266e+05   1.144991e+06  -1.612459e+00   1.375303e+00  -8.669533e-22   1.177889e+06   1.500634e-41   0.000000e+00   0.000000e+00
     1704000   1.703999e-05   3.156845e+00   1.636955e+01   4.023135e+01   1.793923e+05   2.103266e+05   1.144991e+06   2.824655e+00  -2.409212e+00  -5.157184e-22   1.177889e+06   4.604679e-41   0.000000e+00   0.000000e+00
     1712000   1.711999e-05   3.171197e+00   1.638638e+01   4.032294e+01   1.793923e+05   2.103266e+05   1.144991e+06  -3.185458e-01   2.716949e-01  -7.089350e-23   1.177889e+06   5.850168e-43   0.000000e+00   0.000000e+00
     1720000   1.719999e-05   3.185548e+00   1.640320e+01   4.041454e+01   1.793923e+05   2.103266e+05   1.144991e+06   4.647019e-01  -3.963547e-01   1.541591e-23   1.177889e+06   1.247752e-42   0.000000e+00   0.000000e+00
     1728000   1.727999e-05   3.199899e+00   1.642003e+01   4.050614e+01   1.793923e+05   2.103266e+05   1.144991e+06  -1.479210e-01   1.261651e-01   5.138901e-23   1.177889e+06   1.264874e-43   0.000000e+00   0.000000e+00
     1736000   1.735999e-05   3.214251e+00   1.643685e+01   4.059774e+01   1.793923e+05   2.103266e+05   1.144991e+06  -1.272896e+00   1.085681e+00   5.337695e-23   1.177889e+06   9.352953e-42   0.000000e+00   0.000000e+00
     1744000   1.743999e-05   3.228602e+00   1.645368e+01   4.068934e+01   1.793923e+05   2.103266e+05   1.144991e+06  -4.653550e+00   3.969117e+00   6.397183e-22   1.177889e+06   1.250037e-40   0.000000e+00   0.000000e+00
     1752000   1.751999e-05   3.242954e+00   1.647051e+01   4.078094e+01   1.793923e+05   2.103266e+05   1.144991e+06  -3.707554e+00   3.162257e+00   2.220518e-21   1.177889e+06   7.935449e-41   0.000000e+00   0.000000e+00
     1760000   1.759999e-05   3.257305e+00   1.648733e+01   4.087254e+01   1.793923e+05   2.103266e+05   1.144991e+06  -8.531365e+00   7.276593e+00  -3.553076e-21   1.177889e+06   4.201634e-40   0.000000e+00   0.000000e+00
     1768000   1.767999e-05   3.271656e+00   1.650416e+01   4.096414e+01   1.793923e+05   2.103266e+05   1.144991e+06  -3.050159e+00   2.601549e+00   7.633337e-22   1.177889e+06   5.371851e-41   0.000000e+00   0.000000e+00
     1776000   1.775999e-05   3.286008e+00   1.652099e+01   4.105574e+01   1.793923e+05   2.103266e+05   1.144991e+06   8.755984e-01  -7.468175e-01  -9.211335e-23   1.177889e+06   4.425256e-42   0.000000e+00   0.000000e+00
     1784000   1.783999e-05   3.300359e+00   1.653781e+01   4.114734e+01   1.793923e+05   2.103266e+05   1.144991e+06  -6.745871e-01   5.753705e-01   4.480428e-23   1.177889e+06   2.632197e-42   0.000000e+00   0.000000e+00
     1792000   1.791999e-05   3.314710e+00   1.655464e+01   4.123894e+01   1.793923e+05   2.103266e+05   1.144991e+06  -2.205496e+00   1.881117e+00   7.476163e-22   1.177889e+06   2.806604e-41   0.000000e+00   0.000000e+00
     1800000   1.799999e-05   3.329062e+00   1.657146e+01   4.133054e+01   1.793923e+05   2.103266e+05   1.144991e+06   2.324651e-03  -1.982747e-03   3.761119e-25   1.177889e+06   1.630988e-47   0.000000e+00   0.000000e+00
     1808000   1.807999e-05   3.343413e+00   1.658829e+01   4.142214e+01   1.793923e+05   2.103266e+05   1.144991e+06  -2.538743e+00   2.165351e+00  -6.870176e-22   1.177889e+06   3.719104e-41   0.000000e+00   0.000000e+00
     1816000   1.815999e-05   3.357765e+00   1.660512e+01   4.151374e+01   1.793923e+05   2.103266e+05   1.144991e+06  -3.325140e+00   2.836086e+00  -1.123845e-21   1.177889e+06   6.383177e-41   0.000000e+00   0.000000e+00
     1824000   1.823999e-05   3.372116e+00   1.662194e+01   4.160533e+01   1.793923e+05   2.103266e+05   1.144991e+06  -2.763520e+00   2.357068e+00   3.284311e-22   1.177889e+06   4.408668e-41   0.000000e+00   0.000000e+00
     1832000   1.831999e-05   3.386467e+00   1.663877e+01   4.169693e+01   1.793923e+05   2.103266e+05   1.144991e+06  -3.567576e+00   3.042866e+00  -1.269705e-22   1.177889e+06   7.347435e-41   0.000000e+00   0.000000e+00
     1840000   1.839999e-05   3.400819e+00   1.665559e+01   4.178853e+01   1.793923e+05   2.103266e+05   1.144991e+06  -8.462097e-01   7.217512e-01  -3.609793e-22   1.177889e+06   4.136835e-42   0.000000e+00   0.000000e+00
     1848000   1.847999e-05   3.415170e+00   1.667242e+01   4.188013e+01   1.793923e+05   2.103266e+05   1.144991e+06  -4.349568e+00   3.709844e+00   1.862035e-22   1.177889e+06   1.092140e-40   0.000000e+00   0.000000e+00
     1856000   1.855999e-05   3.429522e+00   1.668925e+01   4.197173e+01   1.793923e+05   2.103266e+05   1.144991e+06   1.346142e+00  -1.148154e+00  -5.279939e-22   1.177889e+06   1.045701e-41   0.000000e+00   0.000000e+00
     1864000   1.863999e-05   3.443873e+00   1.670607e+01   4.206333e+01   1.793923e+05   2.103266e+05   1.144991e+06  -2.134885e+00   1.820892e+00   1.012662e-21   1.177889e+06   2.632224e-41   0.000000e+00   0.000000e+00
     1872000   1.871999e-05   3.458224e+00   1.672290e+01   4.215493e+01   1.793923e+05   2.103266e+05   1.144991e+06  -4.795498e+00   4.090188e+00   9.621430e-22   1.177889e+06   1.327354e-40   0.000000e+00   0.000000e+00
     1880000   1.879999e-05   3.472576e+00   1.673972e+01   4.224653e+01   1.793923e+05   2.103266e+05   1.144991e+06  -2.934307e+00   2.502736e+00  -1.412379e-21   1.177889e+06   4.972116e-41   0.000000e+00   0.000000e+00
     1888000   1.887999e-05   3.486927e+00   1.675655e+01   4.233813e+01   1.793923e+05   2.103266e+05   1.144991e+06  -6.050974e+00   5.161011e+00   9.901258e-22   1.177889e+06   2.113438e-40   0.000000e+00   0.000000e+00
     1896000   1.895999e-05   3.501278e+00   1.677338e+01   4.242973e+01   1.793923e+05   2.103266e+05   1.144991e+06  -1.100817e+00   9.389114e-01  -2.587037e-22   1.177889e+06   7.000849e-42   0.000000e+00   0.000000e+00
     1904000   1.903999e-05   3.515630e+00   1.679020e+01   4.252133e+01   1.793923e+05   2.103266e+05   1.144991e+06  -1.015400e+00   8.660579e-01  -3.719812e-22   1.177889e+06   5.951580e-42   0.000000e+00   0.000000e+00
     1912000   1.911999e-05   3.529981e+00   1.680703e+01   4.261293e+01   1.793923e+05   2.103266e+05   1.144991e+06  -1.354523e+00   1.155303e+00  -1.072791e-22   1.177889e+06   1.058992e-41   0.000000e+00   0.000000e+00
     1920000   1.919999e-05   3.544333e+00   1.682386e+01   4.270453e+01   1.793923e+05   2.103266e+05   1.144991e+06  -1.497091e+00   1.276903e+00  -5.878918e-22   1.177889e+06   1.293952e-41   0.000000e+00   0.000000e+00
     1928000   1.927999e-05   3.558684e+00   1.684068e+01   4.279613e+01   1.793923e+05   2.103266e+05   1.144991e+06  -1.388906e+00   1.184629e+00   5.408701e-23   1.177889e+06   1.113699e-41   0.000000e+00   0.000000e+00
     1936000   1.935999e-05   3.573035e+00   1.685751e+01   4.288772e+01   1.793923e+05   2.103266e+05   1.144991e+06  -3.934038e+00   3.355429e+00  -1.063298e-21   1.177889e+06   8.934257e-41   0.000000e+00   0.000000e+00
     1944000   1.943999e-05   3.587387e+00   1.687433e+01   4.297932e+01   1.793923e+05   2.103266e+05   1.144991e+06  -2.114159e+00   1.803214e+00   1.804321e-22   1.177889e+06   2.580445e-41   0.000000e+00   0.000000e+00
     1952000   1.951999e-05   3.601738e+00   1.689116e+01   4.307092e+01   1.793923e+05   2.103266e+05   1.144991e+06  -4.939742e+00   4.213217e+00   6.159575e-22   1.177889e+06   1.408767e-40   0.000000e+00   0.000000e+00
     1960000   1.959999e-05   3.616089e+00   1.690799e+01   4.316252e+01   1.793923e+05   2.103266e+05   1.144991e+06  -5.027748e+00   4.288280e+00  -7.342659e-22   1.177889e+06   1.459187e-40   0.000000e+00   0.000000e+00
     1968000   1.967999e-05   3.630441e+00   1.692481e+01   4.325412e+01   1.793923e+05   2.103266e+05   1.144991e+06  -2.348487e+00   2.003078e+00  -1.086679e-21   1.177889e+06   3.185328e-41   0.000000e+00   0.000000e+00
     1976000   1.975999e-05   3.644792e+00   1.694164e+01   4.334572e+01   1.793923e+05   2.103266e+05   1.144991e+06  -4.744445e+00   4.046644e+00  -8.561868e-22   1.177889e+06   1.299367e-40   0.000000e+00   0.000000e+00
     1984000   1.983999e-05   3.659144e+00   1.695846e+01   4.343732e+01   1.793923e+05   2.103266e+05   1.144991e+06  -1.686202e-01   1.438199e-01  -3.228325e-23   1.177889e+06   1.650112e-43   0.000000e+00   0.000000e+00
     1992000   1.991999e-05   3.673495e+00   1.697529e+01   4.352892e+01   1.793923e+05   2.103266e+05   1.144991e+06  -4.461143e+00   3.805009e+00   1.891752e-22   1.177889e+06   1.148814e-40   0.000000e+00   0.000000e+00
     2000000   1.999999e-05   3.687846e+00   1.699212e+01   4.362052e+01   1.793923e+05   2.103266e+05   1.144991e+06   2.011247e+00  -1.715438e+00   3.674040e-23   1.177889e+06   2.334281e-41   0.000000e+00   0.000000e+00
     2008000   2.007999e-05   3.702198e+00   1.700894e+01   4.371212e+01   1.793923e+05   2.103266e+05   1.144991e+06  -3.505182e+00   2.989648e+00  -2.585425e-22   1.177889e+06   7.094254e-41   0.000000e+00   0.000000e+00
     2016000   2.015999e-05   3.716549e+00   1.702577e+01   4.380372e+01   1.793923e+05   2.103266e+05   1.144991e+06  -3.026432e+00   2.581312e+00  -2.802939e-22   1.177889e+06   5.287272e-41   0.000000e+00   0.000000e+00
     2024000   2.023999e-05   3.730901e+00   1.704259e+01   4.389532e+01   1.793923e+05   2.103266e+05   1.144991e+06  -4.253518e+00   3.627921e+00   3.267322e-22   1.177889e+06   1.044429e-40   0.000000e+00   0.000000e+00
     2032000   2.031999e-05   3.745252e+00   1.705942e+01   4.398692e+01   1.793923e+05   2.103266e+05   1.144991e+06   1.025171e+00  -8.743910e-01   2.882644e-22   1.177889e+06   6.064019e-42   0.000000e+00   0.000000e+00
     2040000   2.039999e-05   3.759603e+00   1.707625e+01   4.407851e+01   1.793923e+05   2.103266e+05   1.144991e+06  -4.284256e+00   3.654138e+00  -7.231953e-22   1.177889e+06   1.059579e-40   0.000000e+00   0.000000e+00
     2048000   2.047999e-05   3.773955e+00   1.709307e+01   4.417011e+01   1.793923e+05   2.103266e+05   1.144991e+06   3.237594e+00  -2.761417e+00   1.902129e-21   1.177889e+06   6.050354e-41   0.000000e+00   0.000000e+00
     2056000   2.055999e-05   3.788306e+00   1.710990e+01   4.426171e+01   1.793923e+05   2.103266e+05   1.144991e+06  -2.189205e+00   1.867222e+00   3.799677e-23   1.177889e+06   2.767331e-41   0.000000e+00   0.000000e+00
     2064000   2.063999e-05   3.802657e+00   1.712673e+01   4.435331e+01   1.793923e+05   2.103266e+05   1.144991e+06  -4.191496e+00   3.575021e+00  -2.164685e-21   1.177889e+06   1.014128e-40   0.000000e+00   0.000000e+00
     2072000   2.071999e-05   3.817009e+00   1.714355e+01   4.444491e+01   1.793923e+05   2.103266e+05   1.144991e+06  -4.270713e+00   3.642587e+00  -1.066622e-21   1.177889e+06   1.053000e-40   0.000000e+00   0.000000e+00
     2080000   2.079999e-05   3.831360e+00   1.716038e+01   4.453651e+01   1.793923e+05   2.103266e+05   1.144991e+06  -6.109374e+00   5.210823e+00   2.672548e-21   1.177889e+06   2.154600e-40   0.000000e+00   0.000000e+00
     2088000   2.087999e-05   3.845712e+00   1.717720e+01   4.462811e+01   1.793923e+05   2.103266e+05   1.144991e+06  -5.833361e+00   4.975404e+00   2.977386e-21   1.177889e+06   1.964543e-40   0.000000e+00   0.000000e+00
     2096000   2.095999e-05   3.860063e+00   1.719403e+01   4.471971e+01   1.793923e+05   2.103266e+05   1.144991e+06  -8.027253e+00   6.846624e+00   2.864636e-21   1.177889e+06   3.719776e-40   0.000000e+00   0.000000e+00
     2104000   2.103999e-05   3.874414e+00   1.721086e+01   4.481131e+01   1.793923e+05   2.103266e+05   1.144991e+06   8.638633e-01  -7.368084e-01   5.649646e-22   1.177889e+06   4.306466e-42   0.000000e+00   0.000000e+00
     2112000   2.111999e-05   3.888766e+00   1.722768e+01   4.490291e+01   1.793923e+05   2.103266e+05   1.144991e+06   2.711988e+00  -2.313115e+00   5.883159e-22   1.177889e+06   4.244801e-41   0.000000e+00   0.000000e+00
     2120000   2.119999e-05   3.903117e+00   1.724451e+01   4.499451e+01   1.793923e+05   2.103266e+05   1.144991e+06   1.007508e+00  -8.593266e-01  -7.011582e-22   1.177889e+06   5.861552e-42   0.000000e+00   0.000000e+00
     2128000   2.127999e-05   3.917468e+00   1.726133e+01   4.508611e+01   1.793923e+05   2.103266e+05   1.144991e+06  -1.875805e+00   1.599916e+00   7.845131e-22   1.177889e+06   2.030810e-41   0.000000e+00   0.000000e+00
     2136000   2.135999e-05   3.931820e+00   1.727816e+01   4.517771e+01   1.793923e+05   2.103266e+05   1.144991e+06  -2.126430e+00   1.813680e+00   1.143926e-22   1.177889e+06   2.610165e-41   0.000000e+00   0.000000e+00
     2144000   2.143999e-05   3.946171e+00   1.729499e+01   4.526931e+01   1.793923e+05   2.103266e+05   1.144991e+06  -4.770014e+00   4.068453e+00  -1.728630e-21   1.177889e+06   1.313427e-40   0.000000e+00   0.000000e+00
     2152000   2.151999e-05   3.960523e+00   1.731181e+01   4.536090e+01   1.793923e+05   2.103266e+05   1.144991e+06  -4.316277e+00   3.681450e+00   6.426998e-22   1.177889e+06   1.075418e-40   0.000000e+00   0.000000e+00
     2160000   2.159999e-05   3.974874e+00   1.732864e+01   4.545250e+01   1.793923e+05   2.103266e+05   1.144991e+06  -6.175074e+00   5.266860e+00   1.187391e-21   1.177889e+06   2.201435e-40   0.000000e+00   0.000000e+00
     2168000   2.167999e-05   3.989225e+00   1.734547e+01   4.554410e+01   1.793923e+05   2.103266e+05   1.144991e+06  -5.620288e+00   4.793670e+00   2.090896e-21   1.177889e+06   1.823429e-40   0.000000e+00   0.000000e+00
     2176000   2.175999e-05   4.003577e+00   1.736229e+01   4.563570e+01   1.793923e+05   2.103266e+05   1.144991e+06  -2.688357e+00   2.292960e+00   2.513183e-22   1.177889e+06   4.174374e-41   0.000000e+00   0.000000e+00
     2184000   2.183999e-05   4.017928e+00   1.737912e+01   4.572730e+01   1.793923e+05   2.103266e+05   1.144991e+06  -2.665588e+00   2.273540e+00  -1.527189e-21   1.177889e+06   4.101230e-41   0.000000e+00   0.000000e+00
     2192000   2.191999e-05   4.032280e+00   1.739594e+01   4.581890e+01   1.793923e+05   2.103266e+05   1.144991e+06   5.241412e-01  -4.470518e-01   1.192274e-22   1.177889e+06   1.582214e-42   0.000000e+00   0.000000e+00
     2200000   2.199999e-05   4.046631e+00   1.741277e+01   4.591050e+01   1.793923e+05   2.103266e+05   1.144991e+06  -2.528694e+00   2.156780e+00  -1.496795e-21   1.177889e+06   3.691568e-41   0.000000e+00   0.000000e+00
     2208000   2.207999e-05   4.060982e+00   1.742960e+01   4.600210e+01   1.793923e+05   2.103266e+05   1.144991e+06  -2.744487e+00   2.340834e+00   1.200876e-21   1.177889e+06   4.348361e-41   0.000000e+00   0.000000e+00
     2216000   2.215999e-05   4.075334e+00   1.744642e+01   4.609370e+01   1.793923e+05   2.103266e+05   1.144991e+06  -3.007705e+00   2.565339e+00  -1.193844e-22   1.177889e+06   5.222457e-41   0.000000e+00   0.000000e+00
     2224000   2.223999e-05   4.089685e+00   1.746325e+01   4.618530e+01   1.793923e+05   2.103266e+05   1.144991e+06  -2.509561e+00   2.140461e+00   1.215564e-21   1.177889e+06   3.635917e-41   0.000000e+00   0.000000e+00
     2232000   2.231999e-05   4.104036e+00   1.748007e+01   4.627690e+01   1.793923e+05   2.103266e+05   1.144991e+06  -7.311717e+00   6.236328e+00   1.763226e-21   1.177889e+06   3.086281e-40   0.000000e+00   0.000000e+00
     2240000   2.239999e-05   4.118388e+00   1.749690e+01   4.636850e+01   1.793923e+05   2.103266e+05   1.144991e+06  -8.363841e+00   7.133708e+00   1.733639e-21   1.177889e+06   4.038357e-40   0.000000e+00   0.000000e+00
     2248000   2.247999e-05   4.132739e+00   1.751373e+01   4.646010e+01   1.793923e+05   2.103266e+05   1.144991e+06  -3.977969e+00   3.392899e+00   8.940464e-22   1.177889e+06   9.137156e-41   0.000000e+00   0.000000e+00
     2256000   2.255999e-05   4.147091e+00   1.753055e+01   4.655170e+01   1.793923e+05   2.103266e+05   1.144991e+06  -5.785590e+00   4.934660e+00  -1.209032e-21   1.177889e+06   1.932457e-40   0.000000e+00   0.000000e+00
     2264000   2.263999e-05   4.161442e+00   1.754738e+01   4.664329e+01   1.793923e+05   2.103266e+05   1.144991e+06  -1.243428e-01   1.060547e-01   6.779714e-23   1.177889e+06   8.974995e-44   0.000000e+00   0.000000e+00
     2272000   2.271999e-05   4.175793e+00   1.756420e+01   4.673489e+01   1.793923e+05   2.103266e+05   1.144991e+06  -4.116466e+00   3.511026e+00   2.245049e-21   1.177889e+06   9.782811e-41   0.000000e+00   0.000000e+00
     2280000   2.279999e-05   4.190145e+00   1.758103e+01   4.682649e+01   1.793923e+05   2.103266e+05   1.144991e+06   3.729283e+00  -3.180790e+00  -2.881839e-21   1.177889e+06   8.027589e-41   0.000000e+00   0.000000e+00
     2288000   2.287999e-05   4.204496e+00   1.759786e+01   4.691809e+01   1.793923e+05   2.103266e+05   1.144991e+06   1.997689e+00  -1.703874e+00   5.987036e-22   1.177889e+06   2.301826e-41   0.000000e+00   0.000000e+00
     2296000   2.295999e-05   4.218847e+00   1.761468e+01   4.700969e+01   1.793923e+05   2.103266e+05   1.144991e+06  -4.736975e+00   4.040272e+00   2.451697e-21   1.177889e+06   1.295690e-40   0.000000e+00   0.000000e+00
     2304000   2.303999e-05   4.233199e+00   1.763151e+01   4.710129e+01   1.793923e+05   2.103266e+05   1.144991e+06  -3.229833e+00   2.754797e+00  -1.284044e-21   1.177889e+06   6.019464e-41   0.000000e+00   0.000000e+00
     2312000   2.311999e-05   4.247550e+00   1.764834e+01   4.719289e+01   1.793923e+05   2.103266e+05   1.144991e+06  -9.655628e+00   8.235502e+00   5.694617e-21   1.177889e+06   5.381490e-40   0.000000e+00   0.000000e+00
     2320000   2.319999e-05   4.261902e+00   1.766516e+01   4.728449e+01   1.793923e+05   2.103266e+05   1.144991e+06  -3.529073e+00   3.010026e+00   4.287429e-22   1.177889e+06   7.191993e-41   0.000000e+00   0.000000e+00
     2328000   2.327999e-05   4.276253e+00   1.768199e+01   4.737609e+01   1.793923e+05   2.103266e+05   1.144991e+06  -1.258537e+01   1.073434e+01  -3.764997e-21   1.177889e+06   9.143028e-40   0.000000e+00   0.000000e+00
     2336000   2.335999e-05   4.290604e+00   1.769881e+01   4.746769e+01   1.793923e+05   2.103266e+05   1.144991e+06  -6.031089e+00   5.144052e+00   3.336102e-21   1.177889e+06   2.100255e-40   0.000000e+00   0.000000e+00
     2344000   2.343999e-05   4.304956e+00   1.771564e+01   4.755929e+01   1.793923e+05   2.103266e+05   1.144991e+06  -4.712264e+00   4.019196e+00  -2.487550e-21   1.177889e+06   1.282149e-40   0.000000e+00   0.000000e+00
     2352000   2.351999e-05   4.319307e+00   1.773247e+01   4.765089e+01   1.793923e+05   2.103266e+05   1.144991e+06  -2.311695e+00   1.971697e+00  -8.048490e-22   1.177889e+06   3.085730e-41   0.000000e+00   0.000000e+00
     2360000   2.359999e-05   4.333659e+00   1.774929e+01   4.774249e+01   1.793923e+05   2.103266e+05   1.144991e+06  -1.532774e-01   1.307337e-01   2.392640e-23   1.177889e+06   1.362634e-43   0.000000e+00   0.000000e+00
     2368000   2.367999e-05   4.348010e+00   1.776612e+01   4.783408e+01   1.793923e+05   2.103266e+05   1.144991e+06   2.348915e+00  -2.003442e+00   1.407266e-21   1.177889e+06   3.184684e-41   0.000000e+00   0.000000e+00
     2376000   2.375999e-05   4.362361e+00   1.778294e+01   4.792568e+01   1.793923e+05   2.103266e+05   1.144991e+06   4.405709e+00  -3.757729e+00  -9.066780e-22   1.177889e+06   1.120406e-40   0.000000e+00   0.000000e+00
     2384000   2.383999e-05   4.376713e+00   1.779977e+01   4.801728e+01   1.793923e+05   2.103266e+05   1.144991e+06   7.009524e+00  -5.978581e+00   2.421448e-21   1.177889e+06   2.836374e-40   0.000000e+00   0.000000e+00
     2392000   2.391999e-05   4.391064e+00   1.781660e+01   4.810888e+01   1.793923e+05   2.103266e+05   1.144991e+06  -3.710159e+00   3.164478e+00  -1.043318e-22   1.177889e+06   7.946981e-41   0.000000e+00   0.000000e+00
     2400000   2.399999e-05   4.405415e+00   1.783342e+01   4.820048e+01   1.793923e+05   2.103266e+05   1.144991e+06  -5.386493e+00   4.594261e+00  -8.960106e-23   1.177889e+06   1.674713e-40   0.000000e+00   0.000000e+00
     2408000   2.407999e-05   4.419767e+00   1.785025e+01   4.829208e+01   1.793923e+05   2.103266e+05   1.144991e+06  -9.627228e+00   8.211279e+00  -1.742775e-21   1.177889e+06   5.350181e-40   0.000000e+00   0.000000e+00
     2416000   2.415999e-05   4.434118e+00   1.786708e+01   4.838368e+01   1.793923e+05   2.103266e+05   1.144991e+06  -7.396017e+00   6.308229e+00   1.987496e-22   1.177889e+06   3.157905e-40   0.000000e+00   0.000000e+00
     2424000   2.423999e-05   4.448470e+00   1.788390e+01   4.847528e+01   1.793923e+05   2.103266e+05   1.144991e+06  -1.563933e+01   1.333913e+01  -8.910693e-21   1.177889e+06   1.411954e-39   0.000000e+00   0.000000e+00
     2432000   2.431999e-05   4.462821e+00   1.790073e+01   4.856688e+01   1.793923e+05   2.103266e+05   1.144991e+06  -6.173897e+00   5.265856e+00   2.283481e-22   1.177889e+06   2.200391e-40   0.000000e+00   0.000000e+00
     2440000   2.439999e-05   4.477172e+00   1.791755e+01   4.865848e+01   1.793923e+05   2.103266e+05   1.144991e+06   1.464149e+00  -1.248806e+00   2.964353e-22   1.177889e+06   1.236070e-41   0.000000e+00   0.000000e+00
     2448000   2.447999e-05   4.491524e+00   1.793438e+01   4.875008e+01   1.793923e+05   2.103266e+05   1.144991e+06  -2.008579e+00   1.713162e+00   8.183754e-22   1.177889e+06   2.328580e-41   0.000000e+00   0.000000e+00
     2456000   2.455999e-05   4.505875e+00   1.795121e+01   4.884168e+01   1.793923e+05   2.103266e+05   1.144991e+06  -2.271996e+00   1.937837e+00   3.736486e-22   1.177889e+06   2.979593e-41   0.000000e+00   0.000000e+00
     2464000   2.463999e-05   4.520227e+00   1.796803e+01   4.893328e+01   1.793923e+05   2.103266e+05   1.144991e+06  -7.285279e+00   6.213778e+00  -2.870889e-21   1.177889e+06   3.063934e-40   0.000000e+00   0.000000e+00
     2472000   2.471999e-05   4.534578e+00   1.798486e+01   4.902488e+01   1.793923e+05   2.103266e+05   1.144991e+06  -3.948240e+00   3.367543e+00  -1.438746e-21   1.177889e+06   8.998694e-41   0.000000e+00   0.000000e+00
     2480000   2.479999e-05   4.548929e+00   1.800168e+01   4.911647e+01   1.793923e+05   2.103266e+05   1.144991e+06  -6.283865e+00   5.359650e+00  -3.002997e-21   1.177889e+06   2.280074e-40   0.000000e+00   0.000000e+00
     2488000   2.487999e-05   4.563281e+00   1.801851e+01   4.920807e+01   1.793923e+05   2.103266e+05   1.144991e+06  -6.368546e+00   5.431876e+00   5.635522e-21   1.177889e+06   2.341029e-40   0.000000e+00   0.000000e+00
     2496000   2.495999e-05   4.577632e+00   1.803534e+01   4.929967e+01   1.793923e+05   2.103266e+05   1.144991e+06  -1.150267e+01   9.810885e+00  -1.948065e-21   1.177889e+06   7.637700e-40   0.000000e+00   0.000000e+00
     2504000   2.503999e-05   4.591983e+00   1.805216e+01   4.939127e+01   1.793923e+05   2.103266e+05   1.144991e+06  -1.670398e+00   1.424720e+00   2.721853e-22   1.177889e+06   1.611982e-41   0.000000e+00   0.000000e+00
     2512000   2.511999e-05   4.606335e+00   1.806899e+01   4.948287e+01   1.793923e+05   2.103266e+05   1.144991e+06  -6.973914e+00   5.948208e+00  -5.580803e-21   1.177889e+06   2.807889e-40   0.000000e+00   0.000000e+00
     2520000   2.519999e-05   4.620686e+00   1.808581e+01   4.957447e+01   1.793923e+05   2.103266e+05   1.144991e+06  -8.806438e+00   7.511209e+00   8.021768e-23   1.177889e+06   4.477108e-40   0.000000e+00   0.000000e+00
     2528000   2.527999e-05   4.635038e+00   1.810264e+01   4.966607e+01   1.793939e+05   2.103216e+05   1.144992e+06   2.033116e+07  -6.069450e+07   7.963445e+06   1.177889e+06   1.390182e-26   0.000000e+00   0.000000e+00
     2536000   2.535999e-05   4.649389e+00   1.811947e+01   4.975767e+01   1.793982e+05   2.103088e+05   1.144993e+06   9.065222e+07  -2.707142e+08   3.552050e+07   1.177889e+06   2.765529e-25   0.000000e+00   0.000000e+00
     2544000   2.543999e-05   4.663741e+00   1.813629e+01   4.984927e+01   1.794053e+05   2.102878e+05   1.144996e+06   5.330087e+07  -1.597362e+08   2.098534e+07   1.177889e+06   9.627185e-26   0.000000e+00   0.000000e+00
     2552000   2.551999e-05   4.678094e+00   1.815311e+01   4.994087e+01   1.794067e+05   2.102834e+05   1.144997e+06   0.000000e+00   0.000000e+00   0.000000e+00   1.177889e+06   0.000000e+00   0.000000e+00   0.000000e+00
