     timestep     time              x             y              z              vx             vy             vz             ax             ay             az         v_magnitude      ELoss        Electronic      Nuclear
           0   0.000000e+00   1.000000e-01   9.243847e+00   2.053267e+01   6.459666e+05  -4.614328e+05   2.504730e+06   0.000000e+00   0.000000e+00   0.000000e+00   2.627521e+06   0.000000e+00   0.000000e+00   0.000000e+00
        8000   7.999000e-08   1.516775e-01   9.206933e+00   2.073305e+01   6.459691e+05  -4.614293e+05   2.504730e+06   2.895941e+07   4.054117e+07  -4.149833e-14   2.627521e+06   4.126809e-26   0.000000e+00   0.000000e+00
       16000   1.599900e-07   2.033551e-01   9.170018e+00   2.093343e+01   6.459712e+05  -4.614264e+05   2.504730e+06   8.362639e+06   1.170723e+07   8.103917e-15   2.627521e+06   3.441301e-27   0.000000e+00   0.000000e+00
       24000   2.399900e-07   2.550328e-01   9.133104e+00   2.113381e+01   6.459714e+05  -4.614261e+05   2.504730e+06   5.405016e+06   7.566729e+06   4.684825e-15   2.627521e+06   1.437265e-27   0.000000e+00   0.000000e+00
       32000   3.199900e-07   3.067105e-01   9.096190e+00   2.133419e+01   6.459715e+05  -4.614260e+05   2.504730e+06  -1.003150e+01  -1.404356e+01   1.021765e-20   2.627521e+06   4.952939e-39   0.000000e+00   0.000000e+00
       40000   3.999900e-07   3.583882e-01   9.059276e+00   2.153457e+01   6.459715e+05  -4.614260e+05   2.504730e+06  -1.402568e+01  -1.963519e+01   3.431271e-20   2.627521e+06   9.682797e-39   0.000000e+00   0.000000e+00
       48000   4.799900e-07   4.100659e-01   9.022362e+00   2.173494e+01   6.459715e+05  -4.614260e+05   2.504730e+06  -1.273390e+01  -1.782677e+01  -2.743534e-20   2.627521e+06   7.984819e-39   0.000000e+00   0.000000e+00
       56000   5.599900e-07   4.617437e-01   8.985448e+00   2.193532e+01   6.459715e+05  -4.614260e+05   2.504730e+06  -1.398699e+01  -1.958103e+01   1.843965e-21   2.627521e+06   9.627664e-39   0.000000e+00   0.000000e+00
       64000   6.399900e-07   5.134214e-01   8.948534e+00   2.213570e+01   6.459715e+05  -4.614260e+05   2.504730e+06  -8.052399e+00  -1.127292e+01   2.451827e-20   2.627521e+06   3.191807e-39   0.000000e+00   0.000000e+00
       72000   7.199900e-07   5.650991e-01   8.911620e+00   2.233608e+01   6.459715e+05  -4.614260e+05   2.504730e+06  -7.463450e+00  -1.044843e+01  -2.436786e-20   2.627521e+06   2.741975e-39   0.000000e+00   0.000000e+00
       80000   7.999900e-07   6.167768e-01   8.874706e+00   2.253646e+01   6.459715e+05  -4.614260e+05   2.504730e+06  -7.067294e+00  -9.893830e+00   8.404737e-21   2.627521e+06   2.459238e-39   0.000000e+00   0.000000e+00
       88000   8.799900e-07   6.684545e-01   8.837792e+00   2.273684e+01   6.459715e+05  -4.614260e+05   2.504730e+06  -5.681305e+00  -7.953520e+00  -1.530594e-20   2.627521e+06   1.589321e-39   0.000000e+00   0.000000e+00
       96000   9.599900e-07   7.201323e-01   8.800878e+00   2.293721e+01   6.459715e+05  -4.614260e+05   2.504730e+06  -7.255195e+00  -1.015688e+01  -4.830423e-21   2.627521e+06   2.590545e-39   0.000000e+00   0.000000e+00
      104000   1.039990e-06   7.718100e-01   8.763963e+00   2.313759e+01   6.459715e+05  -4.614260e+05   2.504730e+06   1.035751e+00   1.449996e+00  -2.781439e-21   2.627521e+06   5.264729e-41   0.000000e+00   0.000000e+00
      112000   1.119990e-06   8.234877e-01   8.727049e+00   2.333797e+01   6.459715e+05  -4.614260e+05   2.504730e+06  -9.270942e-01  -1.297882e+00   1.701724e-21   2.627521e+06   4.237618e-41   0.000000e+00   0.000000e+00
      120000   1.199990e-06   8.751654e-01   8.690135e+00   2.353835e+01   6.459715e+05  -4.614260e+05   2.504730e+06   5.909449e+00   8.272909e+00  -2.127991e-20   2.627521e+06   1.718166e-39   0.000000e+00   0.000000e+00
      128000   1.279990e-06   9.268431e-01   8.653221e+00   2.373873e+01   6.459715e+05  -4.614260e+05   2.504730e+06  -7.213639e-01  -1.009870e+00  -8.561584e-22   2.627521e+06   2.569918e-41   0.000000e+00   0.000000e+00
      136000   1.359990e-06   9.785208e-01   8.616307e+00   2.393911e+01   6.459715e+05  -4.614260e+05   2.504730e+06  -2.444497e-02  -3.422163e-02   9.451943e-24   2.627521e+06   3.228907e-44   0.000000e+00   0.000000e+00
      144000   1.439990e-06   1.030199e+00   8.579393e+00   2.413948e+01   6.459715e+05  -4.614260e+05   2.504730e+06  -2.045408e+00  -2.863461e+00   4.049884e-21   2.627521e+06   2.059952e-40   0.000000e+00   0.000000e+00
      152000   1.519990e-06   1.081876e+00   8.542479e+00   2.433986e+01   6.459715e+05  -4.614260e+05   2.504730e+06  -4.521718e+00  -6.330162e+00   2.864974e-20   2.627521e+06   1.006596e-39   0.000000e+00   0.000000e+00
      160000   1.599990e-06   1.133554e+00   8.505565e+00   2.454024e+01   6.459715e+05  -4.614260e+05   2.504730e+06  -1.036089e+01  -1.450468e+01   3.798438e-20   2.627521e+06   5.282411e-39   0.000000e+00   0.000000e+00
      168000   1.679990e-06   1.185232e+00   8.468651e+00   2.474062e+01   6.459715e+05  -4.614260e+05   2.504730e+06  -1.889450e+01  -2.645129e+01  -8.080144e-21   2.627521e+06   1.756792e-38   0.000000e+00   0.000000e+00
      176000   1.759990e-06   1.236909e+00   8.431737e+00   2.494100e+01   6.459715e+05  -4.614260e+05   2.504730e+06  -1.309090e+01  -1.832656e+01  -1.079878e-19   2.627521e+06   8.434748e-39   0.000000e+00   0.000000e+00
      184000   1.839990e-06   1.288587e+00   8.394823e+00   2.514138e+01   6.459715e+05  -4.614260e+05   2.504730e+06  -1.786421e+01  -2.500893e+01  -1.303496e-19   2.627521e+06   1.570950e-38   0.000000e+00   0.000000e+00
      192000   1.919990e-06   1.340265e+00   8.357909e+00   2.534176e+01   6.459715e+05  -4.614260e+05   2.504730e+06  -1.865584e+01  -2.611717e+01  -7.773872e-20   2.627521e+06   1.713170e-38   0.000000e+00   0.000000e+00
      200000   1.999990e-06   1.391943e+00   8.320994e+00   2.554213e+01   6.459715e+05  -4.614260e+05   2.504730e+06  -2.133555e+01  -2.986862e+01   1.000062e-19   2.627521e+06   2.240697e-38   0.000000e+00   0.000000e+00
      208000   2.079990e-06   1.443620e+00   8.284080e+00   2.574251e+01   6.459715e+05  -4.614260e+05   2.504730e+06  -1.941856e+01  -2.718493e+01   7.440096e-20   2.627521e+06   1.856375e-38   0.000000e+00   0.000000e+00
      216000   2.159990e-06   1.495298e+00   8.247166e+00   2.594289e+01   6.459715e+05  -4.614260e+05   2.504730e+06  -1.808434e+01  -2.531709e+01  -4.195366e-20   2.627521e+06   1.610047e-38   0.000000e+00   0.000000e+00
      224000   2.239990e-06   1.546976e+00   8.210252e+00   2.614327e+01   6.459715e+05  -4.614260e+05   2.504730e+06  -1.348028e+01  -1.887167e+01  -3.601930e-20   2.627521e+06   8.945105e-39   0.000000e+00   0.000000e+00
      232000   2.319990e-06   1.598653e+00   8.173338e+00   2.634365e+01   6.459715e+05  -4.614260e+05   2.504730e+06  -1.551293e+01  -2.171727e+01  -5.836936e-20   2.627521e+06   1.184570e-38   0.000000e+00   0.000000e+00
      240000   2.399990e-06   1.650331e+00   8.136424e+00   2.654403e+01   6.459715e+05  -4.614260e+05   2.504730e+06  -1.280780e+01  -1.793023e+01  -3.599182e-20   2.627521e+06   8.072449e-39   0.000000e+00   0.000000e+00
      248000   2.479990e-06   1.702009e+00   8.099510e+00   2.674440e+01   6.459715e+05  -4.614260e+05   2.504730e+06  -7.863511e+00  -1.100849e+01  -3.126079e-21   2.627521e+06   3.042540e-39   0.000000e+00   0.000000e+00
      256000   2.559990e-06   1.753687e+00   8.062596e+00   2.694478e+01   6.459715e+05  -4.614260e+05   2.504730e+06  -8.013473e+00  -1.121843e+01   3.414295e-21   2.627521e+06   3.159720e-39   0.000000e+00   0.000000e+00
      264000   2.639990e-06   1.805364e+00   8.025682e+00   2.714516e+01   6.459715e+05  -4.614260e+05   2.504730e+06  -1.074608e+01  -1.504393e+01   3.311247e-20   2.627521e+06   5.683169e-39   0.000000e+00   0.000000e+00
      272000   2.719990e-06   1.857042e+00   7.988768e+00   2.734554e+01   6.459715e+05  -4.614260e+05   2.504730e+06  -1.209895e+01  -1.693788e+01   5.862407e-20   2.627521e+06   7.205100e-39   0.000000e+00   0.000000e+00
      280000   2.799990e-06   1.908720e+00   7.951854e+00   2.754592e+01   6.459715e+05  -4.614260e+05   2.504730e+06  -1.348324e+01  -1.887581e+01  -3.208563e-20   2.627521e+06   8.951044e-39   0.000000e+00   0.000000e+00
      288000   2.879990e-06   1.960398e+00   7.914940e+00   2.774630e+01   6.459715e+05  -4.614260e+05   2.504730e+06  -1.372924e+01  -1.922019e+01   1.142813e-20   2.627521e+06   9.280607e-39   0.000000e+00   0.000000e+00
      296000   2.959990e-06   2.012075e+00   7.878026e+00   2.794667e+01   6.459715e+05  -4.614260e+05   2.504730e+06  -1.747912e+01  -2.446982e+01   1.954318e-20   2.627521e+06   1.503546e-38   0.000000e+00   0.000000e+00
      304000   3.039990e-06   2.063753e+00   7.841111e+00   2.814705e+01   6.459715e+05  -4.614260e+05   2.504730e+06  -2.123218e+01  -2.972391e+01   4.976480e-22   2.627521e+06   2.218655e-38   0.000000e+00   0.000000e+00
      312000   3.119990e-06   2.115431e+00   7.804197e+00   2.834743e+01   6.459715e+05  -4.614260e+05   2.504730e+06  -2.208620e+01  -3.091949e+01  -1.913595e-19   2.627521e+06   2.400778e-38   0.000000e+00   0.000000e+00
      320000   3.199990e-06   2.167108e+00   7.767283e+00   2.854781e+01   6.459715e+05  -4.614260e+05   2.504730e+06  -1.833154e+01  -2.566316e+01   1.733390e-20   2.627521e+06   1.654223e-38   0.000000e+00   0.000000e+00
      328000   3.279990e-06   2.218786e+00   7.730369e+00   2.874819e+01   6.459715e+05  -4.614260e+05   2.504730e+06  -2.168491e+01  -3.035770e+01   1.166672e-19   2.627521e+06   2.314165e-38   0.000000e+00   0.000000e+00
      336000   3.359990e-06   2.270464e+00   7.693455e+00   2.894857e+01   6.459715e+05  -4.614260e+05   2.504730e+06   1.011385e+00   1.415885e+00  -1.096493e-21   2.627521e+06   5.020312e-41   0.000000e+00   0.000000e+00
      344000   3.439990e-06   2.322142e+00   7.656541e+00   2.914894e+01   6.459715e+05  -4.614260e+05   2.504730e+06  -8.975423e+00  -1.256511e+01   3.242333e-20   2.627521e+06   3.965409e-39   0.000000e+00   0.000000e+00
      352000   3.519990e-06   2.373819e+00   7.619627e+00   2.934932e+01   6.459715e+05  -4.614260e+05   2.504730e+06  -9.628386e+00  -1.347922e+01  -3.345591e-20   2.627521e+06   4.563384e-39   0.000000e+00   0.000000e+00
      360000   3.599990e-06   2.425497e+00   7.582713e+00   2.954970e+01   6.459715e+05  -4.614260e+05   2.504730e+06  -1.979837e+00  -2.771665e+00  -4.695672e-21   2.627521e+06   1.935490e-40   0.000000e+00   0.000000e+00
      368000   3.679990e-06   2.477175e+00   7.545799e+00   2.975008e+01   6.459715e+05  -4.614260e+05   2.504730e+06   1.807992e-01   9.885804e+00   1.774553e+00   2.627521e+06   1.673350e-39   0.000000e+00   0.000000e+00
      376000   3.759990e-06   2.528852e+00   7.508885e+00   2.995046e+01   6.459715e+05  -4.614260e+05   2.504730e+06  -2.736691e+01   5.999036e+00   8.163097e+00   2.627521e+06   1.415592e-38   0.000000e+00   0.000000e+00
      384000   3.839990e-06   2.580530e+00   7.471971e+00   3.015084e+01   6.459715e+05  -4.614260e+05   2.504730e+06   5.750328e+00   2.561609e+01   3.236030e+00   2.627521e+06   1.163434e-38   0.000000e+00   0.000000e+00
      392000   3.919990e-06   2.632208e+00   7.435057e+00   3.035121e+01   6.459715e+05  -4.614260e+05   2.504730e+06  -1.661093e+01  -2.325440e+01   1.346569e-20   2.627521e+06   1.357984e-38   0.000000e+00   0.000000e+00
      400000   3.999990e-06   2.683886e+00   7.398142e+00   3.055159e+01   6.459715e+05  -4.614260e+05   2.504730e+06  -1.206938e+01  -1.689648e+01   2.908137e-20   2.627521e+06   7.171085e-39   0.000000e+00   0.000000e+00
      408000   4.079990e-06   2.735563e+00   7.361228e+00   3.075197e+01   6.459715e+05  -4.614260e+05   2.504730e+06  -1.461537e+01  -2.046073e+01  -4.522091e-20   2.627521e+06   1.051717e-38   0.000000e+00   0.000000e+00
      416000   4.159990e-06   2.787241e+00   7.324314e+00   3.095235e+01   6.459715e+05  -4.614260e+05   2.504730e+06  -1.613529e+01  -2.258854e+01   8.245558e-21   2.627521e+06   1.281817e-38   0.000000e+00   0.000000e+00
      424000   4.239990e-06   2.838919e+00   7.287400e+00   3.115273e+01   6.459715e+05  -4.614260e+05   2.504730e+06  -1.314921e+01  -1.840818e+01  -1.091537e-19   2.627521e+06   8.515109e-39   0.000000e+00   0.000000e+00
      432000   4.319990e-06   2.890596e+00   7.250486e+00   3.135311e+01   6.459715e+05  -4.614260e+05   2.504730e+06  -1.233866e+01  -1.727346e+01   4.191749e-21   2.627521e+06   7.497890e-39   0.000000e+00   0.000000e+00
      440000   4.399990e-06   2.942274e+00   7.213572e+00   3.155348e+01   6.459715e+05  -4.614260e+05   2.504730e+06  -1.073971e+01  -1.503501e+01  -7.934494e-21   2.627521e+06   5.678475e-39   0.000000e+00   0.000000e+00
      448000   4.479990e-06   2.993952e+00   7.176658e+00   3.175386e+01   6.459715e+05  -4.614260e+05   2.504730e+06  -1.413681e+01  -1.979078e+01   5.187917e-20   2.627521e+06   9.841094e-39   0.000000e+00   0.000000e+00
      456000   4.559990e-06   3.045630e+00   7.139744e+00   3.195424e+01   6.459715e+05  -4.614260e+05   2.504730e+06  -9.351091e+00  -1.309102e+01   1.717227e-20   2.627521e+06   4.304672e-39   0.000000e+00   0.000000e+00
      464000   4.639990e-06   3.097307e+00   7.102830e+00   3.215462e+01   6.459715e+05  -4.614260e+05   2.504730e+06  -7.893435e+00  -1.105038e+01  -7.952577e-21   2.627521e+06   3.067249e-39   0.000000e+00   0.000000e+00
      472000   4.719990e-06   3.148985e+00   7.065916e+00   3.235500e+01   6.459715e+05  -4.614260e+05   2.504730e+06  -1.116476e+01  -1.563006e+01   2.684755e-20   2.627521e+06   6.134890e-39   0.000000e+00   0.000000e+00
      480000   4.799990e-06   3.200663e+00   7.029002e+00   3.255538e+01   6.459715e+05  -4.614260e+05   2.504730e+06  -8.065799e+00  -1.129168e+01   1.552582e-20   2.627521e+06   3.203978e-39   0.000000e+00   0.000000e+00
      488000   4.879990e-06   3.252340e+00   6.992088e+00   3.275576e+01   6.459715e+05  -4.614260e+05   2.504730e+06  -1.836480e+01  -2.570973e+01   6.484161e-20   2.627521e+06   1.659710e-38   0.000000e+00   0.000000e+00
      496000   4.959990e-06   3.304018e+00   6.955174e+00   3.295613e+01   6.459715e+05  -4.614260e+05   2.504730e+06  -1.436741e+01  -2.011360e+01  -2.730497e-20   2.627521e+06   1.015915e-38   0.000000e+00   0.000000e+00
      504000   5.039990e-06   3.355696e+00   6.918259e+00   3.315651e+01   6.459715e+05  -4.614260e+05   2.504730e+06  -2.070613e+01  -2.898746e+01  -3.416820e-21   2.627521e+06   2.110237e-38   0.000000e+00   0.000000e+00
      512000   5.119990e-06   3.407374e+00   6.881345e+00   3.335689e+01   6.459715e+05  -4.614260e+05   2.504730e+06  -2.552594e+01  -3.573494e+01  -2.328242e-20   2.627521e+06   3.207283e-38   0.000000e+00   0.000000e+00
      520000   5.199990e-06   3.459051e+00   6.844431e+00   3.355727e+01   6.459715e+05  -4.614260e+05   2.504730e+06  -2.349979e+01  -3.289843e+01   5.420340e-20   2.627521e+06   2.718308e-38   0.000000e+00   0.000000e+00
      528000   5.279990e-06   3.510729e+00   6.807517e+00   3.375765e+01   6.459715e+05  -4.614260e+05   2.504730e+06  -1.576492e+01  -2.207003e+01   1.325438e-19   2.627521e+06   1.223576e-38   0.000000e+00   0.000000e+00
      536000   5.359990e-06   3.562407e+00   6.770603e+00   3.395803e+01   6.459715e+05  -4.614260e+05   2.504730e+06  -8.709099e+00  -1.219227e+01   1.800565e-20   2.627521e+06   3.734921e-39   0.000000e+00   0.000000e+00
      544000   5.439990e-06   3.614084e+00   6.733689e+00   3.415840e+01   6.459715e+05  -4.614260e+05   2.504730e+06  -7.496746e+00  -1.049504e+01  -9.509939e-21   2.627521e+06   2.766709e-39   0.000000e+00   0.000000e+00
      552000   5.519990e-06   3.665762e+00   6.696775e+00   3.435878e+01   6.459715e+05  -4.614260e+05   2.504730e+06   6.977492e-01   9.768112e-01  -3.233450e-21   2.627521e+06   2.385281e-41   0.000000e+00   0.000000e+00
      560000   5.599990e-06   3.717440e+00   6.659861e+00   3.455916e+01   6.459715e+05  -4.614260e+05   2.504730e+06  -1.260272e+01  -1.764313e+01   1.689597e-20   2.627521e+06   7.818094e-39   0.000000e+00   0.000000e+00
      568000   5.679990e-06   3.769118e+00   6.622947e+00   3.475954e+01   6.459715e+05  -4.614260e+05   2.504730e+06  -8.483908e+00  -1.187701e+01  -6.665838e-21   2.627521e+06   3.542800e-39   0.000000e+00   0.000000e+00
      576000   5.759990e-06   3.820795e+00   6.586033e+00   3.495992e+01   6.459715e+05  -4.614260e+05   2.504730e+06   1.646431e+00   2.304915e+00  -2.100992e-22   2.627521e+06   1.331066e-40   0.000000e+00   0.000000e+00
      584000   5.839990e-06   3.872473e+00   6.549119e+00   3.516030e+01   6.459715e+05  -4.614260e+05   2.504730e+06   3.127958e+00   4.378972e+00   8.217172e-21   2.627521e+06   4.810091e-40   0.000000e+00   0.000000e+00
      592000   5.919990e-06   3.924151e+00   6.512205e+00   3.536067e+01   6.459715e+05  -4.614260e+05   2.504730e+06  -1.261357e+01  -1.765832e+01  -7.513809e-22   2.627521e+06   7.829960e-39   0.000000e+00   0.000000e+00
      600000   5.999990e-06   3.975829e+00   6.475290e+00   3.556105e+01   6.459715e+05  -4.614260e+05   2.504730e+06   2.843893e+00   3.981296e+00   2.377783e-21   2.627521e+06   3.980291e-40   0.000000e+00   0.000000e+00
      608000   6.079990e-06   4.027506e+00   6.438376e+00   3.576143e+01   6.459715e+05  -4.614260e+05   2.504730e+06  -1.501049e+01  -2.101387e+01  -4.506166e-20   2.627521e+06   1.109050e-38   0.000000e+00   0.000000e+00
      616000   6.159990e-06   4.079184e+00   6.401462e+00   3.596181e+01   6.459715e+05  -4.614260e+05   2.504730e+06  -1.626141e+01  -2.276510e+01  -7.798039e-20   2.627521e+06   1.301612e-38   0.000000e+00   0.000000e+00
      624000   6.239990e-06   4.130862e+00   6.364548e+00   3.616219e+01   6.459715e+05  -4.614260e+05   2.504730e+06  -1.628789e+01  -2.280217e+01   3.400080e-20   2.627521e+06   1.305884e-38   0.000000e+00   0.000000e+00
      632000   6.319990e-06   4.182539e+00   6.327634e+00   3.636257e+01   6.459715e+05  -4.614260e+05   2.504730e+06  -1.646167e+01  -2.304544e+01   4.220122e-20   2.627521e+06   1.333898e-38   0.000000e+00   0.000000e+00
      640000   6.399990e-06   4.234217e+00   6.290720e+00   3.656294e+01   6.459715e+05  -4.614260e+05   2.504730e+06  -9.804984e-01  -1.372645e+00   2.824055e-21   2.627521e+06   4.768091e-41   0.000000e+00   0.000000e+00
      648000   6.479990e-06   4.285895e+00   6.253806e+00   3.676332e+01   6.459715e+05  -4.614260e+05   2.504730e+06   1.819052e+00   2.546574e+00   4.369274e-21   2.627521e+06   1.622351e-40   0.000000e+00   0.000000e+00
      656000   6.559990e-06   4.337573e+00   6.216892e+00   3.696370e+01   6.459715e+05  -4.614260e+05   2.504730e+06  -9.333023e+00  -1.306573e+01  -7.462357e-21   2.627521e+06   4.288480e-39   0.000000e+00   0.000000e+00
      664000   6.639990e-06   4.389250e+00   6.179978e+00   3.716408e+01   6.459715e+05  -4.614260e+05   2.504730e+06   3.205662e+00   4.487754e+00   1.323208e-20   2.627521e+06   5.050559e-40   0.000000e+00   0.000000e+00
      672000   6.719990e-06   4.440928e+00   6.143064e+00   3.736446e+01   6.459715e+05  -4.614260e+05   2.504730e+06  -1.532902e+01  -2.145980e+01   7.606493e-20   2.627521e+06   1.156553e-38   0.000000e+00   0.000000e+00
      680000   6.799990e-06   4.492606e+00   6.106150e+00   3.756484e+01   6.459715e+05  -4.614260e+05   2.504730e+06  -1.683637e+01  -2.357001e+01  -1.570609e-20   2.627521e+06   1.395212e-38   0.000000e+00   0.000000e+00
      688000   6.879990e-06   4.544283e+00   6.069236e+00   3.776521e+01   6.459715e+05  -4.614260e+05   2.504730e+06  -1.633734e+01  -2.287140e+01  -4.564664e-20   2.627521e+06   1.313716e-38   0.000000e+00   0.000000e+00
      696000   6.959990e-06   4.595961e+00   6.032322e+00   3.796559e+01   6.459715e+05  -4.614260e+05   2.504730e+06  -1.383428e+01  -1.936724e+01  -3.484120e-20   2.627521e+06   9.419744e-39   0.000000e+00   0.000000e+00
      704000   7.039990e-06   4.647639e+00   5.995407e+00   3.816597e+01   6.459715e+05  -4.614260e+05   2.504730e+06  -1.679317e+01  -2.350953e+01   1.033016e-19   2.627521e+06   1.388034e-38   0.000000e+00   0.000000e+00
      712000   7.119990e-06   4.699317e+00   5.958493e+00   3.836635e+01   6.459715e+05  -4.614260e+05   2.504730e+06  -1.960426e+01  -2.744490e+01   1.707400e-19   2.627521e+06   1.891672e-38   0.000000e+00   0.000000e+00
      720000   7.199990e-06   4.750994e+00   5.921579e+00   3.856673e+01   6.459715e+05  -4.614260e+05   2.504730e+06  -2.389496e+01  -3.345166e+01   3.018783e-20   2.627521e+06   2.810707e-38   0.000000e+00   0.000000e+00
      728000   7.279990e-06   4.802672e+00   5.884665e+00   3.876711e+01   6.459715e+05  -4.614260e+05   2.504730e+06  -2.497406e+01  -3.496234e+01  -4.138480e-20   2.627521e+06   3.070581e-38   0.000000e+00   0.000000e+00
      736000   7.359990e-06   4.854350e+00   5.847751e+00   3.896749e+01   6.459715e+05  -4.614260e+05   2.504730e+06  -2.421124e+01  -3.389443e+01  -1.008322e-19   2.627521e+06   2.885875e-38   0.000000e+00   0.000000e+00
      744000   7.439990e-06   4.906027e+00   5.810837e+00   3.916786e+01   6.459715e+05  -4.614260e+05   2.504730e+06  -1.825018e+01  -2.554927e+01  -3.720819e-20   2.627521e+06   1.639967e-38   0.000000e+00   0.000000e+00
      752000   7.519990e-06   4.957705e+00   5.773923e+00   3.936824e+01   6.459715e+05  -4.614260e+05   2.504730e+06  -1.262032e+01  -1.766776e+01   7.712583e-21   2.627521e+06   7.843923e-39   0.000000e+00   0.000000e+00
      760000   7.599990e-06   5.009383e+00   5.737009e+00   3.956862e+01   6.459715e+05  -4.614260e+05   2.504730e+06  -3.366708e+00  -4.713209e+00  -7.623498e-22   2.627521e+06   5.584622e-40   0.000000e+00   0.000000e+00
      768000   7.679990e-06   5.061061e+00   5.700095e+00   3.976900e+01   6.459715e+05  -4.614260e+05   2.504730e+06  -7.270007e+00  -1.017762e+01   2.379240e-20   2.627521e+06   2.602862e-39   0.000000e+00   0.000000e+00
      776000   7.759990e-06   5.112738e+00   5.663181e+00   3.996938e+01   6.459715e+05  -4.614260e+05   2.504730e+06  -8.857869e+00  -1.240054e+01   5.678529e-21   2.627521e+06   3.863045e-39   0.000000e+00   0.000000e+00
      784000   7.839990e-06   5.164416e+00   5.626267e+00   4.016976e+01   6.459715e+05  -4.614260e+05   2.504730e+06  -9.167051e+00  -1.283338e+01  -1.252703e-20   2.627521e+06   4.137408e-39   0.000000e+00   0.000000e+00
      792000   7.919990e-06   5.216094e+00   5.589353e+00   4.037013e+01   6.459715e+05  -4.614260e+05   2.504730e+06  -2.900951e+00  -4.061175e+00   9.521995e-21   2.627521e+06   4.151445e-40   0.000000e+00   0.000000e+00
      800000   7.999990e-06   5.267771e+00   5.552438e+00   4.057051e+01   6.459715e+05  -4.614260e+05   2.504730e+06   2.867985e+00   4.015024e+00  -3.070917e-21   2.627521e+06   4.040539e-40   0.000000e+00   0.000000e+00
      808000   8.079990e-06   5.319449e+00   5.515524e+00   4.077089e+01   6.459715e+05  -4.614260e+05   2.504730e+06  -2.208957e+01  -3.092421e+01  -9.981725e-20   2.627521e+06   2.400927e-38   0.000000e+00   0.000000e+00
      816000   8.159990e-06   5.371127e+00   5.478610e+00   4.097127e+01   6.459715e+05  -4.614260e+05   2.504730e+06   1.758446e+01   2.461730e+01   3.904094e-20   2.627521e+06   1.521636e-38   0.000000e+00   0.000000e+00
      824000   8.239990e-06   5.422805e+00   5.441696e+00   4.117165e+01   6.459715e+05  -4.614260e+05   2.504730e+06  -3.134521e+01  -4.388161e+01  -5.883645e-20   2.627521e+06   4.835464e-38   0.000000e+00   0.000000e+00
      832000   8.319990e-06   5.474482e+00   5.404782e+00   4.137203e+01   6.459715e+05  -4.614260e+05   2.504730e+06  -3.472078e+01  -4.860722e+01   8.555079e-21   2.627521e+06   5.933153e-38   0.000000e+00   0.000000e+00
      840000   8.399990e-06   5.526160e+00   5.367868e+00   4.157240e+01   6.459715e+05  -4.614260e+05   2.504730e+06  -3.833346e+01  -5.366478e+01  -1.885741e-20   2.627521e+06   7.232057e-38   0.000000e+00   0.000000e+00
      848000   8.479990e-06   5.577838e+00   5.330954e+00   4.177278e+01   6.459715e+05  -4.614260e+05   2.504730e+06  -3.942771e+01  -5.519667e+01   4.125078e-20   2.627521e+06   7.650886e-38   0.000000e+00   0.000000e+00
      856000   8.559990e-06   5.629516e+00   5.294040e+00   4.197316e+01   6.459715e+05  -4.614260e+05   2.504730e+06  -2.885185e+01  -4.039103e+01   1.297219e-19   2.627521e+06   4.097509e-38   0.000000e+00   0.000000e+00
      864000   8.639990e-06   5.681193e+00   5.257126e+00   4.217354e+01   6.459715e+05  -4.614260e+05   2.504730e+06  -3.262146e+01  -4.566828e+01   9.871288e-20   2.627521e+06   5.238216e-38   0.000000e+00   0.000000e+00
      872000   8.719990e-06   5.732871e+00   5.220212e+00   4.237392e+01   6.459715e+05  -4.614260e+05   2.504730e+06  -3.358336e+01  -4.701489e+01  -1.476872e-19   2.627521e+06   5.551135e-38   0.000000e+00   0.000000e+00
      880000   8.799990e-06   5.784549e+00   5.183298e+00   4.257430e+01   6.459715e+05  -4.614260e+05   2.504730e+06  -3.740838e+01  -5.236971e+01   1.087332e-19   2.627521e+06   6.888730e-38   0.000000e+00   0.000000e+00
      888000   8.879990e-06   5.836226e+00   5.146384e+00   4.277467e+01   6.459715e+05  -4.614260e+05   2.504730e+06  -2.180098e+01  -3.052020e+01  -1.002308e-20   2.627521e+06   2.339505e-38   0.000000e+00   0.000000e+00
      896000   8.959990e-06   5.887904e+00   5.109470e+00   4.297505e+01   6.459715e+05  -4.614260e+05   2.504730e+06  -2.534761e+01  -3.548528e+01   4.011166e-20   2.627521e+06   3.162648e-38   0.000000e+00   0.000000e+00
      904000   9.039990e-06   5.939582e+00   5.072555e+00   4.317543e+01   6.459715e+05  -4.614260e+05   2.504730e+06  -1.925485e+01  -2.695575e+01  -7.978595e-20   2.627521e+06   1.825574e-38   0.000000e+00   0.000000e+00
      912000   9.119990e-06   5.991260e+00   5.035641e+00   4.337581e+01   6.459715e+05  -4.614260e+05   2.504730e+06  -2.368319e+01  -3.315519e+01  -4.460873e-20   2.627521e+06   2.761715e-38   0.000000e+00   0.000000e+00
      920000   9.199990e-06   6.042937e+00   4.998727e+00   4.357619e+01   6.459715e+05  -4.614260e+05   2.504730e+06  -2.998909e+01  -4.198311e+01   7.134186e-21   2.627521e+06   4.427922e-38   0.000000e+00   0.000000e+00
      928000   9.279990e-06   6.094615e+00   4.961813e+00   4.377657e+01   6.459715e+05  -4.614260e+05   2.504730e+06  -2.964833e+01  -4.150605e+01  -8.336118e-20   2.627521e+06   4.327871e-38   0.000000e+00   0.000000e+00
      936000   9.359990e-06   6.146293e+00   4.924899e+00   4.397694e+01   6.459715e+05  -4.614260e+05   2.504730e+06  -1.132086e+01  -1.584860e+01   5.697510e-20   2.627521e+06   6.312049e-39   0.000000e+00   0.000000e+00
      944000   9.439990e-06   6.197970e+00   4.887985e+00   4.417732e+01   6.459715e+05  -4.614260e+05   2.504730e+06  -1.673046e+01  -2.342175e+01  -5.604625e-20   2.627521e+06   1.378096e-38   0.000000e+00   0.000000e+00
      952000   9.519990e-06   6.249648e+00   4.851071e+00   4.437770e+01   6.459715e+05  -4.614260e+05   2.504730e+06  -1.986963e+01  -2.781641e+01  -2.447313e-20   2.627521e+06   1.943381e-38   0.000000e+00   0.000000e+00
      960000   9.599990e-06   6.301326e+00   4.814157e+00   4.457808e+01   6.459715e+05  -4.614260e+05   2.504730e+06  -1.471900e+01  -2.060581e+01   2.311574e-20   2.627521e+06   1.066726e-38   0.000000e+00   0.000000e+00
      968000   9.679990e-06   6.353004e+00   4.777243e+00   4.477846e+01   6.459715e+05  -4.614260e+05   2.504730e+06  -1.661648e+01  -2.326217e+01  -3.755921e-20   2.627521e+06   1.359271e-38   0.000000e+00   0.000000e+00
      976000   9.759990e-06   6.404681e+00   4.740329e+00   4.497884e+01   6.459715e+05  -4.614260e+05   2.504730e+06  -1.245132e+01  -1.743117e+01  -2.068483e-20   2.627521e+06   7.631783e-39   0.000000e+00   0.000000e+00
      984000   9.839990e-06   6.456359e+00   4.703415e+00   4.517921e+01   6.459715e+05  -4.614260e+05   2.504730e+06  -1.329063e+01  -1.860616e+01  -5.933508e-20   2.627521e+06   8.695352e-39   0.000000e+00   0.000000e+00
      992000   9.919990e-06   6.508037e+00   4.666501e+00   4.537959e+01   6.459715e+05  -4.614260e+05   2.504730e+06  -1.780594e+01  -2.492735e+01   8.224868e-20   2.627521e+06   1.560331e-38   0.000000e+00   0.000000e+00
     1000000   9.999990e-06   6.559714e+00   4.629586e+00   4.557997e+01   6.459715e+05  -4.614260e+05   2.504730e+06  -2.617296e+01  -3.664073e+01   1.476785e-19   2.627521e+06   3.371565e-38   0.000000e+00   0.000000e+00
     1008000   1.007999e-05   6.611392e+00   4.592672e+00   4.578035e+01   6.459715e+05  -4.614260e+05   2.504730e+06  -2.851326e+01  -3.991702e+01  -5.596831e-20   2.627521e+06   4.002160e-38   0.000000e+00   0.000000e+00
     1016000   1.015999e-05   6.663070e+00   4.555758e+00   4.598073e+01   6.459715e+05  -4.614260e+05   2.504730e+06  -3.109274e+01  -4.352815e+01  -1.199125e-20   2.627521e+06   4.759038e-38   0.000000e+00   0.000000e+00
     1024000   1.023999e-05   6.714748e+00   4.518844e+00   4.618111e+01   6.459715e+05  -4.614260e+05   2.504730e+06  -2.004777e+01  -2.806579e+01  -1.125400e-19   2.627521e+06   1.978804e-38   0.000000e+00   0.000000e+00
     1032000   1.031999e-05   6.766425e+00   4.481930e+00   4.638149e+01   6.459715e+05  -4.614260e+05   2.504730e+06  -3.253058e+01  -4.554105e+01   1.820858e-19   2.627521e+06   5.208773e-38   0.000000e+00   0.000000e+00
     1040000   1.039999e-05   6.818103e+00   4.445016e+00   4.658186e+01   6.459715e+05  -4.614260e+05   2.504730e+06  -2.046249e+01  -2.864638e+01   6.415779e-20   2.627521e+06   2.060985e-38   0.000000e+00   0.000000e+00
     1048000   1.047999e-05   6.869781e+00   4.408102e+00   4.678224e+01   6.459715e+05  -4.614260e+05   2.504730e+06  -2.406836e+01  -3.369440e+01   3.725950e-20   2.627521e+06   2.851401e-38   0.000000e+00   0.000000e+00
     1056000   1.055999e-05   6.921458e+00   4.371188e+00   4.698262e+01   6.459715e+05  -4.614260e+05   2.504730e+06  -2.562481e+01  -3.587335e+01   8.752993e-20   2.627521e+06   3.232235e-38   0.000000e+00   0.000000e+00
     1064000   1.063999e-05   6.973136e+00   4.334274e+00   4.718300e+01   6.459715e+05  -4.614260e+05   2.504730e+06  -2.428095e+01  -3.399203e+01  -6.715885e-21   2.627521e+06   2.902095e-38   0.000000e+00   0.000000e+00
     1072000   1.071999e-05   7.024814e+00   4.297360e+00   4.738338e+01   6.459715e+05  -4.614260e+05   2.504730e+06  -1.686832e+01  -2.361473e+01   2.727903e-20   2.627521e+06   1.400820e-38   0.000000e+00   0.000000e+00
     1080000   1.079999e-05   7.076492e+00   4.260446e+00   4.758376e+01   6.459715e+05  -4.614260e+05   2.504730e+06  -1.450831e+01  -2.031085e+01   2.860011e-21   2.627521e+06   1.036281e-38   0.000000e+00   0.000000e+00
     1088000   1.087999e-05   7.128169e+00   4.223532e+00   4.778413e+01   6.459715e+05  -4.614260e+05   2.504730e+06  -2.685427e+01  -3.759453e+01  -1.154967e-20   2.627521e+06   3.549101e-38   0.000000e+00   0.000000e+00
     1096000   1.095999e-05   7.179847e+00   4.186618e+00   4.798451e+01   6.459715e+05  -4.614260e+05   2.504730e+06  -7.999114e+00  -1.119833e+01  -2.321710e-21   2.627521e+06   3.150961e-39   0.000000e+00   0.000000e+00
     1104000   1.103999e-05   7.231525e+00   4.149703e+00   4.818489e+01   6.459715e+05  -4.614260e+05   2.504730e+06  -3.255486e+01  -4.557504e+01   1.406253e-19   2.627521e+06   5.215979e-38   0.000000e+00   0.000000e+00
     1112000   1.111999e-05   7.283203e+00   4.112789e+00   4.838527e+01   6.459715e+05  -4.614260e+05   2.504730e+06  -3.667533e+01  -5.134348e+01  -1.007893e-19   2.627521e+06   6.620090e-38   0.000000e+00   0.000000e+00
     1120000   1.119999e-05   7.334880e+00   4.075875e+00   4.858565e+01   6.459715e+05  -4.614260e+05   2.504730e+06  -2.298051e+01  -3.217147e+01  -1.375780e-19   2.627521e+06   2.599940e-38   0.000000e+00   0.000000e+00
     1128000   1.127999e-05   7.386558e+00   4.038961e+00   4.878603e+01   6.459715e+05  -4.614260e+05   2.504730e+06  -2.175354e+01  -3.045378e+01  -6.613494e-20   2.627521e+06   2.329732e-38   0.000000e+00   0.000000e+00
     1136000   1.135999e-05   7.438236e+00   4.002047e+00   4.898640e+01   6.459715e+05  -4.614260e+05   2.504730e+06  -1.873167e+01  -2.622332e+01  -4.083080e-20   2.627521e+06   1.727447e-38   0.000000e+00   0.000000e+00
     1144000   1.143999e-05   7.489913e+00   3.965133e+00   4.918678e+01   6.459715e+05  -4.614260e+05   2.504730e+06  -1.897483e+01  -2.656374e+01   2.586711e-20   2.627521e+06   1.772430e-38   0.000000e+00   0.000000e+00
     1152000   1.151999e-05   7.541591e+00   3.928219e+00   4.938716e+01   6.459715e+05  -4.614260e+05   2.504730e+06  -2.327555e+01  -3.258452e+01  -1.042922e-19   2.627521e+06   2.666916e-38   0.000000e+00   0.000000e+00
     1160000   1.159999e-05   7.593269e+00   3.891305e+00   4.958754e+01   6.459720e+05  -4.614264e+05   2.504730e+06   3.781511e+07  -3.118405e+07  -1.549734e+07   2.627521e+06   4.392587e-26   0.000000e+00   0.000000e+00
     1168000   1.167999e-05   7.644947e+00   3.854390e+00   4.978792e+01   6.459856e+05  -4.614376e+05   2.504724e+06   2.125042e+08  -1.742315e+08  -8.690445e+07   2.627521e+06   1.381297e-24   0.000000e+00   0.000000e+00
     1176000   1.175999e-05   7.696626e+00   3.817475e+00   4.998830e+01   6.459928e+05  -4.614435e+05   2.504721e+06   0.000000e+00   0.000000e+00   0.000000e+00   2.627521e+06   0.000000e+00   0.000000e+00   0.000000e+00
