     timestep     time              x             y              z              vx             vy             vz             ax             ay             az         v_magnitude      ELoss        Electronic      Nuclear
           0   0.000000e+00   1.000000e-01   1.489622e+01   1.584427e+01   2.058079e+06   1.023741e+06   1.272843e+06   0.000000e+00   0.000000e+00   0.000000e+00   2.627521e+06   0.000000e+00   0.000000e+00   0.000000e+00
        8000   7.999000e-08   2.646463e-01   1.497812e+01   1.594610e+01   2.058079e+06   1.023741e+06   1.272843e+06   0.000000e+00   0.000000e+00   0.000000e+00   2.627521e+06   0.000000e+00   0.000000e+00   0.000000e+00
       16000   1.599900e-07   4.292927e-01   1.506002e+01   1.604793e+01   2.058079e+06   1.023741e+06   1.272843e+06   0.000000e+00   0.000000e+00   0.000000e+00   2.627521e+06   0.000000e+00   0.000000e+00   0.000000e+00
       24000   2.399900e-07   5.939390e-01   1.514192e+01   1.614976e+01   2.058079e+06   1.023741e+06   1.272843e+06   0.000000e+00   0.000000e+00   0.000000e+00   2.627521e+06   0.000000e+00   0.000000e+00   0.000000e+00
       32000   3.199900e-07   7.585853e-01   1.522382e+01   1.625158e+01   2.058079e+06   1.023741e+06   1.272843e+06   0.000000e+00   0.000000e+00   0.000000e+00   2.627521e+06   0.000000e+00   0.000000e+00   0.000000e+00
       40000   3.999900e-07   9.232316e-01   1.530572e+01   1.635341e+01   2.058079e+06   1.023741e+06   1.272843e+06   0.000000e+00   0.000000e+00   0.000000e+00   2.627521e+06   0.000000e+00   0.000000e+00   0.000000e+00
       48000   4.799900e-07   1.087878e+00   1.538762e+01   1.645524e+01   2.058079e+06   1.023741e+06   1.272843e+06   0.000000e+00   0.000000e+00   0.000000e+00   2.627521e+06   0.000000e+00   0.000000e+00   0.000000e+00
       56000   5.599900e-07   1.252524e+00   1.546952e+01   1.655707e+01   2.058079e+06   1.023741e+06   1.272843e+06   0.000000e+00   0.000000e+00   0.000000e+00   2.627521e+06   0.000000e+00   0.000000e+00   0.000000e+00
       64000   6.399900e-07   1.417171e+00   1.555142e+01   1.665889e+01   2.058079e+06   1.023741e+06   1.272843e+06   0.000000e+00   0.000000e+00   0.000000e+00   2.627521e+06   0.000000e+00   0.000000e+00   0.000000e+00
       72000   7.199900e-07   1.581817e+00   1.563332e+01   1.676072e+01   2.058079e+06   1.023741e+06   1.272843e+06   0.000000e+00   0.000000e+00   0.000000e+00   2.627521e+06   0.000000e+00   0.000000e+00   0.000000e+00
       80000   7.999900e-07   1.746463e+00   1.571522e+01   1.686255e+01   2.058079e+06   1.023741e+06   1.272843e+06   0.000000e+00   0.000000e+00   0.000000e+00   2.627521e+06   0.000000e+00   0.000000e+00   0.000000e+00
       88000   8.799900e-07   1.911110e+00   1.579711e+01   1.696438e+01   2.058079e+06   1.023741e+06   1.272843e+06   0.000000e+00   0.000000e+00   0.000000e+00   2.627521e+06   0.000000e+00   0.000000e+00   0.000000e+00
       96000   9.599900e-07   2.075756e+00   1.587901e+01   1.706620e+01   2.058079e+06   1.023741e+06   1.272843e+06   0.000000e+00   0.000000e+00   0.000000e+00   2.627521e+06   0.000000e+00   0.000000e+00   0.000000e+00
      104000   1.039990e-06   2.240402e+00   1.596091e+01   1.716803e+01   2.058079e+06   1.023741e+06   1.272843e+06   0.000000e+00   0.000000e+00   0.000000e+00   2.627521e+06   0.000000e+00   0.000000e+00   0.000000e+00
      112000   1.119990e-06   2.405049e+00   1.604281e+01   1.726986e+01   2.058079e+06   1.023741e+06   1.272843e+06   0.000000e+00   0.000000e+00   0.000000e+00   2.627521e+06   0.000000e+00   0.000000e+00   0.000000e+00
      120000   1.199990e-06   2.569695e+00   1.612471e+01   1.737169e+01   2.058079e+06   1.023741e+06   1.272843e+06   0.000000e+00   0.000000e+00   0.000000e+00   2.627521e+06   0.000000e+00   0.000000e+00   0.000000e+00
      128000   1.279990e-06   2.734341e+00   1.620661e+01   1.747351e+01   2.058079e+06   1.023741e+06   1.272843e+06   0.000000e+00   0.000000e+00   0.000000e+00   2.627521e+06   0.000000e+00   0.000000e+00   0.000000e+00
      136000   1.359990e-06   2.898988e+00   1.628851e+01   1.757534e+01   2.058079e+06   1.023741e+06   1.272843e+06   0.000000e+00   0.000000e+00   0.000000e+00   2.627521e+06   0.000000e+00   0.000000e+00   0.000000e+00
      144000   1.439990e-06   3.063634e+00   1.637041e+01   1.767717e+01   2.058079e+06   1.023741e+06   1.272843e+06   0.000000e+00   0.000000e+00   0.000000e+00   2.627521e+06   0.000000e+00   0.000000e+00   0.000000e+00
      152000   1.519990e-06   3.228280e+00   1.645231e+01   1.777900e+01   2.058079e+06   1.023741e+06   1.272843e+06   0.000000e+00   0.000000e+00   0.000000e+00   2.627521e+06   0.000000e+00   0.000000e+00   0.000000e+00
      160000   1.599990e-06   3.392927e+00   1.653421e+01   1.788082e+01   2.058079e+06   1.023741e+06   1.272843e+06   0.000000e+00   0.000000e+00   0.000000e+00   2.627521e+06   0.000000e+00   0.000000e+00   0.000000e+00
      168000   1.679990e-06   3.557573e+00   1.661611e+01   1.798265e+01   2.058079e+06   1.023741e+06   1.272843e+06   0.000000e+00   0.000000e+00   0.000000e+00   2.627521e+06   0.000000e+00   0.000000e+00   0.000000e+00
      176000   1.759990e-06   3.722219e+00   1.669801e+01   1.808448e+01   2.058079e+06   1.023741e+06   1.272843e+06   0.000000e+00   0.000000e+00   0.000000e+00   2.627521e+06   0.000000e+00   0.000000e+00   0.000000e+00
      184000   1.839990e-06   3.886865e+00   1.677991e+01   1.818631e+01   2.058079e+06   1.023741e+06   1.272843e+06   0.000000e+00   0.000000e+00   0.000000e+00   2.627521e+06   0.000000e+00   0.000000e+00   0.000000e+00
      192000   1.919990e-06   4.051512e+00   1.686180e+01   1.828813e+01   2.058079e+06   1.023741e+06   1.272843e+06   0.000000e+00   0.000000e+00   0.000000e+00   2.627521e+06   0.000000e+00   0.000000e+00   0.000000e+00
      200000   1.999990e-06   4.216158e+00   1.694370e+01   1.838996e+01   2.058079e+06   1.023741e+06   1.272843e+06   0.000000e+00   0.000000e+00   0.000000e+00   2.627521e+06   0.000000e+00   0.000000e+00   0.000000e+00
      208000   2.079990e-06   4.380804e+00   1.702560e+01   1.849179e+01   2.058079e+06   1.023741e+06   1.272843e+06   0.000000e+00   0.000000e+00   0.000000e+00   2.627521e+06   0.000000e+00   0.000000e+00   0.000000e+00
      216000   2.159990e-06   4.545451e+00   1.710750e+01   1.859362e+01   2.058079e+06   1.023741e+06   1.272843e+06   0.000000e+00   0.000000e+00   0.000000e+00   2.627521e+06   0.000000e+00   0.000000e+00   0.000000e+00
      224000   2.239990e-06   4.710097e+00   1.718940e+01   1.869544e+01   2.058079e+06   1.023741e+06   1.272843e+06   0.000000e+00   0.000000e+00   0.000000e+00   2.627521e+06   0.000000e+00   0.000000e+00   0.000000e+00
      232000   2.319990e-06   4.874743e+00   1.727130e+01   1.879727e+01   2.058079e+06   1.023741e+06   1.272843e+06   0.000000e+00   0.000000e+00   0.000000e+00   2.627521e+06   0.000000e+00   0.000000e+00   0.000000e+00
      240000   2.399990e-06   5.039390e+00   1.735320e+01   1.889910e+01   2.058079e+06   1.023741e+06   1.272843e+06   0.000000e+00   0.000000e+00   0.000000e+00   2.627521e+06   0.000000e+00   0.000000e+00   0.000000e+00
      248000   2.479990e-06   5.204036e+00   1.743510e+01   1.900093e+01   2.058079e+06   1.023741e+06   1.272843e+06   0.000000e+00   0.000000e+00   0.000000e+00   2.627521e+06   0.000000e+00   0.000000e+00   0.000000e+00
      256000   2.559990e-06   5.368682e+00   1.751700e+01   1.910275e+01   2.058079e+06   1.023741e+06   1.272843e+06   0.000000e+00   0.000000e+00   0.000000e+00   2.627521e+06   0.000000e+00   0.000000e+00   0.000000e+00
      264000   2.639990e-06   5.533329e+00   1.759890e+01   1.920458e+01   2.058079e+06   1.023741e+06   1.272843e+06   0.000000e+00   0.000000e+00   0.000000e+00   2.627521e+06   0.000000e+00   0.000000e+00   0.000000e+00
      272000   2.719990e-06   5.697975e+00   1.768080e+01   1.930641e+01   2.058079e+06   1.023741e+06   1.272843e+06   0.000000e+00   0.000000e+00   0.000000e+00   2.627521e+06   0.000000e+00   0.000000e+00   0.000000e+00
      280000   2.799990e-06   5.862621e+00   1.776270e+01   1.940824e+01   2.058079e+06   1.023741e+06   1.272843e+06   0.000000e+00   0.000000e+00   0.000000e+00   2.627521e+06   0.000000e+00   0.000000e+00   0.000000e+00
      288000   2.879990e-06   6.027268e+00   1.784460e+01   1.951006e+01   2.058079e+06   1.023741e+06   1.272843e+06   0.000000e+00   0.000000e+00   0.000000e+00   2.627521e+06   0.000000e+00   0.000000e+00   0.000000e+00
      296000   2.959990e-06   6.191914e+00   1.792650e+01   1.961189e+01   2.058079e+06   1.023742e+06   1.272843e+06  -2.739419e+07   7.353162e+07  -1.484705e+07   2.627521e+06   1.059475e-25   0.000000e+00   0.000000e+00
      304000   3.039990e-06   6.356560e+00   1.800839e+01   1.971372e+01   2.058076e+06   1.023750e+06   1.272841e+06  -8.659683e+07   2.329574e+08  -4.734862e+07   2.627521e+06   1.063965e-24   0.000000e+00   0.000000e+00
      312000   3.119990e-06   6.521206e+00   1.809030e+01   1.981555e+01   2.058069e+06   1.023768e+06   1.272838e+06  -1.229993e+08   3.320441e+08  -6.819017e+07   2.627521e+06   2.162631e-24   0.000000e+00   0.000000e+00
      320000   3.199990e-06   6.685851e+00   1.817220e+01   1.991737e+01   2.058063e+06   1.023784e+06   1.272834e+06   1.781852e+07  -4.748936e+07   9.386300e+06   2.627521e+06   4.411489e-26   0.000000e+00   0.000000e+00
      328000   3.279990e-06   6.850496e+00   1.825410e+01   2.001920e+01   2.058062e+06   1.023787e+06   1.272834e+06  -3.467742e+01   6.225708e+01   5.994727e+00   2.627521e+06   8.507910e-38   0.000000e+00   0.000000e+00
      336000   3.359990e-06   7.015141e+00   1.833600e+01   2.012103e+01   2.058062e+06   1.023787e+06   1.272834e+06  -4.094384e+01   8.231276e+01  -4.522117e-03   2.627521e+06   1.405371e-37   0.000000e+00   0.000000e+00
      344000   3.439990e-06   7.179786e+00   1.841791e+01   2.022285e+01   2.058062e+06   1.023787e+06   1.272834e+06  -4.868398e+01   9.786669e+01  -1.648551e-19   2.627521e+06   1.986238e-37   0.000000e+00   0.000000e+00
      352000   3.519990e-06   7.344431e+00   1.849981e+01   2.032468e+01   2.058062e+06   1.023787e+06   1.272834e+06  -6.275390e+01   1.261507e+02   2.061697e-20   2.627521e+06   3.301338e-37   0.000000e+00   0.000000e+00
      360000   3.599990e-06   7.509076e+00   1.858171e+01   2.042651e+01   2.058062e+06   1.023787e+06   1.272834e+06  -3.535276e+01   7.106769e+01   1.833996e-19   2.627521e+06   1.047554e-37   0.000000e+00   0.000000e+00
      368000   3.679990e-06   7.673721e+00   1.866362e+01   2.052833e+01   2.058062e+06   1.023787e+06   1.272834e+06  -5.267705e+01   1.058937e+02   4.935156e-19   2.627521e+06   2.325947e-37   0.000000e+00   0.000000e+00
      376000   3.759990e-06   7.838366e+00   1.874552e+01   2.063016e+01   2.058062e+06   1.023787e+06   1.272834e+06  -2.906523e+01   5.842822e+01  -2.626467e-20   2.627521e+06   7.090534e-38   0.000000e+00   0.000000e+00
      384000   3.839990e-06   8.003011e+00   1.882742e+01   2.073199e+01   2.058062e+06   1.023787e+06   1.272834e+06  -5.807610e+01   1.167472e+02  -2.437613e-19   2.627521e+06   2.829363e-37   0.000000e+00   0.000000e+00
      392000   3.919990e-06   8.167656e+00   1.890932e+01   2.083381e+01   2.058062e+06   1.023787e+06   1.272834e+06  -3.347631e+01   6.729556e+01   7.303866e-20   2.627521e+06   9.398388e-38   0.000000e+00   0.000000e+00
      400000   3.999990e-06   8.332301e+00   1.899123e+01   2.093564e+01   2.058062e+06   1.023787e+06   1.272834e+06  -2.965284e+01   5.960946e+01  -4.196965e-20   2.627521e+06   7.376185e-38   0.000000e+00   0.000000e+00
      408000   4.079990e-06   8.496946e+00   1.907313e+01   2.103747e+01   2.058062e+06   1.023787e+06   1.272834e+06  -5.124491e+01   1.030148e+02  -3.555577e-19   2.627521e+06   2.201293e-37   0.000000e+00   0.000000e+00
      416000   4.159990e-06   8.661591e+00   1.915503e+01   2.113929e+01   2.058062e+06   1.023787e+06   1.272834e+06  -3.614624e+01   7.266278e+01  -6.161768e-20   2.627521e+06   1.096181e-37   0.000000e+00   0.000000e+00
      424000   4.239990e-06   8.826236e+00   1.923694e+01   2.124112e+01   2.058062e+06   1.023787e+06   1.272834e+06  -9.571616e+01   1.924129e+02  -3.103852e-19   2.627521e+06   7.676065e-37   0.000000e+00   0.000000e+00
      432000   4.319990e-06   8.990881e+00   1.931884e+01   2.134295e+01   2.058062e+06   1.023787e+06   1.272834e+06  -1.759541e+01   3.537107e+01   2.180125e-20   2.627521e+06   2.599031e-38   0.000000e+00   0.000000e+00
      440000   4.399990e-06   9.155526e+00   1.940074e+01   2.144477e+01   2.058062e+06   1.023787e+06   1.272834e+06  -5.734035e+01   1.152681e+02  -7.706427e-19   2.627521e+06   2.758198e-37   0.000000e+00   0.000000e+00
      448000   4.479990e-06   9.320171e+00   1.948264e+01   2.154660e+01   2.058062e+06   1.023787e+06   1.272834e+06  -6.256299e+01   1.257669e+02   3.446212e-19   2.627521e+06   3.282744e-37   0.000000e+00   0.000000e+00
      456000   4.559990e-06   9.484815e+00   1.956455e+01   2.164843e+01   2.058062e+06   1.023787e+06   1.272834e+06  -1.037763e+02   2.086158e+02  -2.267689e-19   2.627521e+06   9.027328e-37   0.000000e+00   0.000000e+00
      464000   4.639990e-06   9.649460e+00   1.964645e+01   2.175025e+01   2.058062e+06   1.023787e+06   1.272834e+06  -6.497863e+01   1.306229e+02   4.764514e-19   2.627521e+06   3.541121e-37   0.000000e+00   0.000000e+00
      472000   4.719990e-06   9.814105e+00   1.972835e+01   2.185208e+01   2.058062e+06   1.023787e+06   1.272834e+06  -7.644439e+01   1.536719e+02  -7.602624e-19   2.627521e+06   4.899204e-37   0.000000e+00   0.000000e+00
      480000   4.799990e-06   9.978750e+00   1.981026e+01   2.195391e+01   2.058062e+06   1.023787e+06   1.272834e+06  -4.755641e+01   9.560001e+01  -5.555012e-19   2.627521e+06   1.897539e-37   0.000000e+00   0.000000e+00
      488000   4.879990e-06   1.014340e+01   1.989216e+01   2.205573e+01   2.058062e+06   1.023787e+06   1.272834e+06  -1.453194e+02   2.921274e+02  -6.179712e-19   2.627521e+06   1.770260e-36   0.000000e+00   0.000000e+00
      496000   4.959990e-06   1.030804e+01   1.997406e+01   2.215756e+01   2.058062e+06   1.023787e+06   1.272834e+06  -1.037863e+02   2.086357e+02  -3.211900e-21   2.627521e+06   9.029741e-37   0.000000e+00   0.000000e+00
      504000   5.039990e-06   1.047269e+01   2.005597e+01   2.225939e+01   2.058062e+06   1.023787e+06   1.272834e+06  -1.709721e+02   3.436957e+02   9.005798e-19   2.627521e+06   2.450458e-36   0.000000e+00   0.000000e+00
      512000   5.119990e-06   1.063733e+01   2.013787e+01   2.236121e+01   2.058062e+06   1.023787e+06   1.272834e+06  -1.356099e+02   2.726090e+02  -3.936790e-20   2.627521e+06   1.541928e-36   0.000000e+00   0.000000e+00
      520000   5.199990e-06   1.080198e+01   2.021977e+01   2.246304e+01   2.058062e+06   1.023787e+06   1.272834e+06  -1.313093e+02   2.639639e+02   3.905922e-19   2.627521e+06   1.445330e-36   0.000000e+00   0.000000e+00
      528000   5.279990e-06   1.096662e+01   2.030167e+01   2.256487e+01   2.058062e+06   1.023787e+06   1.272834e+06  -1.362664e+02   2.739287e+02   1.488585e-19   2.627521e+06   1.556968e-36   0.000000e+00   0.000000e+00
      536000   5.359990e-06   1.113126e+01   2.038358e+01   2.266669e+01   2.058062e+06   1.023787e+06   1.272834e+06  -1.649298e+02   3.315493e+02   6.484390e-19   2.627521e+06   2.280305e-36   0.000000e+00   0.000000e+00
      544000   5.439990e-06   1.129591e+01   2.046548e+01   2.276852e+01   2.058062e+06   1.023787e+06   1.272834e+06  -1.262144e+02   2.537218e+02   1.005262e-18   2.627521e+06   1.335832e-36   0.000000e+00   0.000000e+00
      552000   5.519990e-06   1.146055e+01   2.054738e+01   2.287035e+01   2.058062e+06   1.023787e+06   1.272834e+06  -1.673186e+02   3.363514e+02   8.483645e-19   2.627521e+06   2.346994e-36   0.000000e+00   0.000000e+00
      560000   5.599990e-06   1.162520e+01   2.062929e+01   2.297217e+01   2.058062e+06   1.023787e+06   1.272834e+06  -2.073875e+02   4.168995e+02  -9.922719e-20   2.627521e+06   3.605435e-36   0.000000e+00   0.000000e+00
      568000   5.679990e-06   1.178984e+01   2.071119e+01   2.307400e+01   2.058062e+06   1.023787e+06   1.272834e+06  -2.374074e+02   4.772469e+02   5.792119e-20   2.627521e+06   4.725239e-36   0.000000e+00   0.000000e+00
      576000   5.759990e-06   1.195449e+01   2.079309e+01   2.317583e+01   2.058062e+06   1.023787e+06   1.272834e+06  -1.815186e+02   3.648968e+02   1.080480e-18   2.627521e+06   2.762864e-36   0.000000e+00   0.000000e+00
      584000   5.839990e-06   1.211913e+01   2.087499e+01   2.327765e+01   2.058062e+06   1.023787e+06   1.272834e+06  -2.288080e+02   4.599601e+02   5.501449e-19   2.627521e+06   4.390359e-36   0.000000e+00   0.000000e+00
      592000   5.919990e-06   1.228378e+01   2.095690e+01   2.337948e+01   2.058062e+06   1.023787e+06   1.272834e+06  -3.037800e+02   6.106720e+02  -2.858029e-19   2.627521e+06   7.736806e-36   0.000000e+00   0.000000e+00
      600000   5.999990e-06   1.244842e+01   2.103880e+01   2.348131e+01   2.058062e+06   1.023787e+06   1.272834e+06  -3.214698e+02   6.462330e+02   1.091246e-18   2.627521e+06   8.663614e-36   0.000000e+00   0.000000e+00
      608000   6.079990e-06   1.261307e+01   2.112070e+01   2.358313e+01   2.058062e+06   1.023787e+06   1.272834e+06  -2.903001e+02   5.835742e+02   6.418716e-19   2.627521e+06   7.065533e-36   0.000000e+00   0.000000e+00
      616000   6.159990e-06   1.277771e+01   2.120261e+01   2.368496e+01   2.058062e+06   1.023787e+06   1.272834e+06  -2.716081e+02   5.459987e+02   2.600862e-18   2.627521e+06   6.186416e-36   0.000000e+00   0.000000e+00
      624000   6.239990e-06   1.294236e+01   2.128451e+01   2.378679e+01   2.058062e+06   1.023787e+06   1.272834e+06  -4.487472e+02   9.020916e+02  -7.819745e-19   2.627521e+06   1.688144e-35   0.000000e+00   0.000000e+00
      632000   6.319990e-06   1.310700e+01   2.136641e+01   2.388861e+01   2.058062e+06   1.023787e+06   1.272834e+06  -3.725103e+02   7.488368e+02  -6.491213e-19   2.627521e+06   1.163414e-35   0.000000e+00   0.000000e+00
      640000   6.399990e-06   1.327165e+01   2.144832e+01   2.399044e+01   2.058062e+06   1.023787e+06   1.272834e+06  -4.368038e+02   8.780824e+02  -6.121580e-19   2.627521e+06   1.599645e-35   0.000000e+00   0.000000e+00
      648000   6.479990e-06   1.343629e+01   2.153022e+01   2.409227e+01   2.058062e+06   1.023787e+06   1.272834e+06  -4.384897e+02   8.814714e+02  -9.053534e-19   2.627521e+06   1.612156e-35   0.000000e+00   0.000000e+00
      656000   6.559990e-06   1.360094e+01   2.161212e+01   2.419409e+01   2.058062e+06   1.023787e+06   1.272834e+06  -5.281572e+02   1.061725e+03  -8.921472e-19   2.627521e+06   2.338672e-35   0.000000e+00   0.000000e+00
      664000   6.639990e-06   1.376558e+01   2.169402e+01   2.429592e+01   2.058062e+06   1.023787e+06   1.272834e+06  -5.744907e+02   1.154867e+03   2.012524e-19   2.627521e+06   2.767024e-35   0.000000e+00   0.000000e+00
      672000   6.719990e-06   1.393023e+01   2.177593e+01   2.439775e+01   2.058062e+06   1.023787e+06   1.272834e+06  -5.643653e+02   1.134512e+03   2.267616e-18   2.627521e+06   2.670475e-35   0.000000e+00   0.000000e+00
      680000   6.799990e-06   1.409487e+01   2.185783e+01   2.449957e+01   2.058062e+06   1.023787e+06   1.272834e+06  -6.274463e+02   1.261320e+03  -1.088377e-18   2.627521e+06   3.300758e-35   0.000000e+00   0.000000e+00
      688000   6.879990e-06   1.425952e+01   2.193973e+01   2.460140e+01   2.058062e+06   1.023787e+06   1.272834e+06  -7.374444e+02   1.482444e+03   4.290615e-19   2.627521e+06   4.559477e-35   0.000000e+00   0.000000e+00
      696000   6.959990e-06   1.442416e+01   2.202164e+01   2.470323e+01   2.058062e+06   1.023787e+06   1.272834e+06  -7.843271e+02   1.576689e+03   2.700109e-19   2.627521e+06   5.157709e-35   0.000000e+00   0.000000e+00
      704000   7.039990e-06   1.458881e+01   2.210354e+01   2.480505e+01   2.058062e+06   1.023787e+06   1.272834e+06  -8.925232e+02   1.794190e+03   3.016214e-18   2.627521e+06   6.678502e-35   0.000000e+00   0.000000e+00
      712000   7.119990e-06   1.475345e+01   2.218544e+01   2.490688e+01   2.058062e+06   1.023787e+06   1.272834e+06  -9.601430e+02   1.930122e+03  -6.396757e-18   2.627521e+06   7.728926e-35   0.000000e+00   0.000000e+00
      720000   7.199990e-06   1.491810e+01   2.226735e+01   2.500871e+01   2.058062e+06   1.023787e+06   1.272834e+06  -1.015202e+03   2.040803e+03   2.864053e-18   2.627521e+06   8.641537e-35   0.000000e+00   0.000000e+00
      728000   7.279990e-06   1.508274e+01   2.234925e+01   2.511053e+01   2.058062e+06   1.023787e+06   1.272834e+06  -1.154259e+03   2.320342e+03  -4.836974e-18   2.627521e+06   1.116996e-34   0.000000e+00   0.000000e+00
      736000   7.359990e-06   1.524739e+01   2.243115e+01   2.521236e+01   2.058062e+06   1.023787e+06   1.272834e+06  -1.248837e+03   2.510468e+03  -7.271824e-18   2.627521e+06   1.307579e-34   0.000000e+00   0.000000e+00
      744000   7.439990e-06   1.541203e+01   2.251305e+01   2.531419e+01   2.058062e+06   1.023787e+06   1.272834e+06  -1.378091e+03   2.770299e+03   4.612744e-18   2.627521e+06   1.592240e-34   0.000000e+00   0.000000e+00
      752000   7.519990e-06   1.557668e+01   2.259496e+01   2.541601e+01   2.058062e+06   1.023787e+06   1.272834e+06  -1.394755e+03   2.803798e+03   7.603121e-18   2.627521e+06   1.631038e-34   0.000000e+00   0.000000e+00
      760000   7.599990e-06   1.574132e+01   2.267686e+01   2.551784e+01   2.058062e+06   1.023787e+06   1.272834e+06  -1.667669e+03   3.352422e+03   1.786388e-17   2.627521e+06   2.331716e-34   0.000000e+00   0.000000e+00
      768000   7.679990e-06   1.590597e+01   2.275876e+01   2.561967e+01   2.058062e+06   1.023787e+06   1.272834e+06  -1.894074e+03   3.807552e+03  -4.263939e-18   2.627521e+06   3.007838e-34   0.000000e+00   0.000000e+00
      776000   7.759990e-06   1.607061e+01   2.284067e+01   2.572149e+01   2.058062e+06   1.023787e+06   1.272834e+06  -2.073353e+03   4.167947e+03   7.395443e-19   2.627521e+06   3.604082e-34   0.000000e+00   0.000000e+00
      784000   7.839990e-06   1.623526e+01   2.292257e+01   2.582332e+01   2.058062e+06   1.023787e+06   1.272834e+06  -2.268632e+03   4.560504e+03  -1.039419e-19   2.627521e+06   4.315031e-34   0.000000e+00   0.000000e+00
      792000   7.919990e-06   1.639990e+01   2.300447e+01   2.592515e+01   2.058062e+06   1.023787e+06   1.272834e+06  -2.657132e+03   5.341484e+03   1.267521e-17   2.627521e+06   5.919370e-34   0.000000e+00   0.000000e+00
      800000   7.999990e-06   1.656455e+01   2.308637e+01   2.602697e+01   2.058062e+06   1.023787e+06   1.272834e+06  -2.823062e+03   5.675044e+03  -5.912448e-18   2.627521e+06   6.681789e-34   0.000000e+00   0.000000e+00
      808000   8.079990e-06   1.672919e+01   2.316828e+01   2.612880e+01   2.058062e+06   1.023787e+06   1.272834e+06  -3.146156e+03   6.324543e+03  -2.320818e-17   2.627521e+06   8.298728e-34   0.000000e+00   0.000000e+00
      816000   8.159990e-06   1.689384e+01   2.325018e+01   2.623063e+01   2.058062e+06   1.023787e+06   1.272834e+06  -3.563928e+03   7.164366e+03   1.901681e-18   2.627521e+06   1.064891e-33   0.000000e+00   0.000000e+00
      824000   8.239990e-06   1.705848e+01   2.333208e+01   2.633246e+01   2.058062e+06   1.023787e+06   1.272834e+06  -3.862618e+03   7.764806e+03   2.685020e-17   2.627521e+06   1.250890e-33   0.000000e+00   0.000000e+00
      832000   8.319990e-06   1.722313e+01   2.341399e+01   2.643428e+01   2.058062e+06   1.023787e+06   1.272834e+06  -4.370737e+03   8.786251e+03  -8.703611e-18   2.627521e+06   1.601621e-33   0.000000e+00   0.000000e+00
      840000   8.399990e-06   1.738777e+01   2.349589e+01   2.653611e+01   2.058062e+06   1.023787e+06   1.272834e+06  -4.932310e+03   9.915150e+03   9.758856e-18   2.627521e+06   2.039626e-33   0.000000e+00   0.000000e+00
      848000   8.479990e-06   1.755242e+01   2.357779e+01   2.663794e+01   2.058062e+06   1.023787e+06   1.272834e+06  -5.447307e+03   1.095042e+04   7.774514e-17   2.627521e+06   2.487824e-33   0.000000e+00   0.000000e+00
      856000   8.559990e-06   1.771706e+01   2.365970e+01   2.673976e+01   2.058062e+06   1.023787e+06   1.272834e+06  -6.218911e+03   1.250153e+04   4.305394e-19   2.627521e+06   3.242538e-33   0.000000e+00   0.000000e+00
      864000   8.639990e-06   1.788171e+01   2.374160e+01   2.684159e+01   2.058062e+06   1.023787e+06   1.272834e+06  -7.091517e+03   1.425568e+04   4.556293e-17   2.627521e+06   4.216273e-33   0.000000e+00   0.000000e+00
      872000   8.719990e-06   1.804635e+01   2.382350e+01   2.694342e+01   2.058062e+06   1.023787e+06   1.272834e+06  -8.044786e+03   1.617199e+04   7.918282e-17   2.627521e+06   5.425895e-33   0.000000e+00   0.000000e+00
      880000   8.799990e-06   1.821100e+01   2.390540e+01   2.704524e+01   2.058062e+06   1.023787e+06   1.272834e+06  -9.083107e+03   1.825927e+04   5.445589e-17   2.627521e+06   6.917036e-33   0.000000e+00   0.000000e+00
      888000   8.879990e-06   1.837564e+01   2.398731e+01   2.714707e+01   2.058062e+06   1.023787e+06   1.272834e+06  -1.020503e+04   2.051461e+04   4.191324e-17   2.627521e+06   8.731301e-33   0.000000e+00   0.000000e+00
      896000   8.959990e-06   1.854029e+01   2.406921e+01   2.724890e+01   2.058062e+06   1.023787e+06   1.272834e+06  -1.167660e+04   2.347282e+04   4.002063e-17   2.627521e+06   1.143094e-32   0.000000e+00   0.000000e+00
      904000   9.039990e-06   1.870493e+01   2.415111e+01   2.735072e+01   2.058062e+06   1.023787e+06   1.272834e+06  -1.333367e+04   2.680393e+04   3.713579e-17   2.627521e+06   1.490554e-32   0.000000e+00   0.000000e+00
      912000   9.119990e-06   1.886958e+01   2.423302e+01   2.745255e+01   2.058062e+06   1.023787e+06   1.272834e+06  -1.521927e+04   3.059446e+04  -8.944185e-18   2.627521e+06   1.941941e-32   0.000000e+00   0.000000e+00
      920000   9.199990e-06   1.903422e+01   2.431492e+01   2.755438e+01   2.058062e+06   1.023787e+06   1.272834e+06  -1.742838e+04   3.503531e+04   4.628803e-17   2.627521e+06   2.546607e-32   0.000000e+00   0.000000e+00
      928000   9.279990e-06   1.919887e+01   2.439682e+01   2.765620e+01   2.058062e+06   1.023787e+06   1.272834e+06  -1.994654e+04   4.009743e+04   1.487875e-16   2.627521e+06   3.335673e-32   0.000000e+00   0.000000e+00
      936000   9.359990e-06   1.936351e+01   2.447872e+01   2.775803e+01   2.058062e+06   1.023787e+06   1.272834e+06  -2.290182e+04   4.603826e+04  -2.171092e-16   2.627521e+06   4.397312e-32   0.000000e+00   0.000000e+00
      944000   9.439990e-06   1.952816e+01   2.456063e+01   2.785986e+01   2.058038e+06   1.023835e+06   1.272834e+06  -3.488422e+09   7.012171e+09  -2.814925e-11   2.627521e+06   1.018694e-21   0.000000e+00   0.000000e+00
      952000   9.519990e-06   1.969277e+01   2.464260e+01   2.796168e+01   2.057000e+06   1.025918e+06   1.272834e+06  -2.273435e+10   4.558318e+10  -1.555265e-09   2.627521e+06   4.314530e-20   0.000000e+00   0.000000e+00
      960000   9.599990e-06   1.985713e+01   2.472507e+01   2.806351e+01   2.052120e+06   1.035646e+06   1.272834e+06  -9.644044e+10   1.910961e+11  -2.420196e-08   2.627521e+06   7.616889e-19   0.000000e+00   0.000000e+00
      968000   9.679990e-06   2.002103e+01   2.480845e+01   2.816534e+01   2.045984e+06   1.047715e+06   1.272834e+06  -2.359656e+10   4.607953e+10  -1.200431e-09   2.627521e+06   4.467073e-20   0.000000e+00   0.000000e+00
