     timestep     time              x             y              z              vx             vy             vz             ax             ay             az         v_magnitude      ELoss        Electronic      Nuclear
           0   0.000000e+00   1.000000e-01   9.367713e+00   1.878175e+01   7.143489e+05  -1.922654e+05   9.166038e+05   0.000000e+00   0.000000e+00   0.000000e+00   1.177889e+06   0.000000e+00   0.000000e+00   0.000000e+00
        8000   7.999000e-08   1.571479e-01   9.352332e+00   1.885508e+01   7.143489e+05  -1.922654e+05   9.166038e+05   0.000000e+00   0.000000e+00   0.000000e+00   1.177889e+06   0.000000e+00   0.000000e+00   0.000000e+00
       16000   1.599900e-07   2.142958e-01   9.336951e+00   1.892841e+01   7.143489e+05  -1.922654e+05   9.166038e+05   0.000000e+00   0.000000e+00   0.000000e+00   1.177889e+06   0.000000e+00   0.000000e+00   0.000000e+00
       24000   2.399900e-07   2.714437e-01   9.321569e+00   1.900173e+01   7.143489e+05  -1.922654e+05   9.166038e+05   0.000000e+00   0.000000e+00   0.000000e+00   1.177889e+06   0.000000e+00   0.000000e+00   0.000000e+00
       32000   3.199900e-07   3.285917e-01   9.306188e+00   1.907506e+01   7.143489e+05  -1.922654e+05   9.166038e+05   0.000000e+00   0.000000e+00   0.000000e+00   1.177889e+06   0.000000e+00   0.000000e+00   0.000000e+00
       40000   3.999900e-07   3.857396e-01   9.290807e+00   1.914839e+01   7.143489e+05  -1.922654e+05   9.166038e+05   0.000000e+00   0.000000e+00   0.000000e+00   1.177889e+06   0.000000e+00   0.000000e+00   0.000000e+00
       48000   4.799900e-07   4.428875e-01   9.275426e+00   1.922172e+01   7.143489e+05  -1.922654e+05   9.166038e+05   0.000000e+00   0.000000e+00   0.000000e+00   1.177889e+06   0.000000e+00   0.000000e+00   0.000000e+00
       56000   5.599900e-07   5.000354e-01   9.260044e+00   1.929505e+01   7.143489e+05  -1.922654e+05   9.166038e+05   0.000000e+00   0.000000e+00   0.000000e+00   1.177889e+06   0.000000e+00   0.000000e+00   0.000000e+00
       64000   6.399900e-07   5.571833e-01   9.244663e+00   1.936838e+01   7.143489e+05  -1.922654e+05   9.166038e+05   0.000000e+00   0.000000e+00   0.000000e+00   1.177889e+06   0.000000e+00   0.000000e+00   0.000000e+00
       72000   7.199900e-07   6.143312e-01   9.229282e+00   1.944170e+01   7.143489e+05  -1.922654e+05   9.166038e+05   0.000000e+00   0.000000e+00   0.000000e+00   1.177889e+06   0.000000e+00   0.000000e+00   0.000000e+00
       80000   7.999900e-07   6.714792e-01   9.213901e+00   1.951503e+01   7.143489e+05  -1.922654e+05   9.166038e+05   0.000000e+00   0.000000e+00   0.000000e+00   1.177889e+06   0.000000e+00   0.000000e+00   0.000000e+00
       88000   8.799900e-07   7.286271e-01   9.198519e+00   1.958836e+01   7.143487e+05  -1.922650e+05   9.166041e+05   0.000000e+00   0.000000e+00   0.000000e+00   1.177889e+06   0.000000e+00   0.000000e+00   0.000000e+00
       96000   9.599900e-07   7.857749e-01   9.183138e+00   1.966169e+01   7.143461e+05  -1.922610e+05   9.166070e+05  -6.384614e+07   9.781755e+07   7.027520e+07   1.177889e+06   6.209004e-26   0.000000e+00   0.000000e+00
      104000   1.039990e-06   8.429224e-01   9.167758e+00   1.973502e+01   7.143410e+05  -1.922532e+05   9.166126e+05  -9.849631e+07   1.505251e+08   1.083324e+08   1.177889e+06   1.473430e-25   0.000000e+00   0.000000e+00
      112000   1.119990e-06   9.000693e-01   9.152378e+00   1.980835e+01   7.143312e+05  -1.922383e+05   9.166233e+05  -8.575624e+07   1.307023e+08   9.424193e+07   1.177889e+06   1.113694e-25   0.000000e+00   0.000000e+00
      120000   1.199990e-06   9.572156e-01   9.136999e+00   1.988168e+01   7.143268e+05  -1.922315e+05   9.166282e+05  -2.638489e+07   4.007210e+07   2.896546e+07   1.177889e+06   1.050281e-26   0.000000e+00   0.000000e+00
      128000   1.279990e-06   1.014362e+00   9.121621e+00   1.995501e+01   7.143232e+05  -1.922261e+05   9.166321e+05  -1.407646e+07   2.131918e+07   1.544049e+07   1.177889e+06   2.981398e-27   0.000000e+00   0.000000e+00
      136000   1.359990e-06   1.071507e+00   9.106243e+00   2.002834e+01   7.143235e+05  -1.922266e+05   9.166318e+05  -6.527697e+00  -8.465345e+00   3.311715e+00   1.177889e+06   4.185324e-40   0.000000e+00   0.000000e+00
      144000   1.439990e-06   1.128653e+00   9.090865e+00   2.010167e+01   7.143235e+05  -1.922266e+05   9.166318e+05  -6.712123e+00  -1.506858e+01   2.070675e+00   1.177889e+06   9.236533e-40   0.000000e+00   0.000000e+00
      152000   1.519990e-06   1.185799e+00   9.075487e+00   2.017500e+01   7.143235e+05  -1.922266e+05   9.166318e+05  -9.321603e+00  -1.956635e+01   3.160994e+00   1.177889e+06   1.603131e-39   0.000000e+00   0.000000e+00
      160000   1.599990e-06   1.242945e+00   9.060109e+00   2.024833e+01   7.143235e+05  -1.922266e+05   9.166318e+05  -7.640588e+00  -2.839281e+01   7.040786e-21   1.177889e+06   2.888812e-39   0.000000e+00   0.000000e+00
      168000   1.679990e-06   1.300091e+00   9.044730e+00   2.032166e+01   7.143235e+05  -1.922266e+05   9.166318e+05  -5.821390e+00  -2.163258e+01  -1.439609e-20   1.177889e+06   1.677279e-39   0.000000e+00   0.000000e+00
      176000   1.759990e-06   1.357237e+00   9.029352e+00   2.039499e+01   7.143235e+05  -1.922266e+05   9.166318e+05  -4.547872e+00  -1.690012e+01  -2.296794e-21   1.177889e+06   1.023705e-39   0.000000e+00   0.000000e+00
      184000   1.839990e-06   1.414383e+00   9.013974e+00   2.046832e+01   7.143235e+05  -1.922266e+05   9.166318e+05  -6.102932e+00  -2.267880e+01  -5.854589e-22   1.177889e+06   1.843027e-39   0.000000e+00   0.000000e+00
      192000   1.919990e-06   1.471529e+00   8.998596e+00   2.054165e+01   7.143235e+05  -1.922266e+05   9.166318e+05  -3.279513e+00  -1.218683e+01   8.738504e-21   1.177889e+06   5.323882e-40   0.000000e+00   0.000000e+00
      200000   1.999990e-06   1.528675e+00   8.983218e+00   2.061498e+01   7.143235e+05  -1.922266e+05   9.166318e+05  -9.043092e+00  -3.360458e+01   1.031610e-20   1.177889e+06   4.046706e-39   0.000000e+00   0.000000e+00
      208000   2.079990e-06   1.585820e+00   8.967840e+00   2.068831e+01   7.143235e+05  -1.922266e+05   9.166318e+05  -1.407466e+01  -5.230213e+01   3.893000e-20   1.177889e+06   9.803133e-39   0.000000e+00   0.000000e+00
      216000   2.159990e-06   1.642966e+00   8.952462e+00   2.076164e+01   7.143235e+05  -1.922266e+05   9.166318e+05  -1.085832e+01  -4.035006e+01   2.051436e-20   1.177889e+06   5.834524e-39   0.000000e+00   0.000000e+00
      224000   2.239990e-06   1.700112e+00   8.937084e+00   2.083497e+01   7.143235e+05  -1.922266e+05   9.166318e+05  -4.412251e+00  -1.639615e+01   2.345268e-22   1.177889e+06   9.637545e-40   0.000000e+00   0.000000e+00
      232000   2.319990e-06   1.757258e+00   8.921705e+00   2.090830e+01   7.143235e+05  -1.922266e+05   9.166318e+05  -2.018959e+00  -7.502554e+00   1.733067e-21   1.177889e+06   2.018064e-40   0.000000e+00   0.000000e+00
      240000   2.399990e-06   1.814404e+00   8.906327e+00   2.098164e+01   7.143235e+05  -1.922266e+05   9.166318e+05   1.370530e+00   5.092957e+00   5.103879e-22   1.177889e+06   9.297424e-41   0.000000e+00   0.000000e+00
      248000   2.479990e-06   1.871550e+00   8.890949e+00   2.105497e+01   7.143235e+05  -1.922266e+05   9.166318e+05   8.940430e+00   3.322309e+01   1.612183e-20   1.177889e+06   3.955378e-39   0.000000e+00   0.000000e+00
      256000   2.559990e-06   1.928696e+00   8.875571e+00   2.112830e+01   7.143235e+05  -1.922266e+05   9.166318e+05  -6.756683e+00  -2.510817e+01  -9.146727e-21   1.177889e+06   2.259783e-39   0.000000e+00   0.000000e+00
      264000   2.639990e-06   1.985842e+00   8.860193e+00   2.120163e+01   7.143235e+05  -1.922266e+05   9.166318e+05  -6.292887e+00  -2.338468e+01  -8.556922e-21   1.177889e+06   1.959825e-39   0.000000e+00   0.000000e+00
      272000   2.719990e-06   2.042987e+00   8.844815e+00   2.127496e+01   7.143235e+05  -1.922266e+05   9.166318e+05  -5.109637e+00  -1.898767e+01   5.263134e-21   1.177889e+06   1.292196e-39   0.000000e+00   0.000000e+00
      280000   2.799990e-06   2.100133e+00   8.829437e+00   2.134829e+01   7.143235e+05  -1.922266e+05   9.166318e+05  -6.065331e+00  -2.253907e+01   2.656208e-21   1.177889e+06   1.820565e-39   0.000000e+00   0.000000e+00
      288000   2.879990e-06   2.157279e+00   8.814059e+00   2.142162e+01   7.143235e+05  -1.922266e+05   9.166318e+05  -6.826475e+00  -2.536752e+01  -3.901224e-21   1.177889e+06   2.306223e-39   0.000000e+00   0.000000e+00
      296000   2.959990e-06   2.214425e+00   8.798680e+00   2.149495e+01   7.143235e+05  -1.922266e+05   9.166318e+05  -4.251617e+00  -1.579922e+01  -3.669861e-23   1.177889e+06   8.949029e-40   0.000000e+00   0.000000e+00
      304000   3.039990e-06   2.271571e+00   8.783302e+00   2.156828e+01   7.143235e+05  -1.922266e+05   9.166318e+05  -7.873787e+00  -2.925939e+01  -1.573935e-21   1.177889e+06   3.068373e-39   0.000000e+00   0.000000e+00
      312000   3.119990e-06   2.328717e+00   8.767924e+00   2.164161e+01   7.143235e+05  -1.922266e+05   9.166318e+05  -2.409881e+00  -8.955238e+00   4.407992e-21   1.177889e+06   2.874326e-40   0.000000e+00   0.000000e+00
      320000   3.199990e-06   2.385863e+00   8.752546e+00   2.171494e+01   7.143235e+05  -1.922266e+05   9.166318e+05  -1.504280e+00  -5.589981e+00  -1.228182e-21   1.177889e+06   1.120188e-40   0.000000e+00   0.000000e+00
      328000   3.279990e-06   2.443009e+00   8.737168e+00   2.178827e+01   7.143235e+05  -1.922266e+05   9.166318e+05  -5.746978e+00  -2.135606e+01  -7.883697e-22   1.177889e+06   1.634496e-39   0.000000e+00   0.000000e+00
      336000   3.359990e-06   2.500155e+00   8.721790e+00   2.186160e+01   7.143235e+05  -1.922266e+05   9.166318e+05  -7.155521e+00  -2.659027e+01   5.525386e-21   1.177889e+06   2.533780e-39   0.000000e+00   0.000000e+00
      344000   3.439990e-06   2.557300e+00   8.706412e+00   2.193493e+01   7.143235e+05  -1.922266e+05   9.166318e+05  -5.903849e+00  -2.193900e+01   3.644579e-21   1.177889e+06   1.725133e-39   0.000000e+00   0.000000e+00
      352000   3.519990e-06   2.614446e+00   8.691034e+00   2.200826e+01   7.143235e+05  -1.922266e+05   9.166318e+05  -1.063956e+01  -3.953715e+01  -1.222471e-20   1.177889e+06   5.602826e-39   0.000000e+00   0.000000e+00
      360000   3.599990e-06   2.671592e+00   8.675655e+00   2.208159e+01   7.143235e+05  -1.922266e+05   9.166318e+05  -7.562706e+00  -2.810339e+01  -3.781489e-21   1.177889e+06   2.830915e-39   0.000000e+00   0.000000e+00
      368000   3.679990e-06   2.728738e+00   8.660277e+00   2.215492e+01   7.143235e+05  -1.922266e+05   9.166318e+05  -6.797883e+00  -2.526127e+01  -6.818177e-21   1.177889e+06   2.287054e-39   0.000000e+00   0.000000e+00
      376000   3.759990e-06   2.785884e+00   8.644899e+00   2.222825e+01   7.143235e+05  -1.922266e+05   9.166318e+05  -1.124324e+01  -4.178046e+01   1.665306e-20   1.177889e+06   6.255712e-39   0.000000e+00   0.000000e+00
      384000   3.839990e-06   2.843030e+00   8.629521e+00   2.230158e+01   7.143235e+05  -1.922266e+05   9.166318e+05  -5.190918e+00  -1.928971e+01   1.099886e-20   1.177889e+06   1.333353e-39   0.000000e+00   0.000000e+00
      392000   3.919990e-06   2.900176e+00   8.614143e+00   2.237492e+01   7.143235e+05  -1.922266e+05   9.166318e+05  -9.798079e+00  -3.641015e+01  -2.029025e-20   1.177889e+06   4.750602e-39   0.000000e+00   0.000000e+00
      400000   3.999990e-06   2.957322e+00   8.598765e+00   2.244825e+01   7.143235e+05  -1.922266e+05   9.166318e+05  -5.802966e+00  -2.156411e+01   9.616972e-21   1.177889e+06   1.667038e-39   0.000000e+00   0.000000e+00
      408000   4.079990e-06   3.014467e+00   8.583387e+00   2.252158e+01   7.143235e+05  -1.922266e+05   9.166318e+05  -1.035742e+01  -3.848869e+01   8.300172e-21   1.177889e+06   5.309343e-39   0.000000e+00   0.000000e+00
      416000   4.159990e-06   3.071613e+00   8.568009e+00   2.259491e+01   7.143235e+05  -1.922266e+05   9.166318e+05  -9.454145e+00  -3.513208e+01  -3.075377e-20   1.177889e+06   4.423673e-39   0.000000e+00   0.000000e+00
      424000   4.239990e-06   3.128759e+00   8.552630e+00   2.266824e+01   7.143235e+05  -1.922266e+05   9.166318e+05  -4.601797e+00  -1.710051e+01   1.444070e-21   1.177889e+06   1.048081e-39   0.000000e+00   0.000000e+00
      432000   4.319990e-06   3.185905e+00   8.537252e+00   2.274157e+01   7.143235e+05  -1.922266e+05   9.166318e+05  -9.551409e+00  -3.549351e+01  -1.999778e-20   1.177889e+06   4.514655e-39   0.000000e+00   0.000000e+00
      440000   4.399990e-06   3.243051e+00   8.521874e+00   2.281490e+01   7.143235e+05  -1.922266e+05   9.166318e+05  -4.867990e+00  -1.808969e+01   4.795833e-21   1.177889e+06   1.172889e-39   0.000000e+00   0.000000e+00
      448000   4.479990e-06   3.300197e+00   8.506496e+00   2.288823e+01   7.143235e+05  -1.922266e+05   9.166318e+05  -7.602042e+00  -2.824957e+01   2.007650e-20   1.177889e+06   2.859692e-39   0.000000e+00   0.000000e+00
      456000   4.559990e-06   3.357343e+00   8.491118e+00   2.296156e+01   7.143235e+05  -1.922266e+05   9.166318e+05  -1.354137e+01  -5.032041e+01   1.323642e-20   1.177889e+06   9.074118e-39   0.000000e+00   0.000000e+00
      464000   4.639990e-06   3.414489e+00   8.475740e+00   2.303489e+01   7.143235e+05  -1.922266e+05   9.166318e+05  -1.064252e+01  -3.954814e+01   2.390345e-21   1.177889e+06   5.604861e-39   0.000000e+00   0.000000e+00
      472000   4.719990e-06   3.471635e+00   8.460362e+00   2.310822e+01   7.143235e+05  -1.922266e+05   9.166318e+05  -5.970914e+00  -2.218821e+01  -5.137967e-21   1.177889e+06   1.765097e-39   0.000000e+00   0.000000e+00
      480000   4.799990e-06   3.528780e+00   8.444984e+00   2.318155e+01   7.143235e+05  -1.922266e+05   9.166318e+05  -4.407675e+00  -1.637914e+01   1.456373e-21   1.177889e+06   9.614372e-40   0.000000e+00   0.000000e+00
      488000   4.879990e-06   3.585926e+00   8.429605e+00   2.325488e+01   7.143235e+05  -1.922266e+05   9.166318e+05  -5.734033e+00  -2.130795e+01   1.949683e-21   1.177889e+06   1.627357e-39   0.000000e+00   0.000000e+00
      496000   4.959990e-06   3.643072e+00   8.414227e+00   2.332821e+01   7.143235e+05  -1.922266e+05   9.166318e+05  -8.869223e+00  -3.295848e+01   9.918411e-21   1.177889e+06   3.893058e-39   0.000000e+00   0.000000e+00
      504000   5.039990e-06   3.700218e+00   8.398849e+00   2.340154e+01   7.143235e+05  -1.922266e+05   9.166318e+05  -1.042441e+01  -3.873764e+01  -1.097451e-21   1.177889e+06   5.377439e-39   0.000000e+00   0.000000e+00
      512000   5.119990e-06   3.757364e+00   8.383471e+00   2.347487e+01   7.143235e+05  -1.922266e+05   9.166318e+05  -1.579427e+01  -5.869229e+01  -2.342956e-20   1.177889e+06   1.234498e-38   0.000000e+00   0.000000e+00
      520000   5.199990e-06   3.814510e+00   8.368093e+00   2.354820e+01   7.143235e+05  -1.922266e+05   9.166318e+05  -5.427046e+00  -2.016718e+01  -7.340929e-21   1.177889e+06   1.458143e-39   0.000000e+00   0.000000e+00
      528000   5.279990e-06   3.871656e+00   8.352715e+00   2.362153e+01   7.143235e+05  -1.922266e+05   9.166318e+05  -4.576997e+00  -1.700835e+01  -2.439592e-21   1.177889e+06   1.036812e-39   0.000000e+00   0.000000e+00
      536000   5.359990e-06   3.928802e+00   8.337337e+00   2.369487e+01   7.143235e+05  -1.922266e+05   9.166318e+05  -4.022759e+00  -1.494877e+01   4.562042e-21   1.177889e+06   8.009807e-40   0.000000e+00   0.000000e+00
      544000   5.439990e-06   3.985947e+00   8.321959e+00   2.376820e+01   7.143235e+05  -1.922266e+05   9.166318e+05  -1.557286e+01  -5.786952e+01   5.086195e-21   1.177889e+06   1.200117e-38   0.000000e+00   0.000000e+00
      552000   5.519990e-06   4.043093e+00   8.306580e+00   2.384153e+01   7.143235e+05  -1.922266e+05   9.166318e+05  -9.316094e+00  -3.461907e+01  -1.173504e-20   1.177889e+06   4.294715e-39   0.000000e+00   0.000000e+00
      560000   5.599990e-06   4.100239e+00   8.291202e+00   2.391486e+01   7.143235e+05  -1.922266e+05   9.166318e+05  -1.080213e+01  -4.014126e+01  -1.838712e-21   1.177889e+06   5.774867e-39   0.000000e+00   0.000000e+00
      568000   5.679990e-06   4.157385e+00   8.275824e+00   2.398819e+01   7.143235e+05  -1.922266e+05   9.166318e+05  -1.130963e+01  -4.202717e+01   2.409476e-20   1.177889e+06   6.330243e-39   0.000000e+00   0.000000e+00
      576000   5.759990e-06   4.214531e+00   8.260446e+00   2.406152e+01   7.143235e+05  -1.922266e+05   9.166318e+05  -1.164753e+01  -4.328282e+01  -2.687074e-20   1.177889e+06   6.713532e-39   0.000000e+00   0.000000e+00
      584000   5.839990e-06   4.271677e+00   8.245068e+00   2.413485e+01   7.143235e+05  -1.922266e+05   9.166318e+05  -3.981299e+00  -1.479471e+01   1.837378e-22   1.177889e+06   7.847584e-40   0.000000e+00   0.000000e+00
      592000   5.919990e-06   4.328823e+00   8.229690e+00   2.420818e+01   7.143235e+05  -1.922266e+05   9.166318e+05  -9.017321e+00  -3.350882e+01   2.160235e-20   1.177889e+06   4.024004e-39   0.000000e+00   0.000000e+00
      600000   5.999990e-06   4.385969e+00   8.214312e+00   2.428151e+01   7.143235e+05  -1.922266e+05   9.166318e+05  -1.107897e+01  -4.116999e+01   1.125884e-20   1.177889e+06   6.074441e-39   0.000000e+00   0.000000e+00
      608000   6.079990e-06   4.443115e+00   8.198934e+00   2.435484e+01   7.143235e+05  -1.922266e+05   9.166318e+05  -1.069876e+01  -3.975711e+01   1.971835e-20   1.177889e+06   5.664773e-39   0.000000e+00   0.000000e+00
      616000   6.159990e-06   4.500260e+00   8.183555e+00   2.442817e+01   7.143235e+05  -1.922266e+05   9.166318e+05  -8.451012e+00  -3.140438e+01   7.189679e-22   1.177889e+06   3.534863e-39   0.000000e+00   0.000000e+00
      624000   6.239990e-06   4.557406e+00   8.168177e+00   2.450150e+01   7.143235e+05  -1.922266e+05   9.166318e+05  -4.431836e+00  -1.646893e+01   1.353428e-21   1.177889e+06   9.722123e-40   0.000000e+00   0.000000e+00
      632000   6.319990e-06   4.614552e+00   8.152799e+00   2.457483e+01   7.143235e+05  -1.922266e+05   9.166318e+05  -6.329323e+00  -2.352008e+01   5.618727e-21   1.177889e+06   1.982740e-39   0.000000e+00   0.000000e+00
      640000   6.399990e-06   4.671698e+00   8.137421e+00   2.464816e+01   7.143235e+05  -1.922266e+05   9.166318e+05  -8.061062e+00  -2.995531e+01  -7.844228e-21   1.177889e+06   3.215713e-39   0.000000e+00   0.000000e+00
      648000   6.479990e-06   4.728844e+00   8.122043e+00   2.472149e+01   7.143235e+05  -1.922266e+05   9.166318e+05  -8.800353e+00  -3.270255e+01   2.123816e-21   1.177889e+06   3.832608e-39   0.000000e+00   0.000000e+00
      656000   6.559990e-06   4.785990e+00   8.106665e+00   2.479482e+01   7.143235e+05  -1.922266e+05   9.166318e+05  -1.154331e+01  -4.289551e+01   2.191115e-20   1.177889e+06   6.594211e-39   0.000000e+00   0.000000e+00
      664000   6.639990e-06   4.843136e+00   8.091287e+00   2.486815e+01   7.143235e+05  -1.922266e+05   9.166318e+05  -1.332761e+01  -4.952606e+01   2.663954e-20   1.177889e+06   8.790990e-39   0.000000e+00   0.000000e+00
      672000   6.719990e-06   4.900282e+00   8.075909e+00   2.494148e+01   7.143235e+05  -1.922266e+05   9.166318e+05  -8.433474e+00  -3.133921e+01   3.150463e-21   1.177889e+06   3.520536e-39   0.000000e+00   0.000000e+00
      680000   6.799990e-06   4.957427e+00   8.060530e+00   2.501481e+01   7.143235e+05  -1.922266e+05   9.166318e+05  -3.423849e+00  -1.272319e+01   6.770139e-21   1.177889e+06   5.802669e-40   0.000000e+00   0.000000e+00
      688000   6.879990e-06   5.014573e+00   8.045152e+00   2.508815e+01   7.143235e+05  -1.922266e+05   9.166318e+05  -8.826839e+00  -3.280098e+01   6.474570e-21   1.177889e+06   3.855682e-39   0.000000e+00   0.000000e+00
      696000   6.959990e-06   5.071719e+00   8.029774e+00   2.516148e+01   7.143235e+05  -1.922266e+05   9.166318e+05  -7.915673e+00  -2.941504e+01  -5.793948e-21   1.177889e+06   3.100940e-39   0.000000e+00   0.000000e+00
      704000   7.039990e-06   5.128865e+00   8.014396e+00   2.523481e+01   7.143235e+05  -1.922266e+05   9.166318e+05  -8.753920e+00  -3.253000e+01  -7.633010e-21   1.177889e+06   3.792897e-39   0.000000e+00   0.000000e+00
      712000   7.119990e-06   5.186011e+00   7.999018e+00   2.530814e+01   7.143235e+05  -1.922266e+05   9.166318e+05  -5.106815e+00  -1.897718e+01  -3.363049e-21   1.177889e+06   1.291001e-39   0.000000e+00   0.000000e+00
      720000   7.199990e-06   5.243157e+00   7.983640e+00   2.538147e+01   7.143235e+05  -1.922266e+05   9.166318e+05  -4.789943e+00  -1.779967e+01   6.714739e-22   1.177889e+06   1.135491e-39   0.000000e+00   0.000000e+00
      728000   7.279990e-06   5.300303e+00   7.968262e+00   2.545480e+01   7.143235e+05  -1.922266e+05   9.166318e+05  -4.996821e+00  -1.856844e+01  -1.009889e-20   1.177889e+06   1.235851e-39   0.000000e+00   0.000000e+00
      736000   7.359990e-06   5.357449e+00   7.952884e+00   2.552813e+01   7.143235e+05  -1.922266e+05   9.166318e+05  -1.509391e+01  -5.608974e+01  -7.612962e-21   1.177889e+06   1.127389e-38   0.000000e+00   0.000000e+00
      744000   7.439990e-06   5.414595e+00   7.937505e+00   2.560146e+01   7.143235e+05  -1.922266e+05   9.166318e+05  -9.318014e+00  -3.462620e+01   1.503131e-21   1.177889e+06   4.296893e-39   0.000000e+00   0.000000e+00
      752000   7.519990e-06   5.471740e+00   7.922127e+00   2.567479e+01   7.143235e+05  -1.922266e+05   9.166318e+05  -1.105740e+01  -4.108984e+01   1.808476e-20   1.177889e+06   6.050856e-39   0.000000e+00   0.000000e+00
      760000   7.599990e-06   5.528886e+00   7.906749e+00   2.574812e+01   7.143235e+05  -1.922266e+05   9.166318e+05  -8.679902e+00  -3.225495e+01  -2.338470e-21   1.177889e+06   3.728070e-39   0.000000e+00   0.000000e+00
      768000   7.679990e-06   5.586032e+00   7.891371e+00   2.582145e+01   7.143235e+05  -1.922266e+05   9.166318e+05  -8.771881e+00  -3.259675e+01  -1.798262e-21   1.177889e+06   3.807874e-39   0.000000e+00   0.000000e+00
      776000   7.759990e-06   5.643178e+00   7.875993e+00   2.589478e+01   7.143235e+05  -1.922266e+05   9.166318e+05  -6.070893e+00  -2.255974e+01  -4.800425e-21   1.177889e+06   1.824411e-39   0.000000e+00   0.000000e+00
      784000   7.839990e-06   5.700324e+00   7.860615e+00   2.596811e+01   7.143235e+05  -1.922266e+05   9.166318e+05  -9.241830e+00  -3.434310e+01  -3.781664e-21   1.177889e+06   4.227411e-39   0.000000e+00   0.000000e+00
      792000   7.919990e-06   5.757470e+00   7.845237e+00   2.604144e+01   7.143235e+05  -1.922266e+05   9.166318e+05  -1.302356e+01  -4.839621e+01   1.130391e-20   1.177889e+06   8.393497e-39   0.000000e+00   0.000000e+00
      800000   7.999990e-06   5.814616e+00   7.829859e+00   2.611477e+01   7.143235e+05  -1.922266e+05   9.166318e+05  -1.151443e+01  -4.278819e+01  -7.673950e-21   1.177889e+06   6.561263e-39   0.000000e+00   0.000000e+00
      808000   8.079990e-06   5.871762e+00   7.814480e+00   2.618810e+01   7.143235e+05  -1.922266e+05   9.166318e+05  -1.420238e+01  -5.277676e+01   1.367750e-20   1.177889e+06   9.982285e-39   0.000000e+00   0.000000e+00
      816000   8.159990e-06   5.928907e+00   7.799102e+00   2.626143e+01   7.143235e+05  -1.922266e+05   9.166318e+05  -2.049479e+01  -7.615966e+01   1.762622e-20   1.177889e+06   2.078728e-38   0.000000e+00   0.000000e+00
      824000   8.239990e-06   5.986053e+00   7.783724e+00   2.633476e+01   7.143235e+05  -1.922266e+05   9.166318e+05  -9.726736e+00  -3.614504e+01   2.035698e-20   1.177889e+06   4.682862e-39   0.000000e+00   0.000000e+00
      832000   8.319990e-06   6.043199e+00   7.768346e+00   2.640810e+01   7.143235e+05  -1.922266e+05   9.166318e+05  -7.970743e+00  -2.961968e+01  -1.236365e-20   1.177889e+06   3.144646e-39   0.000000e+00   0.000000e+00
      840000   8.399990e-06   6.100345e+00   7.752968e+00   2.648143e+01   7.143235e+05  -1.922266e+05   9.166318e+05  -1.027193e+01  -3.817100e+01   1.136651e-20   1.177889e+06   5.221510e-39   0.000000e+00   0.000000e+00
      848000   8.479990e-06   6.157491e+00   7.737590e+00   2.655476e+01   7.143235e+05  -1.922266e+05   9.166318e+05  -7.477600e+00  -2.778714e+01   9.484826e-22   1.177889e+06   2.767655e-39   0.000000e+00   0.000000e+00
      856000   8.559990e-06   6.214637e+00   7.722212e+00   2.662809e+01   7.143235e+05  -1.922266e+05   9.166318e+05  -9.357663e+00  -3.477354e+01  -1.172284e-20   1.177889e+06   4.333871e-39   0.000000e+00   0.000000e+00
      864000   8.639990e-06   6.271783e+00   7.706834e+00   2.670142e+01   7.143235e+05  -1.922266e+05   9.166318e+05  -1.059384e+01  -3.936724e+01   1.320782e-20   1.177889e+06   5.553941e-39   0.000000e+00   0.000000e+00
      872000   8.719990e-06   6.328929e+00   7.691455e+00   2.677475e+01   7.143235e+05  -1.922266e+05   9.166318e+05  -1.294788e+01  -4.811499e+01  -2.426932e-20   1.177889e+06   8.296839e-39   0.000000e+00   0.000000e+00
      880000   8.799990e-06   6.386074e+00   7.676077e+00   2.684808e+01   7.143235e+05  -1.922266e+05   9.166318e+05  -8.225215e+00  -3.056531e+01  -1.110349e-20   1.177889e+06   3.348506e-39   0.000000e+00   0.000000e+00
      888000   8.879990e-06   6.443220e+00   7.660699e+00   2.692141e+01   7.143235e+05  -1.922266e+05   9.166318e+05  -9.278997e+00  -3.448122e+01   4.628989e-21   1.177889e+06   4.261331e-39   0.000000e+00   0.000000e+00
      896000   8.959990e-06   6.500366e+00   7.645321e+00   2.699474e+01   7.143235e+05  -1.922266e+05   9.166318e+05  -9.530466e+00  -3.541569e+01   6.773626e-21   1.177889e+06   4.495177e-39   0.000000e+00   0.000000e+00
      904000   9.039990e-06   6.557512e+00   7.629943e+00   2.706807e+01   7.143235e+05  -1.922266e+05   9.166318e+05  -9.796182e+00  -3.640310e+01   5.735482e-21   1.177889e+06   4.749397e-39   0.000000e+00   0.000000e+00
      912000   9.119990e-06   6.614658e+00   7.614565e+00   2.714140e+01   7.143235e+05  -1.922266e+05   9.166318e+05  -9.850365e+00  -3.660445e+01   3.909740e-21   1.177889e+06   4.802592e-39   0.000000e+00   0.000000e+00
      920000   9.199990e-06   6.671804e+00   7.599187e+00   2.721473e+01   7.143235e+05  -1.922266e+05   9.166318e+05  -6.414095e+00  -2.383510e+01   8.428003e-21   1.177889e+06   2.036290e-39   0.000000e+00   0.000000e+00
      928000   9.279990e-06   6.728950e+00   7.583809e+00   2.728806e+01   7.143235e+05  -1.922266e+05   9.166318e+05  -1.016356e+01  -3.776828e+01   3.889410e-21   1.177889e+06   5.112377e-39   0.000000e+00   0.000000e+00
      936000   9.359990e-06   6.786096e+00   7.568430e+00   2.736139e+01   7.143235e+05  -1.922266e+05   9.166318e+05  -1.025344e+01  -3.810230e+01   2.590136e-21   1.177889e+06   5.202997e-39   0.000000e+00   0.000000e+00
      944000   9.439990e-06   6.843242e+00   7.553052e+00   2.743472e+01   7.143235e+05  -1.922266e+05   9.166318e+05  -1.371329e+01  -5.095928e+01   7.216181e-21   1.177889e+06   9.306524e-39   0.000000e+00   0.000000e+00
      952000   9.519990e-06   6.900387e+00   7.537674e+00   2.750805e+01   7.143235e+05  -1.922266e+05   9.166318e+05  -1.325580e+01  -4.925922e+01   1.494341e-20   1.177889e+06   8.696479e-39   0.000000e+00   0.000000e+00
      960000   9.599990e-06   6.957533e+00   7.522296e+00   2.758138e+01   7.143235e+05  -1.922266e+05   9.166318e+05  -1.284206e+01  -4.772174e+01   9.712100e-21   1.177889e+06   8.162083e-39   0.000000e+00   0.000000e+00
      968000   9.679990e-06   7.014679e+00   7.506918e+00   2.765471e+01   7.143235e+05  -1.922266e+05   9.166318e+05  -1.077937e+01  -4.005669e+01   1.533269e-20   1.177889e+06   5.750265e-39   0.000000e+00   0.000000e+00
      976000   9.759990e-06   7.071825e+00   7.491540e+00   2.772804e+01   7.143235e+05  -1.922266e+05   9.166318e+05  -9.738009e+00  -3.618693e+01   7.941669e-21   1.177889e+06   4.693412e-39   0.000000e+00   0.000000e+00
      984000   9.839990e-06   7.128971e+00   7.476162e+00   2.780138e+01   7.143235e+05  -1.922266e+05   9.166318e+05  -1.021003e+01  -3.794097e+01   5.581888e-21   1.177889e+06   5.159074e-39   0.000000e+00   0.000000e+00
      992000   9.919990e-06   7.186117e+00   7.460784e+00   2.787471e+01   7.143235e+05  -1.922266e+05   9.166318e+05  -1.116468e+01  -4.148852e+01  -8.431194e-21   1.177889e+06   6.168954e-39   0.000000e+00   0.000000e+00
     1000000   9.999990e-06   7.243263e+00   7.445405e+00   2.794804e+01   7.143235e+05  -1.922266e+05   9.166318e+05  -1.242340e+01  -4.616598e+01  -1.266327e-21   1.177889e+06   7.638285e-39   0.000000e+00   0.000000e+00
     1008000   1.007999e-05   7.300409e+00   7.430027e+00   2.802137e+01   7.143235e+05  -1.922266e+05   9.166318e+05  -1.159091e+01  -4.307239e+01  -6.354276e-21   1.177889e+06   6.648655e-39   0.000000e+00   0.000000e+00
     1016000   1.015999e-05   7.357554e+00   7.414649e+00   2.809470e+01   7.143235e+05  -1.922266e+05   9.166318e+05  -1.471321e+01  -5.467502e+01   1.970335e-20   1.177889e+06   1.071322e-38   0.000000e+00   0.000000e+00
     1024000   1.023999e-05   7.414700e+00   7.399271e+00   2.816803e+01   7.143235e+05  -1.922266e+05   9.166318e+05  -6.904485e+00  -2.565741e+01   9.478310e-21   1.177889e+06   2.359550e-39   0.000000e+00   0.000000e+00
     1032000   1.031999e-05   7.471846e+00   7.383893e+00   2.824136e+01   7.143235e+05  -1.922266e+05   9.166318e+05  -1.522947e+01  -5.659349e+01   2.045301e-21   1.177889e+06   1.147857e-38   0.000000e+00   0.000000e+00
     1040000   1.039999e-05   7.528992e+00   7.368515e+00   2.831469e+01   7.143235e+05  -1.922266e+05   9.166318e+05  -1.235264e+01  -4.590303e+01   3.286040e-21   1.177889e+06   7.551515e-39   0.000000e+00   0.000000e+00
     1048000   1.047999e-05   7.586138e+00   7.353137e+00   2.838802e+01   7.143235e+05  -1.922266e+05   9.166318e+05  -1.389738e+01  -5.164336e+01   1.178978e-21   1.177889e+06   9.558329e-39   0.000000e+00   0.000000e+00
     1056000   1.055999e-05   7.643284e+00   7.337759e+00   2.846135e+01   7.143235e+05  -1.922266e+05   9.166318e+05  -1.103436e+01  -4.100423e+01  -2.153471e-21   1.177889e+06   6.025993e-39   0.000000e+00   0.000000e+00
     1064000   1.063999e-05   7.700430e+00   7.322380e+00   2.853468e+01   7.143235e+05  -1.922266e+05   9.166318e+05  -9.130027e+00  -3.392764e+01  -3.200167e-21   1.177889e+06   4.125010e-39   0.000000e+00   0.000000e+00
     1072000   1.071999e-05   7.757576e+00   7.307002e+00   2.860801e+01   7.143235e+05  -1.922266e+05   9.166318e+05  -9.248284e+00  -3.436708e+01  -7.214570e-21   1.177889e+06   4.233155e-39   0.000000e+00   0.000000e+00
     1080000   1.079999e-05   7.814722e+00   7.291624e+00   2.868134e+01   7.143235e+05  -1.922266e+05   9.166318e+05  -9.944259e+00  -3.695337e+01  -2.098861e-21   1.177889e+06   4.893879e-39   0.000000e+00   0.000000e+00
     1088000   1.087999e-05   7.871867e+00   7.276246e+00   2.875467e+01   7.143235e+05  -1.922266e+05   9.166318e+05  -1.627669e+01  -6.048499e+01   1.923170e-20   1.177889e+06   1.311134e-38   0.000000e+00   0.000000e+00
     1096000   1.095999e-05   7.929013e+00   7.260868e+00   2.882800e+01   7.143235e+05  -1.922266e+05   9.166318e+05  -1.291017e+01  -4.797482e+01   1.022782e-22   1.177889e+06   8.248521e-39   0.000000e+00   0.000000e+00
     1104000   1.103999e-05   7.986159e+00   7.245490e+00   2.890133e+01   7.143235e+05  -1.922266e+05   9.166318e+05  -1.269047e+01  -4.715842e+01   1.454733e-20   1.177889e+06   7.970789e-39   0.000000e+00   0.000000e+00
     1112000   1.111999e-05   8.043305e+00   7.230112e+00   2.897466e+01   7.143235e+05  -1.922266e+05   9.166318e+05  -1.335976e+01  -4.964554e+01   1.116588e-20   1.177889e+06   8.833456e-39   0.000000e+00   0.000000e+00
     1120000   1.119999e-05   8.100451e+00   7.214734e+00   2.904799e+01   7.143235e+05  -1.922266e+05   9.166318e+05  -1.339100e+01  -4.976162e+01   1.164510e-20   1.177889e+06   8.875275e-39   0.000000e+00   0.000000e+00
     1128000   1.127999e-05   8.157597e+00   7.199355e+00   2.912133e+01   7.143235e+05  -1.922266e+05   9.166318e+05  -1.365026e+01  -5.072505e+01  -4.323596e-20   1.177889e+06   9.221981e-39   0.000000e+00   0.000000e+00
     1136000   1.135999e-05   8.214743e+00   7.183977e+00   2.919466e+01   7.143235e+05  -1.922266e+05   9.166318e+05  -1.269857e+01  -4.718854e+01   8.122034e-22   1.177889e+06   7.980705e-39   0.000000e+00   0.000000e+00
     1144000   1.143999e-05   8.271889e+00   7.168599e+00   2.926799e+01   7.143235e+05  -1.922266e+05   9.166318e+05  -6.540548e+00  -2.430500e+01  -2.034391e-20   1.177889e+06   2.117313e-39   0.000000e+00   0.000000e+00
     1152000   1.151999e-05   8.329034e+00   7.153221e+00   2.934132e+01   7.143235e+05  -1.922266e+05   9.166318e+05  -1.200436e+01  -4.460880e+01   5.446310e-21   1.177889e+06   7.132064e-39   0.000000e+00   0.000000e+00
     1160000   1.159999e-05   8.386180e+00   7.137843e+00   2.941465e+01   7.143235e+05  -1.922266e+05   9.166318e+05  -1.196909e+01  -4.447772e+01   2.581058e-20   1.177889e+06   7.089815e-39   0.000000e+00   0.000000e+00
     1168000   1.167999e-05   8.443326e+00   7.122465e+00   2.948798e+01   7.143235e+05  -1.922266e+05   9.166318e+05  -1.181660e+01  -4.391106e+01   1.240417e-20   1.177889e+06   6.910526e-39   0.000000e+00   0.000000e+00
     1176000   1.175999e-05   8.500472e+00   7.107087e+00   2.956131e+01   7.143235e+05  -1.922266e+05   9.166318e+05  -1.042116e+01  -3.872556e+01   1.018669e-20   1.177889e+06   5.375058e-39   0.000000e+00   0.000000e+00
     1184000   1.183999e-05   8.557618e+00   7.091709e+00   2.963464e+01   7.143235e+05  -1.922266e+05   9.166318e+05  -8.977672e+00  -3.336148e+01  -1.100324e-20   1.177889e+06   3.988941e-39   0.000000e+00   0.000000e+00
     1192000   1.191999e-05   8.614764e+00   7.076330e+00   2.970797e+01   7.143235e+05  -1.922266e+05   9.166318e+05  -1.139692e+01  -3.706171e+01   1.109321e+00   1.177889e+06   5.029083e-39   0.000000e+00   0.000000e+00
     1200000   1.199999e-05   8.671910e+00   7.060952e+00   2.978130e+01   7.143235e+05  -1.922266e+05   9.166318e+05  -1.324231e+01  -2.141432e+01   5.828831e+00   1.177889e+06   2.232357e-39   0.000000e+00   0.000000e+00
     1208000   1.207999e-05   8.729056e+00   7.045574e+00   2.985463e+01   7.143235e+05  -1.922266e+05   9.166318e+05  -1.257427e+01  -4.150156e+01   1.095744e+00   1.177889e+06   6.288018e-39   0.000000e+00   0.000000e+00
     1216000   1.215999e-05   8.786202e+00   7.030196e+00   2.992796e+01   7.143235e+05  -1.922266e+05   9.166318e+05  -1.735979e+01  -6.552754e+01  -2.134212e-01   1.177889e+06   1.535571e-38   0.000000e+00   0.000000e+00
     1224000   1.223999e-05   8.843347e+00   7.014818e+00   3.000129e+01   7.143235e+05  -1.922266e+05   9.166318e+05  -2.126879e+01  -3.929774e+01   8.333477e+00   1.177889e+06   6.905368e-39   0.000000e+00   0.000000e+00
     1232000   1.231999e-05   8.900493e+00   6.999440e+00   3.007462e+01   7.143235e+05  -1.922266e+05   9.166318e+05  -1.282323e+01  -4.042813e+01   1.514867e+00   1.177889e+06   6.019671e-39   0.000000e+00   0.000000e+00
     1240000   1.239999e-05   8.957639e+00   6.984062e+00   3.014795e+01   7.143235e+05  -1.922266e+05   9.166318e+05  -1.567191e+01  -6.835693e+01  -2.122122e+00   1.177889e+06   1.645098e-38   0.000000e+00   0.000000e+00
     1248000   1.247999e-05   9.014785e+00   6.968684e+00   3.022128e+01   7.143235e+05  -1.922266e+05   9.166318e+05  -1.324870e+01  -4.923285e+01   9.406595e-21   1.177889e+06   8.686749e-39   0.000000e+00   0.000000e+00
     1256000   1.255999e-05   9.071931e+00   6.953305e+00   3.029461e+01   7.143235e+05  -1.922266e+05   9.166318e+05  -1.541079e+01  -5.726728e+01  -5.196733e-20   1.177889e+06   1.175338e-38   0.000000e+00   0.000000e+00
     1264000   1.263999e-05   9.129077e+00   6.937927e+00   3.036794e+01   7.143235e+05  -1.922266e+05   9.166318e+05  -1.460842e+01  -5.428562e+01  -7.886511e-22   1.177889e+06   1.056094e-38   0.000000e+00   0.000000e+00
     1272000   1.271999e-05   9.186223e+00   6.922549e+00   3.044127e+01   7.143235e+05  -1.922266e+05   9.166318e+05  -1.273022e+01  -4.730613e+01   2.638731e-20   1.177889e+06   8.020642e-39   0.000000e+00   0.000000e+00
     1280000   1.279999e-05   9.243369e+00   6.907171e+00   3.051461e+01   7.143235e+05  -1.922266e+05   9.166318e+05  -1.293952e+01  -4.808389e+01  -2.208283e-20   1.177889e+06   8.286819e-39   0.000000e+00   0.000000e+00
     1288000   1.287999e-05   9.300514e+00   6.891793e+00   3.058794e+01   7.143235e+05  -1.922266e+05   9.166318e+05  -1.209391e+01  -4.494157e+01   2.238952e-20   1.177889e+06   7.239071e-39   0.000000e+00   0.000000e+00
     1296000   1.295999e-05   9.357660e+00   6.876415e+00   3.066127e+01   7.143235e+05  -1.922266e+05   9.166318e+05  -1.068400e+01  -3.970228e+01   7.499745e-21   1.177889e+06   5.649784e-39   0.000000e+00   0.000000e+00
     1304000   1.303999e-05   9.414806e+00   6.861037e+00   3.073460e+01   7.143235e+05  -1.922266e+05   9.166318e+05  -1.357612e+01  -5.044954e+01  -2.647551e-21   1.177889e+06   9.120958e-39   0.000000e+00   0.000000e+00
     1312000   1.311999e-05   9.471952e+00   6.845659e+00   3.080793e+01   7.143235e+05  -1.922266e+05   9.166318e+05  -1.056700e+01  -3.926750e+01  -8.232174e-21   1.177889e+06   5.526411e-39   0.000000e+00   0.000000e+00
     1320000   1.319999e-05   9.529098e+00   6.830280e+00   3.088126e+01   7.143235e+05  -1.922266e+05   9.166318e+05  -1.478422e+01  -5.493889e+01   1.627318e-20   1.177889e+06   1.081737e-38   0.000000e+00   0.000000e+00
     1328000   1.327999e-05   9.586244e+00   6.814902e+00   3.095459e+01   7.143235e+05  -1.922266e+05   9.166318e+05  -1.062760e+01  -3.949268e+01   1.297586e-22   1.177889e+06   5.590232e-39   0.000000e+00   0.000000e+00
     1336000   1.335999e-05   9.643390e+00   6.799524e+00   3.102792e+01   7.143235e+05  -1.922266e+05   9.166318e+05  -1.050332e+01  -3.903085e+01   2.549897e-21   1.177889e+06   5.460354e-39   0.000000e+00   0.000000e+00
     1344000   1.343999e-05   9.700536e+00   6.784146e+00   3.110125e+01   7.143235e+05  -1.922266e+05   9.166318e+05  -1.315053e+01  -4.886803e+01  -5.596541e-21   1.177889e+06   8.559825e-39   0.000000e+00   0.000000e+00
     1352000   1.351999e-05   9.757682e+00   6.768768e+00   3.117458e+01   7.143235e+05  -1.922266e+05   9.166318e+05  -7.069735e+00  -2.627149e+01  -1.845546e-21   1.177889e+06   2.474160e-39   0.000000e+00   0.000000e+00
     1360000   1.359999e-05   9.814827e+00   6.753390e+00   3.124791e+01   7.143235e+05  -1.922266e+05   9.166318e+05  -1.212715e+01  -4.506511e+01   1.110118e-20   1.177889e+06   7.279036e-39   0.000000e+00   0.000000e+00
     1368000   1.367999e-05   9.871973e+00   6.738012e+00   3.132124e+01   7.143235e+05  -1.922266e+05   9.166318e+05  -9.732340e+00  -3.616586e+01   9.104174e-21   1.177889e+06   4.687629e-39   0.000000e+00   0.000000e+00
     1376000   1.375999e-05   9.929119e+00   6.722634e+00   3.139457e+01   7.143235e+05  -1.922266e+05   9.166318e+05  -1.378593e+01  -5.122921e+01  -8.901861e-21   1.177889e+06   9.405311e-39   0.000000e+00   0.000000e+00
     1384000   1.383999e-05   9.986265e+00   6.707255e+00   3.146790e+01   7.143235e+05  -1.922266e+05   9.166318e+05  -1.331553e+01  -4.948119e+01   6.308427e-21   1.177889e+06   8.774817e-39   0.000000e+00   0.000000e+00
     1392000   1.391999e-05   1.004341e+01   6.691877e+00   3.154123e+01   7.143235e+05  -1.922266e+05   9.166318e+05  -1.346773e+01  -5.004677e+01  -2.870763e-20   1.177889e+06   8.976839e-39   0.000000e+00   0.000000e+00
     1400000   1.399999e-05   1.010056e+01   6.676499e+00   3.161456e+01   7.143235e+05  -1.922266e+05   9.166318e+05  -1.020976e+01  -3.793999e+01   9.979470e-21   1.177889e+06   5.159446e-39   0.000000e+00   0.000000e+00
     1408000   1.407999e-05   1.015770e+01   6.661121e+00   3.168789e+01   7.143235e+05  -1.922266e+05   9.166318e+05  -6.097763e+00  -2.265959e+01   2.782355e-22   1.177889e+06   1.840528e-39   0.000000e+00   0.000000e+00
     1416000   1.415999e-05   1.021485e+01   6.645743e+00   3.176122e+01   7.143235e+05  -1.922266e+05   9.166318e+05  -9.419384e+00  -3.500290e+01   1.102526e-20   1.177889e+06   4.391275e-39   0.000000e+00   0.000000e+00
     1424000   1.423999e-05   1.027199e+01   6.630365e+00   3.183456e+01   7.143235e+05  -1.922266e+05   9.166318e+05  -1.409754e+01  -5.238718e+01   2.618163e-20   1.177889e+06   9.835338e-39   0.000000e+00   0.000000e+00
     1432000   1.431999e-05   1.032914e+01   6.614987e+00   3.190789e+01   7.143235e+05  -1.922266e+05   9.166318e+05  -1.203476e+01  -4.472176e+01  -1.193659e-20   1.177889e+06   7.167787e-39   0.000000e+00   0.000000e+00
     1440000   1.439999e-05   1.038629e+01   6.599609e+00   3.198122e+01   7.143235e+05  -1.922266e+05   9.166318e+05  -9.954909e+00  -3.699294e+01  -2.398903e-22   1.177889e+06   4.904610e-39   0.000000e+00   0.000000e+00
     1448000   1.447999e-05   1.044343e+01   6.584230e+00   3.205455e+01   7.143235e+05  -1.922266e+05   9.166318e+05  -1.051143e+01  -3.906102e+01  -1.429307e-20   1.177889e+06   5.468543e-39   0.000000e+00   0.000000e+00
     1456000   1.455999e-05   1.050058e+01   6.568852e+00   3.212788e+01   7.143235e+05  -1.922266e+05   9.166318e+05  -1.263959e+01  -4.696935e+01  -9.474315e-21   1.177889e+06   7.906024e-39   0.000000e+00   0.000000e+00
     1464000   1.463999e-05   1.055772e+01   6.553474e+00   3.220121e+01   7.143235e+05  -1.922266e+05   9.166318e+05  -1.210234e+01  -4.497289e+01   2.340292e-20   1.177889e+06   7.248922e-39   0.000000e+00   0.000000e+00
     1472000   1.471999e-05   1.061487e+01   6.538096e+00   3.227454e+01   7.143235e+05  -1.922266e+05   9.166318e+05  -1.396122e+01  -5.188061e+01  -1.110430e-22   1.177889e+06   9.646219e-39   0.000000e+00   0.000000e+00
     1480000   1.479999e-05   1.067202e+01   6.522718e+00   3.234787e+01   7.143235e+05  -1.922266e+05   9.166318e+05  -9.700074e+00  -3.604596e+01  -1.877954e-20   1.177889e+06   4.657227e-39   0.000000e+00   0.000000e+00
     1488000   1.487999e-05   1.072916e+01   6.507340e+00   3.242120e+01   7.143235e+05  -1.922266e+05   9.166318e+05  -1.116303e+01  -4.148238e+01   5.454302e-21   1.177889e+06   6.167780e-39   0.000000e+00   0.000000e+00
     1496000   1.495999e-05   1.078631e+01   6.491962e+00   3.249453e+01   7.143235e+05  -1.922266e+05   9.166318e+05  -1.545846e+01  -5.744442e+01   2.360552e-20   1.177889e+06   1.182625e-38   0.000000e+00   0.000000e+00
     1504000   1.503999e-05   1.084345e+01   6.476584e+00   3.256786e+01   7.143235e+05  -1.922266e+05   9.166318e+05  -1.144126e+01  -4.251631e+01  -1.832493e-20   1.177889e+06   6.478986e-39   0.000000e+00   0.000000e+00
     1512000   1.511999e-05   1.090060e+01   6.461205e+00   3.264119e+01   7.143235e+05  -1.922266e+05   9.166318e+05  -1.288544e+01  -4.788295e+01   1.877842e-20   1.177889e+06   8.216429e-39   0.000000e+00   0.000000e+00
     1520000   1.519999e-05   1.095775e+01   6.445827e+00   3.271452e+01   7.143235e+05  -1.922266e+05   9.166318e+05  -8.525959e+00  -3.168289e+01  -2.616053e-20   1.177889e+06   3.598013e-39   0.000000e+00   0.000000e+00
     1528000   1.527999e-05   1.101489e+01   6.430449e+00   3.278785e+01   7.143235e+05  -1.922266e+05   9.166318e+05  -1.444556e+01  -5.368043e+01  -5.843588e-20   1.177889e+06   1.032718e-38   0.000000e+00   0.000000e+00
     1536000   1.535999e-05   1.107204e+01   6.415071e+00   3.286118e+01   7.143235e+05  -1.922266e+05   9.166318e+05  -1.091353e+01  -4.055521e+01  -1.707424e-20   1.177889e+06   5.894966e-39   0.000000e+00   0.000000e+00
     1544000   1.543999e-05   1.112918e+01   6.399693e+00   3.293451e+01   7.143235e+05  -1.922266e+05   9.166318e+05  -1.424833e+01  -5.294750e+01   3.295854e-21   1.177889e+06   1.004762e-38   0.000000e+00   0.000000e+00
     1552000   1.551999e-05   1.118633e+01   6.384315e+00   3.300784e+01   7.143235e+05  -1.922266e+05   9.166318e+05  -9.779259e+00  -3.634021e+01  -9.984449e-21   1.177889e+06   4.733056e-39   0.000000e+00   0.000000e+00
     1560000   1.559999e-05   1.124347e+01   6.368937e+00   3.308117e+01   7.143235e+05  -1.922266e+05   9.166318e+05  -1.743165e+01  -6.477688e+01  -1.711209e-20   1.177889e+06   1.503743e-38   0.000000e+00   0.000000e+00
     1568000   1.567999e-05   1.130062e+01   6.353559e+00   3.315450e+01   7.143235e+05  -1.922266e+05   9.166318e+05  -1.429631e+01  -5.312580e+01   3.759911e-20   1.177889e+06   1.011552e-38   0.000000e+00   0.000000e+00
     1576000   1.575999e-05   1.135777e+01   6.338180e+00   3.322784e+01   7.143235e+05  -1.922266e+05   9.166318e+05  -8.958429e+00  -3.328997e+01  -5.180063e-21   1.177889e+06   3.972415e-39   0.000000e+00   0.000000e+00
     1584000   1.583999e-05   1.141491e+01   6.322802e+00   3.330117e+01   7.143235e+05  -1.922266e+05   9.166318e+05  -1.041682e+01  -3.870944e+01   1.712660e-20   1.177889e+06   5.370818e-39   0.000000e+00   0.000000e+00
     1592000   1.591999e-05   1.147206e+01   6.307424e+00   3.337450e+01   7.143235e+05  -1.922266e+05   9.166318e+05  -6.422105e+00  -2.386486e+01  -8.212405e-21   1.177889e+06   2.041505e-39   0.000000e+00   0.000000e+00
     1600000   1.599999e-05   1.152920e+01   6.292046e+00   3.344783e+01   7.143235e+05  -1.922266e+05   9.166318e+05  -9.993588e+00  -3.713667e+01   2.226936e-21   1.177889e+06   4.943211e-39   0.000000e+00   0.000000e+00
     1608000   1.607999e-05   1.158635e+01   6.276668e+00   3.352116e+01   7.143235e+05  -1.922266e+05   9.166318e+05  -1.122045e+01  -4.169574e+01   1.721626e-20   1.177889e+06   6.230452e-39   0.000000e+00   0.000000e+00
     1616000   1.615999e-05   1.164350e+01   6.261290e+00   3.359449e+01   7.143235e+05  -1.922266e+05   9.166318e+05  -7.895260e+00  -2.933918e+01  -1.292538e-20   1.177889e+06   3.085410e-39   0.000000e+00   0.000000e+00
     1624000   1.623999e-05   1.170064e+01   6.245912e+00   3.366782e+01   7.143235e+05  -1.922266e+05   9.166318e+05  -1.005317e+01  -3.735810e+01   1.310245e-20   1.177889e+06   5.002129e-39   0.000000e+00   0.000000e+00
     1632000   1.631999e-05   1.175779e+01   6.230534e+00   3.374115e+01   7.143235e+05  -1.922266e+05   9.166318e+05  -1.370689e+01  -5.093548e+01  -1.397165e-20   1.177889e+06   9.297539e-39   0.000000e+00   0.000000e+00
     1640000   1.639999e-05   1.181493e+01   6.215155e+00   3.381448e+01   7.143235e+05  -1.922266e+05   9.166318e+05  -1.202649e+01  -4.469105e+01   1.417943e-20   1.177889e+06   7.158746e-39   0.000000e+00   0.000000e+00
     1648000   1.647999e-05   1.187208e+01   6.199777e+00   3.388781e+01   7.143235e+05  -1.922266e+05   9.166318e+05  -8.171928e+00  -3.036729e+01   4.881914e-22   1.177889e+06   3.305470e-39   0.000000e+00   0.000000e+00
     1656000   1.655999e-05   1.192923e+01   6.184399e+00   3.396114e+01   7.143235e+05  -1.922266e+05   9.166318e+05  -1.222007e+01  -4.541038e+01  -1.758241e-20   1.177889e+06   7.389996e-39   0.000000e+00   0.000000e+00
     1664000   1.663999e-05   1.198637e+01   6.169021e+00   3.403447e+01   7.143235e+05  -1.922266e+05   9.166318e+05  -5.927224e+00  -2.202586e+01  -4.039465e-21   1.177889e+06   1.738910e-39   0.000000e+00   0.000000e+00
     1672000   1.671999e-05   1.204352e+01   6.153643e+00   3.410780e+01   7.143235e+05  -1.922266e+05   9.166318e+05  -1.601930e+01  -5.952853e+01   3.049432e-22   1.177889e+06   1.270007e-38   0.000000e+00   0.000000e+00
     1680000   1.679999e-05   1.210066e+01   6.138265e+00   3.418113e+01   7.143235e+05  -1.922266e+05   9.166318e+05  -9.413300e+00  -3.498029e+01  -1.106919e-22   1.177889e+06   4.386112e-39   0.000000e+00   0.000000e+00
     1688000   1.687999e-05   1.215781e+01   6.122887e+00   3.425446e+01   7.143235e+05  -1.922266e+05   9.166318e+05  -1.490164e+01  -5.537524e+01   2.603584e-22   1.177889e+06   1.098931e-38   0.000000e+00   0.000000e+00
     1696000   1.695999e-05   1.221495e+01   6.107509e+00   3.432779e+01   7.143235e+05  -1.922266e+05   9.166318e+05  -1.082733e+01  -4.023491e+01  -2.662903e-21   1.177889e+06   5.801114e-39   0.000000e+00   0.000000e+00
     1704000   1.703999e-05   1.227210e+01   6.092130e+00   3.440112e+01   7.143235e+05  -1.922266e+05   9.166318e+05  -1.289481e+01  -4.791775e+01  -3.600064e-20   1.177889e+06   8.229178e-39   0.000000e+00   0.000000e+00
     1712000   1.711999e-05   1.232925e+01   6.076752e+00   3.447445e+01   7.143235e+05  -1.922266e+05   9.166318e+05  -1.553631e+01  -5.773372e+01   7.013585e-21   1.177889e+06   1.194548e-38   0.000000e+00   0.000000e+00
     1720000   1.719999e-05   1.238639e+01   6.061374e+00   3.454779e+01   7.143235e+05  -1.922266e+05   9.166318e+05  -9.889395e+00  -3.674949e+01   1.515021e-20   1.177889e+06   4.840701e-39   0.000000e+00   0.000000e+00
     1728000   1.727999e-05   1.244354e+01   6.045996e+00   3.462112e+01   7.143235e+05  -1.922266e+05   9.166318e+05  -9.027465e+00  -3.354651e+01   1.099890e-20   1.177889e+06   4.033900e-39   0.000000e+00   0.000000e+00
     1736000   1.735999e-05   1.250068e+01   6.030618e+00   3.469445e+01   7.143235e+05  -1.922266e+05   9.166318e+05  -1.344708e+01  -4.997004e+01  -8.953465e-22   1.177889e+06   8.948518e-39   0.000000e+00   0.000000e+00
     1744000   1.743999e-05   1.255783e+01   6.015240e+00   3.476778e+01   7.143235e+05  -1.922266e+05   9.166318e+05  -9.341459e+00  -3.471333e+01  -2.290485e-20   1.177889e+06   4.319178e-39   0.000000e+00   0.000000e+00
     1752000   1.751999e-05   1.261498e+01   5.999862e+00   3.484111e+01   7.143235e+05  -1.922266e+05   9.166318e+05  -1.396000e+01  -5.187607e+01   2.042940e-20   1.177889e+06   9.644239e-39   0.000000e+00   0.000000e+00
     1760000   1.759999e-05   1.267212e+01   5.984484e+00   3.491444e+01   7.143235e+05  -1.922266e+05   9.166318e+05  -9.081936e+00  -3.374893e+01   1.173960e-20   1.177889e+06   4.082638e-39   0.000000e+00   0.000000e+00
     1768000   1.767999e-05   1.272927e+01   5.969105e+00   3.498777e+01   7.143235e+05  -1.922266e+05   9.166318e+05  -1.234238e+01  -4.586490e+01  -8.459936e-21   1.177889e+06   7.538961e-39   0.000000e+00   0.000000e+00
     1776000   1.775999e-05   1.278641e+01   5.953727e+00   3.506110e+01   7.143235e+05  -1.922266e+05   9.166318e+05  -1.308143e+01  -4.861124e+01   5.027239e-21   1.177889e+06   8.468894e-39   0.000000e+00   0.000000e+00
     1784000   1.783999e-05   1.284356e+01   5.938349e+00   3.513443e+01   7.143235e+05  -1.922266e+05   9.166318e+05  -1.204498e+01  -4.475973e+01  -1.188373e-20   1.177889e+06   7.180225e-39   0.000000e+00   0.000000e+00
     1792000   1.791999e-05   1.290071e+01   5.922971e+00   3.520776e+01   7.143235e+05  -1.922266e+05   9.166318e+05  -1.228546e+01  -4.565338e+01  -1.191331e-20   1.177889e+06   7.470017e-39   0.000000e+00   0.000000e+00
     1800000   1.799999e-05   1.295785e+01   5.907593e+00   3.528109e+01   7.143235e+05  -1.922266e+05   9.166318e+05  -1.106917e+01  -4.113360e+01   7.462941e-21   1.177889e+06   6.064157e-39   0.000000e+00   0.000000e+00
     1808000   1.807999e-05   1.301500e+01   5.892215e+00   3.535442e+01   7.143235e+05  -1.922266e+05   9.166318e+05  -1.021957e+01  -3.797643e+01   2.906648e-21   1.177889e+06   5.169361e-39   0.000000e+00   0.000000e+00
     1816000   1.815999e-05   1.307214e+01   5.876837e+00   3.542775e+01   7.143235e+05  -1.922266e+05   9.166318e+05  -1.096444e+01  -4.074439e+01   1.231738e-20   1.177889e+06   5.949589e-39   0.000000e+00   0.000000e+00
     1824000   1.823999e-05   1.312929e+01   5.861459e+00   3.550108e+01   7.143235e+05  -1.922266e+05   9.166318e+05  -6.898283e+00  -2.563437e+01   3.496733e-21   1.177889e+06   2.355069e-39   0.000000e+00   0.000000e+00
     1832000   1.831999e-05   1.318643e+01   5.846080e+00   3.557441e+01   7.143235e+05  -1.922266e+05   9.166318e+05  -7.313992e+00  -2.717916e+01   4.436699e-21   1.177889e+06   2.647470e-39   0.000000e+00   0.000000e+00
     1840000   1.839999e-05   1.324358e+01   5.830702e+00   3.564774e+01   7.143235e+05  -1.922266e+05   9.166318e+05  -8.112659e+00  -3.014705e+01   2.953827e-21   1.177889e+06   3.257359e-39   0.000000e+00   0.000000e+00
     1848000   1.847999e-05   1.330073e+01   5.815324e+00   3.572107e+01   7.143235e+05  -1.922266e+05   9.166318e+05  -8.476828e+00  -3.150032e+01   3.375982e-21   1.177889e+06   3.556344e-39   0.000000e+00   0.000000e+00
     1856000   1.855999e-05   1.335787e+01   5.799946e+00   3.579440e+01   7.143235e+05  -1.922266e+05   9.166318e+05  -4.706558e+00  -1.748980e+01   1.589007e-21   1.177889e+06   1.096462e-39   0.000000e+00   0.000000e+00
     1864000   1.863999e-05   1.341502e+01   5.784568e+00   3.586773e+01   7.143235e+05  -1.922266e+05   9.166318e+05  -1.069170e+01  -3.973089e+01  -1.486728e-21   1.177889e+06   5.657638e-39   0.000000e+00   0.000000e+00
     1872000   1.871999e-05   1.347216e+01   5.769190e+00   3.594107e+01   7.143235e+05  -1.922266e+05   9.166318e+05  -1.013698e+01  -3.766951e+01  -3.271173e-20   1.177889e+06   5.085757e-39   0.000000e+00   0.000000e+00
     1880000   1.879999e-05   1.352931e+01   5.753812e+00   3.601440e+01   7.143235e+05  -1.922266e+05   9.166318e+05  -9.781701e+00  -3.634929e+01   9.830643e-21   1.177889e+06   4.735110e-39   0.000000e+00   0.000000e+00
     1888000   1.887999e-05   1.358646e+01   5.738434e+00   3.608773e+01   7.143235e+05  -1.922266e+05   9.166318e+05  -1.219961e+01  -4.533435e+01  -1.380866e-20   1.177889e+06   7.365432e-39   0.000000e+00   0.000000e+00
     1896000   1.895999e-05   1.364360e+01   5.723055e+00   3.616106e+01   7.143235e+05  -1.922266e+05   9.166318e+05  -1.223920e+01  -4.548149e+01   3.348040e-20   1.177889e+06   7.413224e-39   0.000000e+00   0.000000e+00
     1904000   1.903999e-05   1.370075e+01   5.707677e+00   3.623439e+01   7.143235e+05  -1.922266e+05   9.166318e+05  -7.919329e+00  -2.942862e+01   1.112950e-20   1.177889e+06   3.103159e-39   0.000000e+00   0.000000e+00
     1912000   1.911999e-05   1.375789e+01   5.692299e+00   3.630772e+01   7.143235e+05  -1.922266e+05   9.166318e+05  -1.006661e+01  -3.740804e+01  -7.734238e-21   1.177889e+06   5.015316e-39   0.000000e+00   0.000000e+00
     1920000   1.919999e-05   1.381504e+01   5.676921e+00   3.638105e+01   7.143235e+05  -1.922266e+05   9.166318e+05  -8.647091e+00  -3.213302e+01   6.042106e-22   1.177889e+06   3.700618e-39   0.000000e+00   0.000000e+00
     1928000   1.927999e-05   1.387219e+01   5.661543e+00   3.645438e+01   7.143235e+05  -1.922266e+05   9.166318e+05  -1.506632e+01  -5.598719e+01   2.798585e-20   1.177889e+06   1.123344e-38   0.000000e+00   0.000000e+00
     1936000   1.935999e-05   1.392933e+01   5.646165e+00   3.652771e+01   7.143235e+05  -1.922266e+05   9.166318e+05  -8.568835e+00  -3.184222e+01  -8.855663e-21   1.177889e+06   3.634034e-39   0.000000e+00   0.000000e+00
     1944000   1.943999e-05   1.398648e+01   5.630787e+00   3.660104e+01   7.143235e+05  -1.922266e+05   9.166318e+05  -3.031741e+00  -1.126610e+01   3.240913e-21   1.177889e+06   4.550262e-40   0.000000e+00   0.000000e+00
     1952000   1.951999e-05   1.404362e+01   5.615409e+00   3.667437e+01   7.143235e+05  -1.922266e+05   9.166318e+05  -7.897831e+00  -2.934873e+01  -5.353426e-21   1.177889e+06   3.086773e-39   0.000000e+00   0.000000e+00
     1960000   1.959999e-05   1.410077e+01   5.600030e+00   3.674770e+01   7.143235e+05  -1.922266e+05   9.166318e+05  -6.735434e+00  -2.502921e+01  -2.720282e-21   1.177889e+06   2.245290e-39   0.000000e+00   0.000000e+00
     1968000   1.967999e-05   1.415791e+01   5.584652e+00   3.682103e+01   7.143235e+05  -1.922266e+05   9.166318e+05  -4.518926e+00  -1.679256e+01   2.408782e-21   1.177889e+06   1.010754e-39   0.000000e+00   0.000000e+00
     1976000   1.975999e-05   1.421506e+01   5.569274e+00   3.689436e+01   7.143235e+05  -1.922266e+05   9.166318e+05  -1.161511e+01  -4.316233e+01   3.639651e-20   1.177889e+06   6.676000e-39   0.000000e+00   0.000000e+00
     1984000   1.983999e-05   1.427221e+01   5.553896e+00   3.696769e+01   7.143235e+05  -1.922266e+05   9.166318e+05  -7.473266e+00  -2.777103e+01   1.133307e-21   1.177889e+06   2.764260e-39   0.000000e+00   0.000000e+00
     1992000   1.991999e-05   1.432935e+01   5.538518e+00   3.704102e+01   7.143235e+05  -1.922266e+05   9.166318e+05  -8.798758e+00  -3.269663e+01   2.114493e-21   1.177889e+06   3.831702e-39   0.000000e+00   0.000000e+00
     2000000   1.999999e-05   1.438650e+01   5.523140e+00   3.711435e+01   7.143235e+05  -1.922266e+05   9.166318e+05  -9.137121e+00  -3.395400e+01   2.614808e-22   1.177889e+06   4.132013e-39   0.000000e+00   0.000000e+00
     2008000   2.007999e-05   1.444364e+01   5.507762e+00   3.718768e+01   7.143235e+05  -1.922266e+05   9.166318e+05  -1.647010e+00  -6.120373e+00   1.984856e-22   1.177889e+06   1.343852e-40   0.000000e+00   0.000000e+00
     2016000   2.015999e-05   1.450079e+01   5.492384e+00   3.726102e+01   7.143235e+05  -1.922266e+05   9.166318e+05  -3.573157e+00  -1.327803e+01  -3.331398e-21   1.177889e+06   6.319955e-40   0.000000e+00   0.000000e+00
     2024000   2.023999e-05   1.455794e+01   5.477005e+00   3.733435e+01   7.143235e+05  -1.922266e+05   9.166318e+05  -7.227040e-01  -2.685604e+00  -4.176909e-22   1.177889e+06   2.586666e-41   0.000000e+00   0.000000e+00
     2032000   2.031999e-05   1.461508e+01   5.461627e+00   3.740768e+01   7.143235e+05  -1.922266e+05   9.166318e+05  -4.349889e+00  -1.616440e+01  -9.629942e-22   1.177889e+06   9.365318e-40   0.000000e+00   0.000000e+00
     2040000   2.039999e-05   1.467223e+01   5.446249e+00   3.748101e+01   7.143235e+05  -1.922266e+05   9.166318e+05  -2.823029e+00  -1.049052e+01  -5.020756e-21   1.177889e+06   3.944733e-40   0.000000e+00   0.000000e+00
     2048000   2.047999e-05   1.472937e+01   5.430871e+00   3.755434e+01   7.143235e+05  -1.922266e+05   9.166318e+05  -7.718342e+00  -2.868174e+01  -9.845997e-21   1.177889e+06   2.948302e-39   0.000000e+00   0.000000e+00
     2056000   2.055999e-05   1.478652e+01   5.415493e+00   3.762767e+01   7.143235e+05  -1.922266e+05   9.166318e+05  -1.076237e+01  -3.999350e+01   9.109502e-21   1.177889e+06   5.732022e-39   0.000000e+00   0.000000e+00
     2064000   2.063999e-05   1.484367e+01   5.400115e+00   3.770100e+01   7.143235e+05  -1.922266e+05   9.166318e+05  -8.827311e+00  -3.280273e+01  -1.271507e-20   1.177889e+06   3.856549e-39   0.000000e+00   0.000000e+00
     2072000   2.071999e-05   1.490081e+01   5.384737e+00   3.777433e+01   7.143235e+05  -1.922266e+05   9.166318e+05  -6.773821e+00  -2.517186e+01  -1.563983e-22   1.177889e+06   2.270852e-39   0.000000e+00   0.000000e+00
     2080000   2.079999e-05   1.495796e+01   5.369359e+00   3.784766e+01   7.143235e+05  -1.922266e+05   9.166318e+05  -8.026910e+00  -2.982840e+01   2.460728e-21   1.177889e+06   3.188632e-39   0.000000e+00   0.000000e+00
     2088000   2.087999e-05   1.501510e+01   5.353980e+00   3.792099e+01   7.143235e+05  -1.922266e+05   9.166318e+05  -5.228999e+00  -1.943122e+01  -1.189600e-21   1.177889e+06   1.353215e-39   0.000000e+00   0.000000e+00
     2096000   2.095999e-05   1.507225e+01   5.338602e+00   3.799432e+01   7.143235e+05  -1.922266e+05   9.166318e+05  -5.162642e+00  -1.918464e+01  -7.741039e-22   1.177889e+06   1.319087e-39   0.000000e+00   0.000000e+00
     2104000   2.103999e-05   1.512939e+01   5.323224e+00   3.806765e+01   7.143235e+05  -1.922266e+05   9.166318e+05  -1.628857e+00  -6.052913e+00  -1.248003e-21   1.177889e+06   1.314124e-40   0.000000e+00   0.000000e+00
     2112000   2.111999e-05   1.518654e+01   5.307846e+00   3.814098e+01   7.143235e+05  -1.922266e+05   9.166318e+05  -3.435313e+00  -1.276579e+01   6.183015e-21   1.177889e+06   5.840236e-40   0.000000e+00   0.000000e+00
     2120000   2.119999e-05   1.524369e+01   5.292468e+00   3.821431e+01   7.143235e+05  -1.922266e+05   9.166318e+05  -2.888812e+00  -1.073497e+01  -1.320253e-21   1.177889e+06   4.127468e-40   0.000000e+00   0.000000e+00
     2128000   2.127999e-05   1.530083e+01   5.277090e+00   3.828764e+01   7.143235e+05  -1.922266e+05   9.166318e+05  -1.658979e+00  -6.164849e+00   1.605437e-21   1.177889e+06   1.364188e-40   0.000000e+00   0.000000e+00
     2136000   2.135999e-05   1.535798e+01   5.261712e+00   3.836097e+01   7.143235e+05  -1.922266e+05   9.166318e+05  -6.700926e+00  -2.490098e+01  -6.418279e-21   1.177889e+06   2.221895e-39   0.000000e+00   0.000000e+00
     2144000   2.143999e-05   1.541512e+01   5.246334e+00   3.843430e+01   7.143235e+05  -1.922266e+05   9.166318e+05  -1.718261e+00  -6.385142e+00  -9.132917e-22   1.177889e+06   1.460172e-40   0.000000e+00   0.000000e+00
     2152000   2.151999e-05   1.547227e+01   5.230955e+00   3.850763e+01   7.143235e+05  -1.922266e+05   9.166318e+05  -2.930987e+00  -1.089169e+01  -2.216877e-21   1.177889e+06   4.251288e-40   0.000000e+00   0.000000e+00
     2160000   2.159999e-05   1.552942e+01   5.215577e+00   3.858097e+01   7.143235e+05  -1.922266e+05   9.166318e+05  -8.339102e+00  -3.098852e+01  -5.468884e-21   1.177889e+06   3.441321e-39   0.000000e+00   0.000000e+00
     2168000   2.167999e-05   1.558656e+01   5.200199e+00   3.865430e+01   7.143235e+05  -1.922266e+05   9.166318e+05   3.477738e+00   1.292345e+01   9.588020e-21   1.177889e+06   5.981379e-40   0.000000e+00   0.000000e+00
     2176000   2.175999e-05   1.564371e+01   5.184821e+00   3.872763e+01   7.143235e+05  -1.922266e+05   9.166318e+05  -1.752564e+00  -6.512616e+00   2.938702e-21   1.177889e+06   1.519798e-40   0.000000e+00   0.000000e+00
     2184000   2.183999e-05   1.570085e+01   5.169443e+00   3.880096e+01   7.143235e+05  -1.922266e+05   9.166318e+05  -4.117695e+00  -1.530156e+01  -9.172175e-22   1.177889e+06   8.389978e-40   0.000000e+00   0.000000e+00
     2192000   2.191999e-05   1.575800e+01   5.154065e+00   3.887429e+01   7.143235e+05  -1.922266e+05   9.166318e+05  -6.984203e+00  -2.595365e+01  -1.594230e-21   1.177889e+06   2.413889e-39   0.000000e+00   0.000000e+00
     2200000   2.199999e-05   1.581515e+01   5.138687e+00   3.894762e+01   7.143235e+05  -1.922266e+05   9.166318e+05  -8.206639e+00  -3.049628e+01  -4.877502e-21   1.177889e+06   3.332815e-39   0.000000e+00   0.000000e+00
     2208000   2.207999e-05   1.587229e+01   5.123309e+00   3.902095e+01   7.143235e+05  -1.922266e+05   9.166318e+05  -1.568622e+00  -5.829079e+00   3.954247e-21   1.177889e+06   1.219296e-40   0.000000e+00   0.000000e+00
     2216000   2.215999e-05   1.592944e+01   5.107930e+00   3.909428e+01   7.143235e+05  -1.922266e+05   9.166318e+05   6.533109e-03   2.427736e-02  -1.173083e-24   1.177889e+06   1.995334e-45   0.000000e+00   0.000000e+00
     2224000   2.223999e-05   1.598658e+01   5.092552e+00   3.916761e+01   7.143235e+05  -1.922266e+05   9.166318e+05  -4.689298e-01  -1.742567e+00   5.261171e-22   1.177889e+06   1.088350e-41   0.000000e+00   0.000000e+00
     2232000   2.231999e-05   1.604373e+01   5.077174e+00   3.924094e+01   7.143235e+05  -1.922266e+05   9.166318e+05   1.330178e+00   4.943008e+00  -1.578141e-21   1.177889e+06   8.752654e-41   0.000000e+00   0.000000e+00
     2240000   2.239999e-05   1.610087e+01   5.061796e+00   3.931427e+01   7.143235e+05  -1.922266e+05   9.166318e+05  -2.034558e+00  -7.560520e+00   6.195546e-21   1.177889e+06   2.049761e-40   0.000000e+00   0.000000e+00
     2248000   2.247999e-05   1.615802e+01   5.046418e+00   3.938760e+01   7.143235e+05  -1.922266e+05   9.166318e+05   2.366803e+00   8.795159e+00  -4.093531e-21   1.177889e+06   2.771089e-40   0.000000e+00   0.000000e+00
     2256000   2.255999e-05   1.621517e+01   5.031040e+00   3.946093e+01   7.143235e+05  -1.922266e+05   9.166318e+05   3.924102e-01   1.458216e+00  -1.037719e-21   1.177889e+06   7.607323e-42   0.000000e+00   0.000000e+00
     2264000   2.263999e-05   1.627231e+01   5.015662e+00   3.953426e+01   7.143235e+05  -1.922266e+05   9.166318e+05  -1.540444e+00  -5.724367e+00   4.724363e-22   1.177889e+06   1.173582e-40   0.000000e+00   0.000000e+00
     2272000   2.271999e-05   1.632946e+01   5.000284e+00   3.960759e+01   7.143235e+05  -1.922266e+05   9.166318e+05  -6.881876e-01  -2.557340e+00   2.450506e-21   1.177889e+06   2.342704e-41   0.000000e+00   0.000000e+00
     2280000   2.279999e-05   1.638660e+01   4.984905e+00   3.968092e+01   7.143235e+05  -1.922266e+05   9.166318e+05  -4.451187e-01  -1.654083e+00  -2.166553e-22   1.177889e+06   9.808821e-42   0.000000e+00   0.000000e+00
     2288000   2.287999e-05   1.644375e+01   4.969527e+00   3.975425e+01   7.143235e+05  -1.922266e+05   9.166318e+05  -3.653745e-01  -1.357750e+00  -6.418735e-24   1.177889e+06   6.613964e-42   0.000000e+00   0.000000e+00
     2296000   2.295999e-05   1.650090e+01   4.954149e+00   3.982758e+01   7.143235e+05  -1.922266e+05   9.166318e+05  -8.822711e-01  -3.278563e+00   9.171254e-22   1.177889e+06   3.849798e-41   0.000000e+00   0.000000e+00
     2304000   2.303999e-05   1.655804e+01   4.938771e+00   3.990091e+01   7.143235e+05  -1.922266e+05   9.166318e+05  -1.903526e+00  -7.073597e+00   8.855574e-22   1.177889e+06   1.793781e-40   0.000000e+00   0.000000e+00
     2312000   2.311999e-05   1.661519e+01   4.923393e+00   3.997425e+01   7.143235e+05  -1.922266e+05   9.166318e+05   1.897051e+00   7.049535e+00   2.873840e-21   1.177889e+06   1.780121e-40   0.000000e+00   0.000000e+00
     2320000   2.319999e-05   1.667233e+01   4.908015e+00   4.004758e+01   7.143235e+05  -1.922266e+05   9.166318e+05  -3.210834e-01  -1.193162e+00  -3.608227e-22   1.177889e+06   5.095724e-42   0.000000e+00   0.000000e+00
     2328000   2.327999e-05   1.672948e+01   4.892637e+00   4.012091e+01   7.143235e+05  -1.922266e+05   9.166318e+05   5.625370e+00   2.090416e+01   2.048385e-22   1.177889e+06   1.565746e-39   0.000000e+00   0.000000e+00
     2336000   2.335999e-05   1.678663e+01   4.877259e+00   4.019424e+01   7.143235e+05  -1.922266e+05   9.166318e+05   1.126567e+01   4.186381e+01  -2.228914e-20   1.177889e+06   6.280412e-39   0.000000e+00   0.000000e+00
     2344000   2.343999e-05   1.684377e+01   4.861880e+00   4.026757e+01   7.143235e+05  -1.922266e+05   9.166318e+05   3.267580e+00   1.214249e+01   1.659425e-21   1.177889e+06   5.283715e-40   0.000000e+00   0.000000e+00
     2352000   2.351999e-05   1.690092e+01   4.846502e+00   4.034090e+01   7.143235e+05  -1.922266e+05   9.166318e+05  -2.421773e-01  -8.999429e-01  -3.775596e-22   1.177889e+06   2.909930e-42   0.000000e+00   0.000000e+00
     2360000   2.359999e-05   1.695806e+01   4.831124e+00   4.041423e+01   7.143235e+05  -1.922266e+05   9.166318e+05  -2.460019e-01  -9.141552e-01  -1.693648e-22   1.177889e+06   2.996507e-42   0.000000e+00   0.000000e+00
     2368000   2.367999e-05   1.701521e+01   4.815746e+00   4.048756e+01   7.143235e+05  -1.922266e+05   9.166318e+05   2.721395e+00   1.011284e+01  -5.284481e-22   1.177889e+06   3.664915e-40   0.000000e+00   0.000000e+00
     2376000   2.375999e-05   1.707235e+01   4.800368e+00   4.056089e+01   7.143235e+05  -1.922266e+05   9.166318e+05   2.200343e+00   8.176586e+00  -3.597873e-21   1.177889e+06   2.396108e-40   0.000000e+00   0.000000e+00
     2384000   2.383999e-05   1.712950e+01   4.784990e+00   4.063422e+01   7.143235e+05  -1.922266e+05   9.166318e+05   3.935764e+00   1.462550e+01   2.413234e-21   1.177889e+06   7.665686e-40   0.000000e+00   0.000000e+00
     2392000   2.391999e-05   1.718665e+01   4.769612e+00   4.070755e+01   7.143235e+05  -1.922266e+05   9.166318e+05   7.256263e+00   2.696464e+01   5.692370e-21   1.177889e+06   2.605566e-39   0.000000e+00   0.000000e+00
     2400000   2.399999e-05   1.724379e+01   4.754234e+00   4.078088e+01   7.143235e+05  -1.922266e+05   9.166318e+05  -5.603759e-01  -2.082385e+00   3.828282e-22   1.177889e+06   1.550402e-41   0.000000e+00   0.000000e+00
     2408000   2.407999e-05   1.730094e+01   4.738855e+00   4.085421e+01   7.143235e+05  -1.922266e+05   9.166318e+05   3.766382e-01   1.399606e+00   2.817583e-22   1.177889e+06   7.035820e-42   0.000000e+00   0.000000e+00
     2416000   2.415999e-05   1.735808e+01   4.723477e+00   4.092754e+01   7.143235e+05  -1.922266e+05   9.166318e+05   3.850780e+00   1.430969e+01   7.053790e-21   1.177889e+06   7.335594e-40   0.000000e+00   0.000000e+00
     2424000   2.423999e-05   1.741523e+01   4.708099e+00   4.100087e+01   7.143235e+05  -1.922266e+05   9.166318e+05   3.220884e+00   1.196897e+01  -2.734863e-22   1.177889e+06   5.132788e-40   0.000000e+00   0.000000e+00
     2432000   2.431999e-05   1.747238e+01   4.692721e+00   4.107420e+01   7.143235e+05  -1.922266e+05   9.166318e+05   5.740752e-01   2.133292e+00   1.038091e-21   1.177889e+06   1.631848e-41   0.000000e+00   0.000000e+00
     2440000   2.439999e-05   1.752952e+01   4.677343e+00   4.114753e+01   7.143235e+05  -1.922266e+05   9.166318e+05  -2.704149e+00  -1.004875e+01   5.824372e-21   1.177889e+06   3.617343e-40   0.000000e+00   0.000000e+00
     2448000   2.447999e-05   1.758667e+01   4.661965e+00   4.122086e+01   7.143235e+05  -1.922266e+05   9.166318e+05   6.322217e+00   2.349368e+01  -1.518940e-21   1.177889e+06   1.977994e-39   0.000000e+00   0.000000e+00
     2456000   2.455999e-05   1.764381e+01   4.646587e+00   4.129420e+01   7.143235e+05  -1.922266e+05   9.166318e+05  -8.003839e-01  -2.974267e+00  -4.577193e-22   1.177889e+06   3.167614e-41   0.000000e+00   0.000000e+00
     2464000   2.463999e-05   1.770096e+01   4.631209e+00   4.136753e+01   7.143235e+05  -1.922266e+05   9.166318e+05   3.552143e+00   1.319994e+01   8.549701e-21   1.177889e+06   6.246957e-40   0.000000e+00   0.000000e+00
     2472000   2.471999e-05   1.775811e+01   4.615830e+00   4.144086e+01   7.143235e+05  -1.922266e+05   9.166318e+05   5.955401e+00   2.213057e+01   7.863575e-21   1.177889e+06   1.755129e-39   0.000000e+00   0.000000e+00
     2480000   2.479999e-05   1.781525e+01   4.600452e+00   4.151419e+01   7.143235e+05  -1.922266e+05   9.166318e+05   2.900423e+00   1.077812e+01  -1.162067e-20   1.177889e+06   4.161571e-40   0.000000e+00   0.000000e+00
     2488000   2.487999e-05   1.787240e+01   4.585074e+00   4.158752e+01   7.143235e+05  -1.922266e+05   9.166318e+05  -1.623995e+00  -6.034845e+00   5.448747e-21   1.177889e+06   1.304832e-40   0.000000e+00   0.000000e+00
     2496000   2.495999e-05   1.792954e+01   4.569696e+00   4.166085e+01   7.143235e+05  -1.922266e+05   9.166318e+05   3.000424e+00   1.114973e+01  -4.453541e-21   1.177889e+06   4.454811e-40   0.000000e+00   0.000000e+00
     2504000   2.503999e-05   1.798669e+01   4.554318e+00   4.173418e+01   7.143235e+05  -1.922266e+05   9.166318e+05   1.045999e+01   3.886985e+01  -3.941428e-21   1.177889e+06   5.414619e-39   0.000000e+00   0.000000e+00
     2512000   2.511999e-05   1.804383e+01   4.538940e+00   4.180751e+01   7.143235e+05  -1.922266e+05   9.166318e+05   5.323359e+00   1.978187e+01  -1.024765e-20   1.177889e+06   1.402263e-39   0.000000e+00   0.000000e+00
     2520000   2.519999e-05   1.810098e+01   4.523562e+00   4.188084e+01   7.143235e+05  -1.922266e+05   9.166318e+05   7.562611e+00   2.810304e+01  -1.315770e-20   1.177889e+06   2.830245e-39   0.000000e+00   0.000000e+00
     2528000   2.527999e-05   1.815813e+01   4.508184e+00   4.195417e+01   7.143235e+05  -1.922266e+05   9.166318e+05   5.698617e+00   2.117635e+01   4.313634e-21   1.177889e+06   1.607352e-39   0.000000e+00   0.000000e+00
     2536000   2.535999e-05   1.821527e+01   4.492805e+00   4.202750e+01   7.143235e+05  -1.922266e+05   9.166318e+05   8.129337e+00   3.020902e+01  -2.196653e-21   1.177889e+06   3.270389e-39   0.000000e+00   0.000000e+00
     2544000   2.543999e-05   1.827242e+01   4.477427e+00   4.210083e+01   7.143235e+05  -1.922266e+05   9.166318e+05   7.238736e+00   2.689951e+01   4.016716e-21   1.177889e+06   2.593379e-39   0.000000e+00   0.000000e+00
     2552000   2.551999e-05   1.832956e+01   4.462049e+00   4.217416e+01   7.143235e+05  -1.922266e+05   9.166318e+05   9.725706e+00   3.614121e+01  -2.331887e-20   1.177889e+06   4.680687e-39   0.000000e+00   0.000000e+00
     2560000   2.559999e-05   1.838671e+01   4.446671e+00   4.224749e+01   7.143235e+05  -1.922266e+05   9.166318e+05   7.151286e+00   2.657454e+01  -3.115167e-21   1.177889e+06   2.531161e-39   0.000000e+00   0.000000e+00
     2568000   2.567999e-05   1.844386e+01   4.431293e+00   4.232082e+01   7.143235e+05  -1.922266e+05   9.166318e+05   5.857054e+00   2.176511e+01   7.439946e-22   1.177889e+06   1.698273e-39   0.000000e+00   0.000000e+00
     2576000   2.575999e-05   1.850100e+01   4.415915e+00   4.239415e+01   7.143235e+05  -1.922266e+05   9.166318e+05   9.834312e+00   3.654479e+01  -5.957848e-21   1.177889e+06   4.785954e-39   0.000000e+00   0.000000e+00
     2584000   2.583999e-05   1.855815e+01   4.400537e+00   4.246748e+01   7.143235e+05  -1.922266e+05   9.166318e+05   4.731994e+00   1.758433e+01   4.642659e-21   1.177889e+06   1.108495e-39   0.000000e+00   0.000000e+00
     2592000   2.591999e-05   1.861529e+01   4.385159e+00   4.254081e+01   7.143235e+05  -1.922266e+05   9.166318e+05   6.840368e+00   2.541915e+01  -6.838261e-21   1.177889e+06   2.315669e-39   0.000000e+00   0.000000e+00
     2600000   2.599999e-05   1.867244e+01   4.369780e+00   4.261414e+01   7.143235e+05  -1.922266e+05   9.166318e+05   6.892804e+00   2.561400e+01   7.123541e-21   1.177889e+06   2.351437e-39   0.000000e+00   0.000000e+00
     2608000   2.607999e-05   1.872959e+01   4.354402e+00   4.268748e+01   7.143235e+05  -1.922266e+05   9.166318e+05   7.478282e+00   2.778967e+01  -5.648486e-21   1.177889e+06   2.767517e-39   0.000000e+00   0.000000e+00
     2616000   2.615999e-05   1.878673e+01   4.339024e+00   4.276081e+01   7.143235e+05  -1.922266e+05   9.166318e+05   1.004131e+01   3.731401e+01   1.327897e-20   1.177889e+06   4.989790e-39   0.000000e+00   0.000000e+00
     2624000   2.623999e-05   1.884388e+01   4.323646e+00   4.283414e+01   7.143235e+05  -1.922266e+05   9.166318e+05   7.862308e+00   2.921673e+01  -3.834595e-22   1.177889e+06   3.059740e-39   0.000000e+00   0.000000e+00
     2632000   2.631999e-05   1.890102e+01   4.308268e+00   4.290747e+01   7.143235e+05  -1.922266e+05   9.166318e+05   1.182280e+01   4.393410e+01   5.506388e-21   1.177889e+06   6.918741e-39   0.000000e+00   0.000000e+00
     2640000   2.639999e-05   1.895817e+01   4.292890e+00   4.298080e+01   7.143235e+05  -1.922266e+05   9.166318e+05   9.152753e+00   3.401209e+01  -2.096758e-21   1.177889e+06   4.146453e-39   0.000000e+00   0.000000e+00
     2648000   2.647999e-05   1.901531e+01   4.277512e+00   4.305413e+01   7.143235e+05  -1.922266e+05   9.166318e+05   2.818706e+00   1.047445e+01   7.689564e-21   1.177889e+06   3.934402e-40   0.000000e+00   0.000000e+00
     2656000   2.655999e-05   1.907246e+01   4.262134e+00   4.312746e+01   7.143235e+05  -1.922266e+05   9.166318e+05   9.594162e+00   3.565239e+01  -9.997983e-22   1.177889e+06   4.554982e-39   0.000000e+00   0.000000e+00
     2664000   2.663999e-05   1.912961e+01   4.246755e+00   4.320079e+01   7.143235e+05  -1.922266e+05   9.166318e+05   7.432557e+00   2.761975e+01   2.085085e-21   1.177889e+06   2.733356e-39   0.000000e+00   0.000000e+00
     2672000   2.671999e-05   1.918675e+01   4.231377e+00   4.327412e+01   7.143235e+05  -1.922266e+05   9.166318e+05   1.485193e+01   5.519053e+01   3.736377e-21   1.177889e+06   1.091541e-38   0.000000e+00   0.000000e+00
     2680000   2.679999e-05   1.924390e+01   4.215999e+00   4.334745e+01   7.143235e+05  -1.922266e+05   9.166318e+05   1.220412e+01   4.535113e+01  -1.379100e-20   1.177889e+06   7.370361e-39   0.000000e+00   0.000000e+00
     2688000   2.687999e-05   1.930104e+01   4.200621e+00   4.342078e+01   7.143235e+05  -1.922266e+05   9.166318e+05   1.351397e+01   5.021859e+01  -2.873771e-21   1.177889e+06   9.038238e-39   0.000000e+00   0.000000e+00
     2696000   2.695999e-05   1.935819e+01   4.185243e+00   4.349411e+01   7.143235e+05  -1.922266e+05   9.166318e+05   1.160229e+01   4.311467e+01   1.475946e-20   1.177889e+06   6.662379e-39   0.000000e+00   0.000000e+00
     2704000   2.703999e-05   1.941534e+01   4.169865e+00   4.356744e+01   7.143235e+05  -1.922266e+05   9.166318e+05   6.475881e+00   2.406470e+01   2.157956e-21   1.177889e+06   2.076058e-39   0.000000e+00   0.000000e+00
     2712000   2.711999e-05   1.947248e+01   4.154487e+00   4.364077e+01   7.143235e+05  -1.922266e+05   9.166318e+05   1.396784e+01   5.190519e+01  -7.655794e-21   1.177889e+06   9.655105e-39   0.000000e+00   0.000000e+00
     2720000   2.719999e-05   1.952963e+01   4.139109e+00   4.371410e+01   7.143235e+05  -1.922266e+05   9.166318e+05   1.065298e+01   3.958699e+01  -1.369328e-20   1.177889e+06   5.615610e-39   0.000000e+00   0.000000e+00
     2728000   2.727999e-05   1.958677e+01   4.123730e+00   4.378743e+01   7.143235e+05  -1.922266e+05   9.166318e+05   1.781543e+01   6.620303e+01  -1.111429e-20   1.177889e+06   1.570642e-38   0.000000e+00   0.000000e+00
     2736000   2.735999e-05   1.964392e+01   4.108352e+00   4.386076e+01   7.143235e+05  -1.922266e+05   9.166318e+05   1.240055e+01   4.608105e+01   2.985442e-21   1.177889e+06   7.609547e-39   0.000000e+00   0.000000e+00
     2744000   2.743999e-05   1.970107e+01   4.092974e+00   4.393409e+01   7.143235e+05  -1.922266e+05   9.166318e+05   1.317610e+01   4.896303e+01  -1.223634e-20   1.177889e+06   8.592240e-39   0.000000e+00   0.000000e+00
     2752000   2.751999e-05   1.975821e+01   4.077596e+00   4.400743e+01   7.143235e+05  -1.922266e+05   9.166318e+05   9.709830e+00   3.608221e+01  -5.421285e-21   1.177889e+06   4.666548e-39   0.000000e+00   0.000000e+00
     2760000   2.759999e-05   1.981536e+01   4.062218e+00   4.408076e+01   7.143235e+05  -1.922266e+05   9.166318e+05   1.064953e+01   3.957417e+01  -1.990707e-20   1.177889e+06   5.612791e-39   0.000000e+00   0.000000e+00
     2768000   2.767999e-05   1.987250e+01   4.046840e+00   4.415409e+01   7.143235e+05  -1.922266e+05   9.166318e+05   1.089326e+01   4.047991e+01  -1.053917e-21   1.177889e+06   5.872767e-39   0.000000e+00   0.000000e+00
     2776000   2.775999e-05   1.992965e+01   4.031462e+00   4.422742e+01   7.143235e+05  -1.922266e+05   9.166318e+05   1.337732e+01   4.971081e+01   1.025679e-20   1.177889e+06   8.856451e-39   0.000000e+00   0.000000e+00
     2784000   2.783999e-05   1.998679e+01   4.016084e+00   4.430075e+01   7.143235e+05  -1.922266e+05   9.166318e+05   1.741626e+01   6.471971e+01   1.710564e-20   1.177889e+06   1.501120e-38   0.000000e+00   0.000000e+00
     2792000   2.791999e-05   2.004394e+01   4.000705e+00   4.437408e+01   7.143235e+05  -1.922266e+05   9.166318e+05   1.230647e+01   4.573148e+01  -1.101348e-20   1.177889e+06   7.496124e-39   0.000000e+00   0.000000e+00
     2800000   2.799999e-05   2.010109e+01   3.985327e+00   4.444741e+01   7.143235e+05  -1.922266e+05   9.166318e+05   1.514358e+01   5.627431e+01   1.521218e-20   1.177889e+06   1.134961e-38   0.000000e+00   0.000000e+00
     2808000   2.807999e-05   2.015823e+01   3.969949e+00   4.452074e+01   7.143235e+05  -1.922266e+05   9.166318e+05   1.126955e+01   4.187821e+01   1.123928e-20   1.177889e+06   6.285722e-39   0.000000e+00   0.000000e+00
     2816000   2.815999e-05   2.021538e+01   3.954571e+00   4.459407e+01   7.143235e+05  -1.922266e+05   9.166318e+05   9.618300e+00   3.574208e+01   9.984027e-21   1.177889e+06   4.578258e-39   0.000000e+00   0.000000e+00
     2824000   2.823999e-05   2.027252e+01   3.939193e+00   4.466740e+01   7.143235e+05  -1.922266e+05   9.166318e+05   1.485313e+01   5.519499e+01  -7.893511e-21   1.177889e+06   1.091798e-38   0.000000e+00   0.000000e+00
     2832000   2.831999e-05   2.032967e+01   3.923815e+00   4.474073e+01   7.143235e+05  -1.922266e+05   9.166318e+05   1.394262e+01   5.181148e+01   1.654608e-20   1.177889e+06   9.621304e-39   0.000000e+00   0.000000e+00
     2840000   2.839999e-05   2.038682e+01   3.908437e+00   4.481406e+01   7.143235e+05  -1.922266e+05   9.166318e+05   1.168108e+01   4.340749e+01  -1.049255e-20   1.177889e+06   6.753137e-39   0.000000e+00   0.000000e+00
     2848000   2.847999e-05   2.044396e+01   3.893059e+00   4.488739e+01   7.143235e+05  -1.922266e+05   9.166318e+05   1.335254e+01   4.961871e+01   3.941838e-22   1.177889e+06   8.823431e-39   0.000000e+00   0.000000e+00
     2856000   2.855999e-05   2.050111e+01   3.877680e+00   4.496072e+01   7.143235e+05  -1.922266e+05   9.166318e+05   1.058525e+01   3.933531e+01  -3.365328e-21   1.177889e+06   5.544996e-39   0.000000e+00   0.000000e+00
     2864000   2.863999e-05   2.055825e+01   3.862302e+00   4.503405e+01   7.143235e+05  -1.922266e+05   9.166318e+05   1.319482e+01   4.903259e+01  -2.058524e-20   1.177889e+06   8.616454e-39   0.000000e+00   0.000000e+00
     2872000   2.871999e-05   2.061540e+01   3.846924e+00   4.510738e+01   7.143235e+05  -1.922266e+05   9.166318e+05   1.471019e+01   5.466381e+01  -1.812177e-20   1.177889e+06   1.071013e-38   0.000000e+00   0.000000e+00
     2880000   2.879999e-05   2.067255e+01   3.831546e+00   4.518071e+01   7.143235e+05  -1.922266e+05   9.166318e+05   1.063421e+01   3.951725e+01   1.982273e-20   1.177889e+06   5.597319e-39   0.000000e+00   0.000000e+00
     2888000   2.887999e-05   2.072969e+01   3.816168e+00   4.525404e+01   7.143235e+05  -1.922266e+05   9.166318e+05   1.343181e+01   4.991329e+01   1.938746e-21   1.177889e+06   8.929220e-39   0.000000e+00   0.000000e+00
     2896000   2.895999e-05   2.078684e+01   3.800790e+00   4.532737e+01   7.143235e+05  -1.922266e+05   9.166318e+05   1.918469e+01   7.129126e+01  -1.256050e-20   1.177889e+06   1.821396e-38   0.000000e+00   0.000000e+00
     2904000   2.903999e-05   2.084398e+01   3.785412e+00   4.540071e+01   7.143235e+05  -1.922266e+05   9.166318e+05   1.788406e+01   6.645807e+01  -5.090825e-21   1.177889e+06   1.582767e-38   0.000000e+00   0.000000e+00
     2912000   2.911999e-05   2.090113e+01   3.770034e+00   4.547404e+01   7.143235e+05  -1.922266e+05   9.166318e+05   1.727950e+01   6.421148e+01  -2.572359e-20   1.177889e+06   1.477814e-38   0.000000e+00   0.000000e+00
     2920000   2.919999e-05   2.095827e+01   3.754655e+00   4.554737e+01   7.143235e+05  -1.922266e+05   9.166318e+05   1.433680e+01   5.327628e+01  -1.582480e-20   1.177889e+06   1.017291e-38   0.000000e+00   0.000000e+00
     2928000   2.927999e-05   2.101542e+01   3.739277e+00   4.562070e+01   7.143235e+05  -1.922266e+05   9.166318e+05   1.325423e+01   4.925337e+01   1.057289e-20   1.177889e+06   8.693732e-39   0.000000e+00   0.000000e+00
     2936000   2.935999e-05   2.107257e+01   3.723899e+00   4.569403e+01   7.143235e+05  -1.922266e+05   9.166318e+05   1.700625e+01   6.319608e+01  -1.785868e-20   1.177889e+06   1.431269e-38   0.000000e+00   0.000000e+00
     2944000   2.943999e-05   2.112971e+01   3.708521e+00   4.576736e+01   7.143235e+05  -1.922266e+05   9.166318e+05   1.615141e+01   6.001947e+01  -1.550605e-20   1.177889e+06   1.291116e-38   0.000000e+00   0.000000e+00
     2952000   2.951999e-05   2.118686e+01   3.693143e+00   4.584069e+01   7.143235e+05  -1.922266e+05   9.166318e+05   1.446092e+01   5.373751e+01  -1.420544e-20   1.177889e+06   1.034997e-38   0.000000e+00   0.000000e+00
     2960000   2.959999e-05   2.124400e+01   3.677765e+00   4.591402e+01   7.143235e+05  -1.922266e+05   9.166318e+05   1.641921e+01   6.101459e+01   1.237990e-22   1.177889e+06   1.334191e-38   0.000000e+00   0.000000e+00
     2968000   2.967999e-05   2.130115e+01   3.662387e+00   4.598735e+01   7.143235e+05  -1.922266e+05   9.166318e+05   1.261065e+01   4.686180e+01  -4.150044e-20   1.177889e+06   7.871352e-39   0.000000e+00   0.000000e+00
     2976000   2.975999e-05   2.135830e+01   3.647009e+00   4.606068e+01   7.143235e+05  -1.922266e+05   9.166318e+05   1.739569e+01   6.464326e+01   3.837423e-20   1.177889e+06   1.497602e-38   0.000000e+00   0.000000e+00
     2984000   2.983999e-05   2.141544e+01   3.631630e+00   4.613401e+01   7.143235e+05  -1.922266e+05   9.166318e+05   1.609700e+01   5.981727e+01   2.097374e-20   1.177889e+06   1.282271e-38   0.000000e+00   0.000000e+00
     2992000   2.991999e-05   2.147259e+01   3.616252e+00   4.620734e+01   7.143235e+05  -1.922266e+05   9.166318e+05   1.902674e+01   7.070431e+01  -2.252777e-20   1.177889e+06   1.791679e-38   0.000000e+00   0.000000e+00
     3000000   2.999999e-05   2.152973e+01   3.600874e+00   4.628067e+01   7.143235e+05  -1.922266e+05   9.166318e+05   1.840356e+01   6.838856e+01  -2.687242e-20   1.177889e+06   1.676261e-38   0.000000e+00   0.000000e+00
     3008000   3.007999e-05   2.158688e+01   3.585496e+00   4.635400e+01   7.143235e+05  -1.922266e+05   9.166318e+05   1.094523e+01   4.067301e+01   7.244643e-21   1.177889e+06   5.929725e-39   0.000000e+00   0.000000e+00
     3016000   3.015999e-05   2.164403e+01   3.570118e+00   4.642733e+01   7.143235e+05  -1.922266e+05   9.166318e+05   1.787853e+01   6.643753e+01  -3.718320e-20   1.177889e+06   1.581987e-38   0.000000e+00   0.000000e+00
     3024000   3.023999e-05   2.170117e+01   3.554740e+00   4.650066e+01   7.143235e+05  -1.922266e+05   9.166318e+05   1.874255e+01   6.964825e+01  -2.523541e-21   1.177889e+06   1.738654e-38   0.000000e+00   0.000000e+00
     3032000   3.031999e-05   2.175832e+01   3.539362e+00   4.657399e+01   7.143235e+05  -1.922266e+05   9.166318e+05   1.397146e+01   5.191866e+01  -3.043138e-21   1.177889e+06   9.661601e-39   0.000000e+00   0.000000e+00
     3040000   3.039999e-05   2.181546e+01   3.523984e+00   4.664732e+01   7.143235e+05  -1.922266e+05   9.166318e+05   1.637615e+01   6.085460e+01  -1.047075e-20   1.177889e+06   1.327307e-38   0.000000e+00   0.000000e+00
     3048000   3.047999e-05   2.187261e+01   3.508605e+00   4.672066e+01   7.143235e+05  -1.922266e+05   9.166318e+05   1.440439e+01   5.352743e+01   1.467940e-20   1.177889e+06   1.026876e-38   0.000000e+00   0.000000e+00
     3056000   3.055999e-05   2.192975e+01   3.493227e+00   4.679399e+01   7.143235e+05  -1.922266e+05   9.166318e+05   1.299729e+01   4.829857e+01  -5.430539e-21   1.177889e+06   8.360776e-39   0.000000e+00   0.000000e+00
     3064000   3.063999e-05   2.198690e+01   3.477849e+00   4.686732e+01   7.143235e+05  -1.922266e+05   9.166318e+05   1.033019e+01   3.838750e+01   1.601829e-20   1.177889e+06   5.281594e-39   0.000000e+00   0.000000e+00
     3072000   3.071999e-05   2.204405e+01   3.462471e+00   4.694065e+01   7.143235e+05  -1.922266e+05   9.166318e+05   1.684333e+01   6.259064e+01  -4.702178e-21   1.177889e+06   1.404052e-38   0.000000e+00   0.000000e+00
     3080000   3.079999e-05   2.210119e+01   3.447093e+00   4.701398e+01   7.143235e+05  -1.922266e+05   9.166318e+05   1.647547e+01   6.122368e+01  -1.299134e-20   1.177889e+06   1.343457e-38   0.000000e+00   0.000000e+00
     3088000   3.087999e-05   2.215834e+01   3.431715e+00   4.708731e+01   7.143235e+05  -1.922266e+05   9.166318e+05   1.345860e+01   5.001284e+01   1.193027e-20   1.177889e+06   8.965042e-39   0.000000e+00   0.000000e+00
     3096000   3.095999e-05   2.221548e+01   3.416337e+00   4.716064e+01   7.143235e+05  -1.922266e+05   9.166318e+05   1.515282e+01   5.630862e+01   8.740331e-22   1.177889e+06   1.136471e-38   0.000000e+00   0.000000e+00
     3104000   3.103999e-05   2.227263e+01   3.400959e+00   4.723397e+01   7.143235e+05  -1.922266e+05   9.166318e+05   1.634311e+01   6.073181e+01  -1.877071e-20   1.177889e+06   1.321868e-38   0.000000e+00   0.000000e+00
     3112000   3.111999e-05   2.232978e+01   3.385580e+00   4.730730e+01   7.143235e+05  -1.922266e+05   9.166318e+05   9.626210e+00   3.577148e+01  -9.569004e-23   1.177889e+06   4.586519e-39   0.000000e+00   0.000000e+00
     3120000   3.119999e-05   2.238692e+01   3.370202e+00   4.738063e+01   7.143235e+05  -1.922266e+05   9.166318e+05   5.690221e+00   2.114515e+01   1.201503e-20   1.177889e+06   1.602734e-39   0.000000e+00   0.000000e+00
     3128000   3.127999e-05   2.244407e+01   3.354824e+00   4.745396e+01   7.143235e+05  -1.922266e+05   9.166318e+05   1.770806e+01   6.580403e+01   1.790393e-22   1.177889e+06   1.551943e-38   0.000000e+00   0.000000e+00
     3136000   3.135999e-05   2.250121e+01   3.339446e+00   4.752729e+01   7.143235e+05  -1.922266e+05   9.166318e+05   1.606228e+01   5.968824e+01  -2.521114e-20   1.177889e+06   1.276871e-38   0.000000e+00   0.000000e+00
     3144000   3.143999e-05   2.255836e+01   3.324068e+00   4.760062e+01   7.143235e+05  -1.922266e+05   9.166318e+05   1.873876e+01   6.963416e+01  -5.885784e-21   1.177889e+06   1.737817e-38   0.000000e+00   0.000000e+00
     3152000   3.151999e-05   2.261551e+01   3.308690e+00   4.767395e+01   7.143235e+05  -1.922266e+05   9.166318e+05   1.588819e+01   5.904130e+01   2.941895e-20   1.177889e+06   1.249405e-38   0.000000e+00   0.000000e+00
     3160000   3.159999e-05   2.267265e+01   3.293312e+00   4.774728e+01   7.143235e+05  -1.922266e+05   9.166318e+05   1.801144e+01   6.693141e+01   7.414709e-21   1.177889e+06   1.605469e-38   0.000000e+00   0.000000e+00
     3168000   3.167999e-05   2.272980e+01   3.277934e+00   4.782061e+01   7.143235e+05  -1.922266e+05   9.166318e+05   2.012648e+01   7.479101e+01  -4.135666e-20   1.177889e+06   2.004645e-38   0.000000e+00   0.000000e+00
     3176000   3.175999e-05   2.278694e+01   3.262555e+00   4.789394e+01   7.143235e+05  -1.922266e+05   9.166318e+05   2.501491e+01   9.295667e+01  -3.730672e-20   1.177889e+06   3.096741e-38   0.000000e+00   0.000000e+00
     3184000   3.183999e-05   2.284409e+01   3.247177e+00   4.796727e+01   7.143235e+05  -1.922266e+05   9.166318e+05   1.703100e+01   6.328804e+01   6.080650e-22   1.177889e+06   1.435536e-38   0.000000e+00   0.000000e+00
     3192000   3.191999e-05   2.290123e+01   3.231799e+00   4.804060e+01   7.143235e+05  -1.922266e+05   9.166318e+05   1.756680e+01   6.527911e+01  -3.675881e-21   1.177889e+06   1.527213e-38   0.000000e+00   0.000000e+00
     3200000   3.199999e-05   2.295838e+01   3.216421e+00   4.811394e+01   7.143235e+05  -1.922266e+05   9.166318e+05   1.909944e+01   7.097448e+01   1.170833e-20   1.177889e+06   1.805352e-38   0.000000e+00   0.000000e+00
     3208000   3.207999e-05   2.301553e+01   3.201043e+00   4.818727e+01   7.143235e+05  -1.922266e+05   9.166318e+05   1.993369e+01   7.407457e+01   4.433963e-21   1.177889e+06   1.966577e-38   0.000000e+00   0.000000e+00
     3216000   3.215999e-05   2.307267e+01   3.185665e+00   4.826060e+01   7.143235e+05  -1.922266e+05   9.166318e+05   2.246406e+01   8.347755e+01  -3.160853e-20   1.177889e+06   2.497450e-38   0.000000e+00   0.000000e+00
     3224000   3.223999e-05   2.312982e+01   3.170287e+00   4.833393e+01   7.143235e+05  -1.922266e+05   9.166318e+05   1.856814e+01   6.900014e+01   4.549351e-21   1.177889e+06   1.706322e-38   0.000000e+00   0.000000e+00
     3232000   3.231999e-05   2.318696e+01   3.154909e+00   4.840726e+01   7.143235e+05  -1.922266e+05   9.166318e+05   1.723086e+01   6.403073e+01   1.685201e-20   1.177889e+06   1.469462e-38   0.000000e+00   0.000000e+00
     3240000   3.239999e-05   2.324411e+01   3.139530e+00   4.848059e+01   7.143235e+05  -1.922266e+05   9.166318e+05   1.786481e+01   6.638651e+01   1.713480e-20   1.177889e+06   1.579526e-38   0.000000e+00   0.000000e+00
     3248000   3.247999e-05   2.330126e+01   3.124152e+00   4.855392e+01   7.143235e+05  -1.922266e+05   9.166318e+05   1.833316e+01   6.812693e+01   2.340571e-21   1.177889e+06   1.663394e-38   0.000000e+00   0.000000e+00
     3256000   3.255999e-05   2.335840e+01   3.108774e+00   4.862725e+01   7.143235e+05  -1.922266e+05   9.166318e+05   2.118595e+01   7.872805e+01  -2.016855e-20   1.177889e+06   2.221297e-38   0.000000e+00   0.000000e+00
     3264000   3.263999e-05   2.341555e+01   3.093396e+00   4.870058e+01   7.143235e+05  -1.922266e+05   9.166318e+05   2.203522e+01   8.188399e+01   4.389885e-20   1.177889e+06   2.403048e-38   0.000000e+00   0.000000e+00
     3272000   3.271999e-05   2.347269e+01   3.078018e+00   4.877391e+01   7.143235e+05  -1.922266e+05   9.166318e+05   2.213388e+01   8.225061e+01   1.565943e-20   1.177889e+06   2.424615e-38   0.000000e+00   0.000000e+00
     3280000   3.279999e-05   2.352984e+01   3.062640e+00   4.884724e+01   7.143235e+05  -1.922266e+05   9.166318e+05   1.549741e+01   5.758914e+01   2.140936e-20   1.177889e+06   1.188655e-38   0.000000e+00   0.000000e+00
     3288000   3.287999e-05   2.358699e+01   3.047262e+00   4.892057e+01   7.143235e+05  -1.922266e+05   9.166318e+05   1.395890e+01   5.187197e+01  -2.179604e-20   1.177889e+06   9.643602e-39   0.000000e+00   0.000000e+00
     3296000   3.295999e-05   2.364413e+01   3.031884e+00   4.899390e+01   7.143235e+05  -1.922266e+05   9.166318e+05   1.811703e+01   6.732378e+01  -2.293326e-21   1.177889e+06   1.624436e-38   0.000000e+00   0.000000e+00
     3304000   3.303999e-05   2.370128e+01   3.016505e+00   4.906723e+01   7.143235e+05  -1.922266e+05   9.166318e+05   1.929909e+01   7.171637e+01   1.501447e-21   1.177889e+06   1.843422e-38   0.000000e+00   0.000000e+00
     3312000   3.311999e-05   2.375842e+01   3.001127e+00   4.914056e+01   7.143235e+05  -1.922266e+05   9.166318e+05   2.141853e+01   7.959235e+01   1.327820e-20   1.177889e+06   2.270337e-38   0.000000e+00   0.000000e+00
     3320000   3.319999e-05   2.381557e+01   2.985749e+00   4.921389e+01   7.143235e+05  -1.922266e+05   9.166318e+05   1.760017e+01   6.540313e+01  -3.896563e-21   1.177889e+06   1.533008e-38   0.000000e+00   0.000000e+00
     3328000   3.327999e-05   2.387271e+01   2.970371e+00   4.928722e+01   7.143235e+05  -1.922266e+05   9.166318e+05   2.045023e+01   7.599407e+01  -6.727712e-21   1.177889e+06   2.069709e-38   0.000000e+00   0.000000e+00
     3336000   3.335999e-05   2.392986e+01   2.954993e+00   4.936055e+01   7.143235e+05  -1.922266e+05   9.166318e+05   1.884946e+01   7.004554e+01  -3.037824e-20   1.177889e+06   1.758438e-38   0.000000e+00   0.000000e+00
     3344000   3.343999e-05   2.398701e+01   2.939615e+00   4.943389e+01   7.143235e+05  -1.922266e+05   9.166318e+05   2.000475e+01   7.433867e+01   2.672506e-20   1.177889e+06   1.980550e-38   0.000000e+00   0.000000e+00
     3352000   3.351999e-05   2.404415e+01   2.924237e+00   4.950722e+01   7.143235e+05  -1.922266e+05   9.166318e+05   1.833229e+06  -7.492669e+04  -1.444333e+06   1.177889e+06   1.817552e-29   0.000000e+00   0.000000e+00
     3360000   3.359999e-05   2.410130e+01   2.908859e+00   4.958055e+01   7.143244e+05  -1.922266e+05   9.166311e+05   1.597207e+01   5.935308e+01  -2.072754e-20   1.177889e+06   1.262648e-38   0.000000e+00   0.000000e+00
     3368000   3.367999e-05   2.415844e+01   2.893480e+00   4.965388e+01   7.143254e+05  -1.922266e+05   9.166303e+05   1.439881e+07  -5.211484e+05  -1.133021e+07   1.177889e+06   1.122277e-27   0.000000e+00   0.000000e+00
     3376000   3.375999e-05   2.421559e+01   2.878102e+00   4.972721e+01   7.143307e+05  -1.922268e+05   9.166261e+05   9.761562e+07  -3.046519e+06  -7.671117e+07   1.177889e+06   5.154253e-26   0.000000e+00   0.000000e+00
     3384000   3.383999e-05   2.427274e+01   2.862724e+00   4.980054e+01   7.143385e+05  -1.922270e+05   9.166200e+05   1.960390e+08  -5.551163e+06  -1.539408e+08   1.177889e+06   2.077837e-25   0.000000e+00   0.000000e+00
     3392000   3.391999e-05   2.432988e+01   2.847346e+00   4.987387e+01   7.143489e+05  -1.922273e+05   9.166118e+05   7.385427e+07  -1.706243e+06  -5.791515e+07   1.177889e+06   2.946181e-26   0.000000e+00   0.000000e+00
     3400000   3.399999e-05   2.438703e+01   2.831968e+00   4.994719e+01   7.143503e+05  -1.922273e+05   9.166107e+05   0.000000e+00   0.000000e+00   0.000000e+00   1.177889e+06   0.000000e+00   0.000000e+00   0.000000e+00
