     timestep     time              x             y              z              vx             vy             vz             ax             ay             az         v_magnitude      ELoss        Electronic      Nuclear
           0   0.000000e+00   1.000000e-01   7.667408e+00   1.959725e+01   3.363809e+05  -2.896286e+05   7.471690e+05   0.000000e+00   0.000000e+00   0.000000e+00   8.690790e+05   0.000000e+00   0.000000e+00   0.000000e+00
        8000   7.999000e-08   1.269104e-01   7.644238e+00   1.965702e+01   3.363802e+05  -2.896277e+05   7.471696e+05  -1.244737e+07   1.784363e+07   1.252066e+07   8.690790e+05   1.146108e-27   0.000000e+00   0.000000e+00
       16000   1.599900e-07   1.538208e-01   7.621068e+00   1.971680e+01   3.363781e+05  -2.896246e+05   7.471718e+05  -5.874508e+07   8.621656e+07   5.986708e+07   8.690790e+05   2.631920e-26   0.000000e+00   0.000000e+00
       24000   2.399900e-07   1.807308e-01   7.597898e+00   1.977657e+01   3.363729e+05  -2.896168e+05   7.471772e+05  -1.286963e+07   1.843145e+07   1.293810e+07   8.690790e+05   1.223692e-27   0.000000e+00   0.000000e+00
       32000   3.199900e-07   2.076406e-01   7.574729e+00   1.983635e+01   3.363694e+05  -2.896115e+05   7.471808e+05  -7.137744e+07   1.017740e+08   7.158120e+07   8.690790e+05   3.743630e-26   0.000000e+00   0.000000e+00
       40000   3.999900e-07   2.345499e-01   7.551560e+00   1.989612e+01   3.363641e+05  -2.896039e+05   7.471861e+05  -6.134390e+07   8.725688e+07   6.143560e+07   8.690790e+05   2.756571e-26   0.000000e+00   0.000000e+00
       48000   4.799900e-07   2.614590e-01   7.528392e+00   1.995590e+01   3.363633e+05  -2.896026e+05   7.471870e+05   1.050132e+07  -8.045117e+06  -7.845618e+06   8.690790e+05   4.299171e-28   0.000000e+00   0.000000e+00
       56000   5.599900e-07   2.883681e-01   7.505224e+00   2.001567e+01   3.363647e+05  -2.896040e+05   7.471858e+05  -4.416922e+05  -5.130075e+05   8.969706e-01   8.690790e+05   8.322998e-31   0.000000e+00   0.000000e+00
       64000   6.399900e-07   3.152773e-01   7.482055e+00   2.007545e+01   3.363648e+05  -2.896039e+05   7.471858e+05   3.273401e+00  -2.479663e+01  -1.108460e+01   8.690790e+05   1.361408e-39   0.000000e+00   0.000000e+00
       72000   7.199900e-07   3.421865e-01   7.458887e+00   2.013522e+01   3.363648e+05  -2.896039e+05   7.471858e+05  -3.024484e+00  -4.517694e+00  -3.894773e-01   8.690790e+05   5.405643e-41   0.000000e+00   0.000000e+00
       80000   7.999900e-07   3.690957e-01   7.435719e+00   2.019500e+01   3.363648e+05  -2.896039e+05   7.471858e+05  -1.148140e+00  -2.273344e+00  -3.642676e-01   8.690790e+05   1.204529e-41   0.000000e+00   0.000000e+00
       88000   8.799900e-07   3.960048e-01   7.412550e+00   2.025477e+01   3.363648e+05  -2.896039e+05   7.471858e+05  -1.146991e+01  -1.332190e+01  -1.542916e-21   8.690790e+05   5.621509e-40   0.000000e+00   0.000000e+00
       96000   9.599900e-07   4.229140e-01   7.389382e+00   2.031455e+01   3.363648e+05  -2.896039e+05   7.471858e+05  -1.083073e+01  -1.257951e+01  -1.114018e-21   8.690790e+05   5.013459e-40   0.000000e+00   0.000000e+00
      104000   1.039990e-06   4.498232e-01   7.366214e+00   2.037432e+01   3.363648e+05  -2.896039e+05   7.471858e+05  -7.437206e+00  -8.638055e+00   4.349950e-21   8.690790e+05   2.364055e-40   0.000000e+00   0.000000e+00
      112000   1.119990e-06   4.767324e-01   7.343045e+00   2.043409e+01   3.363648e+05  -2.896039e+05   7.471858e+05  -1.354141e+01  -1.572788e+01   2.256095e-21   8.690790e+05   7.835718e-40   0.000000e+00   0.000000e+00
      120000   1.199990e-06   5.036416e-01   7.319877e+00   2.049387e+01   3.363648e+05  -2.896039e+05   7.471858e+05  -1.083254e+01  -1.258161e+01  -2.923945e-21   8.690790e+05   5.014967e-40   0.000000e+00   0.000000e+00
      128000   1.279990e-06   5.305508e-01   7.296709e+00   2.055364e+01   3.363648e+05  -2.896039e+05   7.471858e+05  -1.227859e+01  -1.426115e+01  -5.746345e-21   8.690790e+05   6.443065e-40   0.000000e+00   0.000000e+00
      136000   1.359990e-06   5.574599e-01   7.273541e+00   2.061342e+01   3.363648e+05  -2.896039e+05   7.471858e+05  -1.038358e+01  -1.206016e+01   4.708954e-21   8.690790e+05   4.607782e-40   0.000000e+00   0.000000e+00
      144000   1.439990e-06   5.843691e-01   7.250372e+00   2.067319e+01   3.363648e+05  -2.896039e+05   7.471858e+05  -9.454708e+00  -1.098131e+01   4.266868e-21   8.690790e+05   3.820280e-40   0.000000e+00   0.000000e+00
      152000   1.519990e-06   6.112783e-01   7.227204e+00   2.073297e+01   3.363648e+05  -2.896039e+05   7.471858e+05  -5.502749e+00  -6.391250e+00  -1.744123e-21   8.690790e+05   1.294014e-40   0.000000e+00   0.000000e+00
      160000   1.599990e-06   6.381875e-01   7.204036e+00   2.079274e+01   3.363648e+05  -2.896039e+05   7.471858e+05  -5.950289e+00  -6.911052e+00  -1.704070e-21   8.690790e+05   1.513060e-40   0.000000e+00   0.000000e+00
      168000   1.679990e-06   6.650967e-01   7.180867e+00   2.085252e+01   3.363648e+05  -2.896039e+05   7.471858e+05  -7.795486e+00  -9.054184e+00  -4.278721e-22   8.690790e+05   2.597106e-40   0.000000e+00   0.000000e+00
      176000   1.759990e-06   6.920059e-01   7.157699e+00   2.091229e+01   3.363648e+05  -2.896039e+05   7.471858e+05  -9.901970e+00  -1.150079e+01  -4.279027e-21   8.690790e+05   4.190059e-40   0.000000e+00   0.000000e+00
      184000   1.839990e-06   7.189151e-01   7.134531e+00   2.097207e+01   3.363648e+05  -2.896039e+05   7.471858e+05  -5.829116e+00  -6.770315e+00   5.769119e-22   8.690790e+05   1.452060e-40   0.000000e+00   0.000000e+00
      192000   1.919990e-06   7.458242e-01   7.111362e+00   2.103184e+01   3.363648e+05  -2.896039e+05   7.471858e+05  -9.858395e+00  -1.145018e+01   1.088372e-20   8.690790e+05   4.153255e-40   0.000000e+00   0.000000e+00
      200000   1.999990e-06   7.727334e-01   7.088194e+00   2.109162e+01   3.363648e+05  -2.896039e+05   7.471858e+05  -1.917101e+01  -2.226646e+01   1.788496e-21   8.690790e+05   1.570582e-39   0.000000e+00   0.000000e+00
      208000   2.079990e-06   7.996426e-01   7.065026e+00   2.115139e+01   3.363648e+05  -2.896039e+05   7.471858e+05  -1.551850e+01  -1.802419e+01   1.366202e-21   8.690790e+05   1.029173e-39   0.000000e+00   0.000000e+00
      216000   2.159990e-06   8.265518e-01   7.041857e+00   2.121117e+01   3.363648e+05  -2.896039e+05   7.471858e+05  -1.101660e+01  -1.279540e+01   3.837730e-21   8.690790e+05   5.186730e-40   0.000000e+00   0.000000e+00
      224000   2.239990e-06   8.534610e-01   7.018689e+00   2.127094e+01   3.363648e+05  -2.896039e+05   7.471858e+05  -9.987083e+00  -1.159965e+01  -3.744843e-21   8.690790e+05   4.262622e-40   0.000000e+00   0.000000e+00
      232000   2.319990e-06   8.803702e-01   6.995521e+00   2.133072e+01   3.363648e+05  -2.896039e+05   7.471858e+05  -1.873161e+01  -2.175611e+01  -6.631033e-21   8.690790e+05   1.499483e-39   0.000000e+00   0.000000e+00
      240000   2.399990e-06   9.072793e-01   6.972353e+00   2.139049e+01   3.363648e+05  -2.896039e+05   7.471858e+05  -7.820613e+00  -9.083369e+00   1.918955e-21   8.690790e+05   2.613832e-40   0.000000e+00   0.000000e+00
      248000   2.479990e-06   9.341885e-01   6.949184e+00   2.145027e+01   3.363648e+05  -2.896039e+05   7.471858e+05  -9.357793e+00  -1.086875e+01   6.169888e-21   8.690790e+05   3.742222e-40   0.000000e+00   0.000000e+00
      256000   2.559990e-06   9.610977e-01   6.926016e+00   2.151004e+01   3.363648e+05  -2.896039e+05   7.471858e+05  -8.153335e+00  -9.469813e+00  -1.327212e-21   8.690790e+05   2.840967e-40   0.000000e+00   0.000000e+00
      264000   2.639990e-06   9.880069e-01   6.902848e+00   2.156982e+01   3.363648e+05  -2.896039e+05   7.471858e+05  -7.599897e+00  -8.827015e+00   4.585962e-21   8.690790e+05   2.468378e-40   0.000000e+00   0.000000e+00
      272000   2.719990e-06   1.014916e+00   6.879679e+00   2.162959e+01   3.363648e+05  -2.896039e+05   7.471858e+05  -9.463638e+00  -1.099169e+01  -3.373159e-21   8.690790e+05   3.827262e-40   0.000000e+00   0.000000e+00
      280000   2.799990e-06   1.041825e+00   6.856511e+00   2.168937e+01   3.363648e+05  -2.896039e+05   7.471858e+05  -1.088971e+01  -1.264802e+01  -5.450149e-21   8.690790e+05   5.067650e-40   0.000000e+00   0.000000e+00
      288000   2.879990e-06   1.068734e+00   6.833343e+00   2.174914e+01   3.363648e+05  -2.896039e+05   7.471858e+05  -6.543393e+00  -7.599923e+00   4.717454e-21   8.690790e+05   1.829817e-40   0.000000e+00   0.000000e+00
      296000   2.959990e-06   1.095644e+00   6.810174e+00   2.180892e+01   3.363648e+05  -2.896039e+05   7.471858e+05  -1.195777e+01  -1.388853e+01   3.249514e-21   8.690790e+05   6.110483e-40   0.000000e+00   0.000000e+00
      304000   3.039990e-06   1.122553e+00   6.787006e+00   2.186869e+01   3.363648e+05  -2.896039e+05   7.471858e+05  -1.386921e+01  -1.610860e+01   4.553333e-21   8.690790e+05   8.220285e-40   0.000000e+00   0.000000e+00
      312000   3.119990e-06   1.149462e+00   6.763838e+00   2.192847e+01   3.363648e+05  -2.896039e+05   7.471858e+05  -3.285750e+00  -3.816283e+00  -1.326423e-22   8.690790e+05   4.615149e-41   0.000000e+00   0.000000e+00
      320000   3.199990e-06   1.176371e+00   6.740669e+00   2.198824e+01   3.363648e+05  -2.896039e+05   7.471858e+05   6.019642e-01   6.991604e-01  -3.053389e-23   8.690790e+05   1.546066e-42   0.000000e+00   0.000000e+00
      328000   3.279990e-06   1.203280e+00   6.717501e+00   2.204802e+01   3.363648e+05  -2.896039e+05   7.471858e+05  -2.639134e+00  -3.065262e+00   2.445592e-22   8.690790e+05   2.976202e-41   0.000000e+00   0.000000e+00
      336000   3.359990e-06   1.230190e+00   6.694333e+00   2.210779e+01   3.363648e+05  -2.896039e+05   7.471858e+05  -1.698976e+00  -1.973302e+00   7.131021e-22   8.690790e+05   1.233748e-41   0.000000e+00   0.000000e+00
      344000   3.439990e-06   1.257099e+00   6.671164e+00   2.216757e+01   3.363648e+05  -2.896039e+05   7.471858e+05  -7.090371e-01  -8.235218e-01  -3.946808e-22   8.690790e+05   2.149205e-42   0.000000e+00   0.000000e+00
      352000   3.519990e-06   1.284008e+00   6.647996e+00   2.222734e+01   3.363648e+05  -2.896039e+05   7.471858e+05   2.037204e+00   2.366141e+00  -8.919382e-22   8.690790e+05   1.773522e-41   0.000000e+00   0.000000e+00
      360000   3.599990e-06   1.310917e+00   6.624828e+00   2.228712e+01   3.363648e+05  -2.896039e+05   7.471858e+05  -6.023010e+00  -6.995515e+00   5.020248e-21   8.690790e+05   1.550011e-40   0.000000e+00   0.000000e+00
      368000   3.679990e-06   1.337826e+00   6.601660e+00   2.234689e+01   3.363648e+05  -2.896039e+05   7.471858e+05  -3.614832e+00  -4.198501e+00  -9.753142e-22   8.690790e+05   5.585295e-41   0.000000e+00   0.000000e+00
      376000   3.759990e-06   1.364735e+00   6.578491e+00   2.240667e+01   3.363648e+05  -2.896039e+05   7.471858e+05  -2.188760e+00  -2.542168e+00  -2.150314e-22   8.690790e+05   2.047365e-41   0.000000e+00   0.000000e+00
      384000   3.839990e-06   1.391645e+00   6.555323e+00   2.246644e+01   3.363648e+05  -2.896039e+05   7.471858e+05  -1.972932e+00  -2.291491e+00  -9.933396e-22   8.690790e+05   1.663506e-41   0.000000e+00   0.000000e+00
      392000   3.919990e-06   1.418554e+00   6.532155e+00   2.252622e+01   3.363648e+05  -2.896039e+05   7.471858e+05  -1.077984e+01  -1.252040e+01  -4.880909e-21   8.690790e+05   4.966015e-40   0.000000e+00   0.000000e+00
      400000   3.999990e-06   1.445463e+00   6.508986e+00   2.258599e+01   3.363648e+05  -2.896039e+05   7.471858e+05  -1.123713e+01  -1.305154e+01   9.618805e-22   8.690790e+05   5.396286e-40   0.000000e+00   0.000000e+00
      408000   4.079990e-06   1.472372e+00   6.485818e+00   2.264576e+01   3.363648e+05  -2.896039e+05   7.471858e+05  -1.271302e+01  -1.476573e+01   4.230829e-22   8.690790e+05   6.907326e-40   0.000000e+00   0.000000e+00
      416000   4.159990e-06   1.499281e+00   6.462650e+00   2.270554e+01   3.363648e+05  -2.896039e+05   7.471858e+05  -1.705796e+01  -1.981222e+01   1.867368e-20   8.690790e+05   1.243418e-39   0.000000e+00   0.000000e+00
      424000   4.239990e-06   1.526191e+00   6.439481e+00   2.276531e+01   3.363648e+05  -2.896039e+05   7.471858e+05  -9.805516e+00  -1.138876e+01  -2.209380e-21   8.690790e+05   4.108974e-40   0.000000e+00   0.000000e+00
      432000   4.319990e-06   1.553100e+00   6.416313e+00   2.282509e+01   3.363648e+05  -2.896039e+05   7.471858e+05  -7.566510e+00  -8.788237e+00   1.970660e-21   8.690790e+05   2.446836e-40   0.000000e+00   0.000000e+00
      440000   4.399990e-06   1.580009e+00   6.393145e+00   2.288486e+01   3.363648e+05  -2.896039e+05   7.471858e+05  -1.027373e+01  -1.193258e+01   6.160248e-21   8.690790e+05   4.511093e-40   0.000000e+00   0.000000e+00
      448000   4.479990e-06   1.606918e+00   6.369976e+00   2.294464e+01   3.363648e+05  -2.896039e+05   7.471858e+05  -5.742380e+00  -6.669573e+00   4.084923e-21   8.690790e+05   1.409198e-40   0.000000e+00   0.000000e+00
      456000   4.559990e-06   1.633827e+00   6.346808e+00   2.300441e+01   3.363648e+05  -2.896039e+05   7.471858e+05  -5.558968e+00  -6.456547e+00  -2.403037e-22   8.690790e+05   1.320606e-40   0.000000e+00   0.000000e+00
      464000   4.639990e-06   1.660736e+00   6.323640e+00   2.306419e+01   3.363648e+05  -2.896039e+05   7.471858e+05  -5.727667e+00  -6.652484e+00  -2.243810e-21   8.690790e+05   1.401976e-40   0.000000e+00   0.000000e+00
      472000   4.719990e-06   1.687646e+00   6.300471e+00   2.312396e+01   3.363648e+05  -2.896039e+05   7.471858e+05  -5.910209e+00  -6.864502e+00  -3.116330e-21   8.690790e+05   1.492773e-40   0.000000e+00   0.000000e+00
      480000   4.799990e-06   1.714555e+00   6.277303e+00   2.318374e+01   3.363648e+05  -2.896039e+05   7.471858e+05  -5.384100e+00  -6.253443e+00  -2.973186e-21   8.690790e+05   1.238831e-40   0.000000e+00   0.000000e+00
      488000   4.879990e-06   1.741464e+00   6.254135e+00   2.324351e+01   3.363648e+05  -2.896039e+05   7.471858e+05  -7.469688e+00  -8.675781e+00  -1.147200e-22   8.690790e+05   2.384359e-40   0.000000e+00   0.000000e+00
      496000   4.959990e-06   1.768373e+00   6.230967e+00   2.330329e+01   3.363648e+05  -2.896039e+05   7.471858e+05  -6.495094e+00  -7.543825e+00   8.928287e-22   8.690790e+05   1.802840e-40   0.000000e+00   0.000000e+00
      504000   5.039990e-06   1.795282e+00   6.207798e+00   2.336306e+01   3.363648e+05  -2.896039e+05   7.471858e+05  -6.612389e+00  -7.680059e+00   3.924391e-21   8.690790e+05   1.868544e-40   0.000000e+00   0.000000e+00
      512000   5.119990e-06   1.822192e+00   6.184630e+00   2.342284e+01   3.363648e+05  -2.896039e+05   7.471858e+05  -1.238315e+01  -1.438259e+01   6.619474e-21   8.690790e+05   6.552502e-40   0.000000e+00   0.000000e+00
      520000   5.199990e-06   1.849101e+00   6.161462e+00   2.348261e+01   3.363648e+05  -2.896039e+05   7.471858e+05  -1.730817e+01  -2.010283e+01   3.933636e-21   8.690790e+05   1.280146e-39   0.000000e+00   0.000000e+00
      528000   5.279990e-06   1.876010e+00   6.138293e+00   2.354239e+01   3.363648e+05  -2.896039e+05   7.471858e+05   8.862063e-01   1.029298e+00  -5.407774e-22   8.690790e+05   3.350496e-42   0.000000e+00   0.000000e+00
      536000   5.359990e-06   1.902919e+00   6.115125e+00   2.360216e+01   3.363648e+05  -2.896039e+05   7.471858e+05  -1.023481e+01  -1.188737e+01   8.460934e-21   8.690790e+05   4.477263e-40   0.000000e+00   0.000000e+00
      544000   5.439990e-06   1.929828e+00   6.091957e+00   2.366194e+01   3.363648e+05  -2.896039e+05   7.471858e+05  -1.717793e+01  -1.995157e+01  -7.837574e-21   8.690790e+05   1.260947e-39   0.000000e+00   0.000000e+00
      552000   5.519990e-06   1.956738e+00   6.068788e+00   2.372171e+01   3.363648e+05  -2.896039e+05   7.471858e+05   4.991813e-01   5.797816e-01  -6.882606e-22   8.690790e+05   1.062904e-42   0.000000e+00   0.000000e+00
      560000   5.599990e-06   1.983647e+00   6.045620e+00   2.378149e+01   3.363648e+05  -2.896039e+05   7.471858e+05   4.225824e+00   4.908147e+00   9.123086e-23   8.690790e+05   7.629839e-41   0.000000e+00   0.000000e+00
      568000   5.679990e-06   2.010556e+00   6.022452e+00   2.384126e+01   3.363648e+05  -2.896039e+05   7.471858e+05  -8.361738e+00  -9.711867e+00   7.875846e-21   8.690790e+05   2.988347e-40   0.000000e+00   0.000000e+00
      576000   5.759990e-06   2.037465e+00   5.999283e+00   2.390104e+01   3.363648e+05  -2.896039e+05   7.471858e+05  -5.785313e+00  -6.719438e+00   8.951421e-22   8.690790e+05   1.430485e-40   0.000000e+00   0.000000e+00
      584000   5.839990e-06   2.064374e+00   5.976115e+00   2.396081e+01   3.363648e+05  -2.896039e+05   7.471858e+05  -3.584716e+00  -4.163522e+00   1.231687e-21   8.690790e+05   5.492429e-41   0.000000e+00   0.000000e+00
      592000   5.919990e-06   2.091283e+00   5.952947e+00   2.402059e+01   3.363648e+05  -2.896039e+05   7.471858e+05  -1.511407e+01  -1.755446e+01   2.240629e-21   8.690790e+05   9.761724e-40   0.000000e+00   0.000000e+00
      600000   5.999990e-06   2.118193e+00   5.929778e+00   2.408036e+01   3.363648e+05  -2.896039e+05   7.471858e+05  -9.849795e+00  -1.144019e+01  -1.818974e-21   8.690790e+05   4.146119e-40   0.000000e+00   0.000000e+00
      608000   6.079990e-06   2.145102e+00   5.906610e+00   2.414014e+01   3.363648e+05  -2.896039e+05   7.471858e+05  -9.037072e+00  -1.049624e+01   2.319828e-21   8.690790e+05   3.490072e-40   0.000000e+00   0.000000e+00
      616000   6.159990e-06   2.172011e+00   5.883442e+00   2.419991e+01   3.363648e+05  -2.896039e+05   7.471858e+05  -3.245516e+00  -3.769553e+00  -1.034723e-21   8.690790e+05   4.502713e-41   0.000000e+00   0.000000e+00
      624000   6.239990e-06   2.198920e+00   5.860274e+00   2.425969e+01   3.363648e+05  -2.896039e+05   7.471858e+05  -1.215238e+01  -1.411456e+01   3.009909e-21   8.690790e+05   6.311045e-40   0.000000e+00   0.000000e+00
      632000   6.319990e-06   2.225829e+00   5.837105e+00   2.431946e+01   3.363648e+05  -2.896039e+05   7.471858e+05  -6.997693e+00  -8.127576e+00  -4.840472e-21   8.690790e+05   2.092432e-40   0.000000e+00   0.000000e+00
      640000   6.399990e-06   2.252739e+00   5.813937e+00   2.437924e+01   3.363648e+05  -2.896039e+05   7.471858e+05  -1.001086e+01  -1.162727e+01  -3.883884e-21   8.690790e+05   4.282513e-40   0.000000e+00   0.000000e+00
      648000   6.479990e-06   2.279648e+00   5.790769e+00   2.443901e+01   3.363648e+05  -2.896039e+05   7.471858e+05  -3.980307e+00  -4.622987e+00  -1.261314e-21   8.690790e+05   6.771575e-41   0.000000e+00   0.000000e+00
      656000   6.559990e-06   2.306557e+00   5.767600e+00   2.449879e+01   3.363648e+05  -2.896039e+05   7.471858e+05   2.623737e+00   3.047379e+00  -4.627145e-22   8.690790e+05   2.941312e-41   0.000000e+00   0.000000e+00
      664000   6.639990e-06   2.333466e+00   5.744432e+00   2.455856e+01   3.363648e+05  -2.896039e+05   7.471858e+05  -8.936402e+00  -1.037932e+01   1.512311e-21   8.690790e+05   3.412591e-40   0.000000e+00   0.000000e+00
      672000   6.719990e-06   2.360375e+00   5.721264e+00   2.461834e+01   3.363648e+05  -2.896039e+05   7.471858e+05  -1.731096e+00  -2.010608e+00   3.668623e-22   8.690790e+05   1.281044e-41   0.000000e+00   0.000000e+00
      680000   6.799990e-06   2.387284e+00   5.698095e+00   2.467811e+01   3.363648e+05  -2.896039e+05   7.471858e+05  -1.749990e+00  -2.032552e+00  -3.386270e-22   8.690790e+05   1.309294e-41   0.000000e+00   0.000000e+00
      688000   6.879990e-06   2.414194e+00   5.674927e+00   2.473789e+01   3.363648e+05  -2.896039e+05   7.471858e+05  -6.899789e+00  -8.013864e+00  -4.638750e-21   8.690790e+05   2.034456e-40   0.000000e+00   0.000000e+00
      696000   6.959990e-06   2.441103e+00   5.651759e+00   2.479766e+01   3.363648e+05  -2.896039e+05   7.471858e+05  -7.635689e+00  -8.868586e+00  -3.252607e-21   8.690790e+05   2.491577e-40   0.000000e+00   0.000000e+00
      704000   7.039990e-06   2.468012e+00   5.628590e+00   2.485743e+01   3.363648e+05  -2.896039e+05   7.471858e+05  -7.595926e+00  -8.822403e+00   1.504021e-21   8.690790e+05   2.465630e-40   0.000000e+00   0.000000e+00
      712000   7.119990e-06   2.494921e+00   5.605422e+00   2.491721e+01   3.363648e+05  -2.896039e+05   7.471858e+05  -6.794382e+00  -7.891438e+00  -1.978035e-21   8.690790e+05   1.972770e-40   0.000000e+00   0.000000e+00
      720000   7.199990e-06   2.521830e+00   5.582254e+00   2.497698e+01   3.363648e+05  -2.896039e+05   7.471858e+05  -8.980339e+00  -1.043035e+01  -5.002810e-21   8.690790e+05   3.446305e-40   0.000000e+00   0.000000e+00
      728000   7.279990e-06   2.548740e+00   5.559086e+00   2.503676e+01   3.363648e+05  -2.896039e+05   7.471858e+05  -7.936638e+00  -9.218128e+00  -4.787312e-21   8.690790e+05   2.692178e-40   0.000000e+00   0.000000e+00
      736000   7.359990e-06   2.575649e+00   5.535917e+00   2.509653e+01   3.363648e+05  -2.896039e+05   7.471858e+05  -4.847227e+00  -5.629885e+00   1.731691e-21   8.690790e+05   1.004256e-40   0.000000e+00   0.000000e+00
      744000   7.439990e-06   2.602558e+00   5.512749e+00   2.515631e+01   3.363648e+05  -2.896039e+05   7.471858e+05  -7.097123e+00  -8.243060e+00   3.336915e-21   8.690790e+05   2.152576e-40   0.000000e+00   0.000000e+00
      752000   7.519990e-06   2.629467e+00   5.489581e+00   2.521608e+01   3.363648e+05  -2.896039e+05   7.471858e+05  -5.282486e+00  -6.135423e+00   1.481549e-21   8.690790e+05   1.192544e-40   0.000000e+00   0.000000e+00
      760000   7.599990e-06   2.656376e+00   5.466412e+00   2.527586e+01   3.363648e+05  -2.896039e+05   7.471858e+05  -4.825863e+00  -5.605071e+00   5.792611e-21   8.690790e+05   9.952874e-41   0.000000e+00   0.000000e+00
      768000   7.679990e-06   2.683285e+00   5.443244e+00   2.533563e+01   3.363648e+05  -2.896039e+05   7.471858e+05  -2.482727e+00  -2.883601e+00   1.091094e-21   8.690790e+05   2.634359e-41   0.000000e+00   0.000000e+00
      776000   7.759990e-06   2.710195e+00   5.420076e+00   2.539541e+01   3.363648e+05  -2.896039e+05   7.471858e+05  -3.681443e+00  -4.275867e+00  -1.976580e-21   8.690790e+05   5.792838e-41   0.000000e+00   0.000000e+00
      784000   7.839990e-06   2.737104e+00   5.396907e+00   2.545518e+01   3.363648e+05  -2.896039e+05   7.471858e+05  -7.393745e+00  -8.587576e+00   8.985772e-22   8.690790e+05   2.335881e-40   0.000000e+00   0.000000e+00
      792000   7.919990e-06   2.764013e+00   5.373739e+00   2.551496e+01   3.363648e+05  -2.896039e+05   7.471858e+05  -1.706968e+00  -1.982583e+00   3.372666e-22   8.690790e+05   1.245759e-41   0.000000e+00   0.000000e+00
      800000   7.999990e-06   2.790922e+00   5.350571e+00   2.557473e+01   3.363648e+05  -2.896039e+05   7.471858e+05   1.361998e+00   1.581913e+00   3.149299e-22   8.690790e+05   7.923127e-42   0.000000e+00   0.000000e+00
      808000   8.079990e-06   2.817831e+00   5.327402e+00   2.563451e+01   3.363648e+05  -2.896039e+05   7.471858e+05  -9.664370e+00  -1.122483e+01  -9.406613e-22   8.690790e+05   3.991709e-40   0.000000e+00   0.000000e+00
      816000   8.159990e-06   2.844741e+00   5.304234e+00   2.569428e+01   3.363648e+05  -2.896039e+05   7.471858e+05  -7.575379e+00  -8.798538e+00   2.442154e-21   8.690790e+05   2.452601e-40   0.000000e+00   0.000000e+00
      824000   8.239990e-06   2.871650e+00   5.281066e+00   2.575406e+01   3.363648e+05  -2.896039e+05   7.471858e+05  -2.231570e+00  -2.591890e+00   6.568474e-23   8.690790e+05   2.128889e-41   0.000000e+00   0.000000e+00
      832000   8.319990e-06   2.898559e+00   5.257897e+00   2.581383e+01   3.363648e+05  -2.896039e+05   7.471858e+05  -1.783660e+01  -2.071659e+01   1.335641e-20   8.690790e+05   1.359534e-39   0.000000e+00   0.000000e+00
      840000   8.399990e-06   2.925468e+00   5.234729e+00   2.587361e+01   3.363648e+05  -2.896039e+05   7.471858e+05  -4.751672e+00  -5.518901e+00  -4.824037e-22   8.690790e+05   9.652358e-41   0.000000e+00   0.000000e+00
      848000   8.479990e-06   2.952377e+00   5.211561e+00   2.593338e+01   3.363648e+05  -2.896039e+05   7.471858e+05  -1.283873e+01  -1.491173e+01   2.684971e-21   8.690790e+05   7.043262e-40   0.000000e+00   0.000000e+00
      856000   8.559990e-06   2.979287e+00   5.188393e+00   2.599316e+01   3.363648e+05  -2.896039e+05   7.471858e+05  -5.365034e-01  -6.231300e-01   4.067177e-22   8.690790e+05   1.231019e-42   0.000000e+00   0.000000e+00
      864000   8.639990e-06   3.006196e+00   5.165224e+00   2.605293e+01   3.363648e+05  -2.896039e+05   7.471858e+05  -6.106020e+00  -7.091928e+00   8.141288e-22   8.690790e+05   1.593571e-40   0.000000e+00   0.000000e+00
      872000   8.719990e-06   3.033105e+00   5.142056e+00   2.611271e+01   3.363648e+05  -2.896039e+05   7.471858e+05  -9.072844e+00  -1.053779e+01  -3.735638e-22   8.690790e+05   3.517781e-40   0.000000e+00   0.000000e+00
      880000   8.799990e-06   3.060014e+00   5.118888e+00   2.617248e+01   3.363648e+05  -2.896039e+05   7.471858e+05  -9.603516e+00  -1.115415e+01  -2.958980e-22   8.690790e+05   3.941331e-40   0.000000e+00   0.000000e+00
      888000   8.879990e-06   3.086923e+00   5.095719e+00   2.623226e+01   3.363648e+05  -2.896039e+05   7.471858e+05  -7.245016e+00  -8.414833e+00  -1.747955e-21   8.690790e+05   2.243371e-40   0.000000e+00   0.000000e+00
      896000   8.959990e-06   3.113832e+00   5.072551e+00   2.629203e+01   3.363648e+05  -2.896039e+05   7.471858e+05  -9.516619e+00  -1.105322e+01   4.340481e-21   8.690790e+05   3.869968e-40   0.000000e+00   0.000000e+00
      904000   9.039990e-06   3.140742e+00   5.049383e+00   2.635181e+01   3.363648e+05  -2.896039e+05   7.471858e+05  -1.069673e+00  -1.242387e+00  -5.011559e-22   8.690790e+05   4.894270e-42   0.000000e+00   0.000000e+00
      912000   9.119990e-06   3.167651e+00   5.026214e+00   2.641158e+01   3.363648e+05  -2.896039e+05   7.471858e+05  -6.898772e+00  -8.012683e+00  -2.666827e-21   8.690790e+05   2.033612e-40   0.000000e+00   0.000000e+00
      920000   9.199990e-06   3.194560e+00   5.003046e+00   2.647136e+01   3.363648e+05  -2.896039e+05   7.471858e+05  -1.095465e+01  -1.272345e+01   1.368630e-20   8.690790e+05   5.127970e-40   0.000000e+00   0.000000e+00
      928000   9.279990e-06   3.221469e+00   4.979878e+00   2.653113e+01   3.363648e+05  -2.896039e+05   7.471858e+05  -2.988999e+00  -3.471618e+00  -9.771128e-22   8.690790e+05   3.817967e-41   0.000000e+00   0.000000e+00
      936000   9.359990e-06   3.248378e+00   4.956709e+00   2.659091e+01   3.363648e+05  -2.896039e+05   7.471858e+05  -3.200318e+00  -3.717058e+00  -1.170815e-22   8.690790e+05   4.376908e-41   0.000000e+00   0.000000e+00
      944000   9.439990e-06   3.275288e+00   4.933541e+00   2.665068e+01   3.363648e+05  -2.896039e+05   7.471858e+05  -1.391200e+01  -1.615831e+01  -1.534451e-21   8.690790e+05   8.270635e-40   0.000000e+00   0.000000e+00
      952000   9.519990e-06   3.302197e+00   4.910373e+00   2.671046e+01   3.363648e+05  -2.896039e+05   7.471858e+05  -1.133467e+01  -1.316482e+01   1.539130e-21   8.690790e+05   5.490177e-40   0.000000e+00   0.000000e+00
      960000   9.599990e-06   3.329106e+00   4.887204e+00   2.677023e+01   3.363648e+05  -2.896039e+05   7.471858e+05  -1.200279e+01  -1.394083e+01  -6.449456e-21   8.690790e+05   6.156688e-40   0.000000e+00   0.000000e+00
      968000   9.679990e-06   3.356015e+00   4.864036e+00   2.683001e+01   3.363648e+05  -2.896039e+05   7.471858e+05  -1.256525e+01  -1.459410e+01   8.169873e-21   8.690790e+05   6.747523e-40   0.000000e+00   0.000000e+00
      976000   9.759990e-06   3.382924e+00   4.840868e+00   2.688978e+01   3.363648e+05  -2.896039e+05   7.471858e+05  -1.096922e+01  -1.274036e+01   1.282589e-20   8.690790e+05   5.142276e-40   0.000000e+00   0.000000e+00
      984000   9.839990e-06   3.409833e+00   4.817700e+00   2.694955e+01   3.363648e+05  -2.896039e+05   7.471858e+05  -1.131068e+01  -1.313696e+01   7.502401e-21   8.690790e+05   5.466992e-40   0.000000e+00   0.000000e+00
      992000   9.919990e-06   3.436743e+00   4.794531e+00   2.700933e+01   3.363648e+05  -2.896039e+05   7.471858e+05  -9.267178e+00  -1.076350e+01   4.399675e-21   8.690790e+05   3.670474e-40   0.000000e+00   0.000000e+00
     1000000   9.999990e-06   3.463652e+00   4.771363e+00   2.706910e+01   3.363648e+05  -2.896039e+05   7.471858e+05  -5.957669e+00  -6.919624e+00   3.499170e-21   8.690790e+05   1.517055e-40   0.000000e+00   0.000000e+00
     1008000   1.007999e-05   3.490561e+00   4.748195e+00   2.712888e+01   3.363648e+05  -2.896039e+05   7.471858e+05  -9.811646e+00  -1.139588e+01  -5.132216e-21   8.690790e+05   4.113895e-40   0.000000e+00   0.000000e+00
     1016000   1.015999e-05   3.517470e+00   4.725026e+00   2.718865e+01   3.363648e+05  -2.896039e+05   7.471858e+05  -7.595104e+00  -8.821448e+00   1.593802e-21   8.690790e+05   2.465409e-40   0.000000e+00   0.000000e+00
     1024000   1.023999e-05   3.544379e+00   4.701858e+00   2.724843e+01   3.363648e+05  -2.896039e+05   7.471858e+05  -8.641981e+00  -1.003736e+01  -2.603462e-21   8.690790e+05   3.191504e-40   0.000000e+00   0.000000e+00
     1032000   1.031999e-05   3.571289e+00   4.678690e+00   2.730820e+01   3.363648e+05  -2.896039e+05   7.471858e+05  -1.182219e+01  -1.373106e+01   1.594871e-21   8.690790e+05   5.972600e-40   0.000000e+00   0.000000e+00
     1040000   1.039999e-05   3.598198e+00   4.655521e+00   2.736798e+01   3.363648e+05  -2.896039e+05   7.471858e+05  -1.406420e+01  -1.633508e+01   1.183266e-20   8.690790e+05   8.452809e-40   0.000000e+00   0.000000e+00
     1048000   1.047999e-05   3.625107e+00   4.632353e+00   2.742775e+01   3.363648e+05  -2.896039e+05   7.471858e+05  -9.883389e+00  -1.147921e+01   4.912240e-21   8.690790e+05   4.173944e-40   0.000000e+00   0.000000e+00
     1056000   1.055999e-05   3.652016e+00   4.609185e+00   2.748753e+01   3.363648e+05  -2.896039e+05   7.471858e+05  -1.475253e+01  -1.713455e+01  -1.168960e-20   8.690790e+05   9.300060e-40   0.000000e+00   0.000000e+00
     1064000   1.063999e-05   3.678925e+00   4.586016e+00   2.754730e+01   3.363648e+05  -2.896039e+05   7.471858e+05  -8.635795e+00  -1.003017e+01  -3.683537e-21   8.690790e+05   3.187383e-40   0.000000e+00   0.000000e+00
     1072000   1.071999e-05   3.705834e+00   4.562848e+00   2.760708e+01   3.363648e+05  -2.896039e+05   7.471858e+05  -9.442186e+00  -1.096677e+01  -2.400053e-21   8.690790e+05   3.810060e-40   0.000000e+00   0.000000e+00
     1080000   1.079999e-05   3.732744e+00   4.539680e+00   2.766685e+01   3.363648e+05  -2.896039e+05   7.471858e+05  -9.580660e+00  -1.112760e+01   6.406202e-21   8.690790e+05   3.922632e-40   0.000000e+00   0.000000e+00
     1088000   1.087999e-05   3.759653e+00   4.516511e+00   2.772663e+01   3.363648e+05  -2.896039e+05   7.471858e+05  -1.079521e+01  -1.253825e+01  -2.938758e-21   8.690790e+05   4.980106e-40   0.000000e+00   0.000000e+00
     1096000   1.095999e-05   3.786562e+00   4.493343e+00   2.778640e+01   3.363648e+05  -2.896039e+05   7.471858e+05  -2.507677e+00  -2.912580e+00  -2.405245e-21   8.690790e+05   2.687852e-41   0.000000e+00   0.000000e+00
     1104000   1.103999e-05   3.813471e+00   4.470175e+00   2.784618e+01   3.363648e+05  -2.896039e+05   7.471858e+05  -1.132427e+01  -1.315274e+01   6.623672e-21   8.690790e+05   5.480456e-40   0.000000e+00   0.000000e+00
     1112000   1.111999e-05   3.840380e+00   4.447007e+00   2.790595e+01   3.363648e+05  -2.896039e+05   7.471858e+05  -1.134507e+01  -1.317690e+01  -3.027479e-21   8.690790e+05   5.500449e-40   0.000000e+00   0.000000e+00
     1120000   1.119999e-05   3.867290e+00   4.423838e+00   2.796573e+01   3.363648e+05  -2.896039e+05   7.471858e+05  -1.182476e+01  -1.373405e+01  -6.720432e-21   8.690790e+05   5.975423e-40   0.000000e+00   0.000000e+00
     1128000   1.127999e-05   3.894199e+00   4.400670e+00   2.802550e+01   3.363648e+05  -2.896039e+05   7.471858e+05  -1.174319e+01  -1.363931e+01  -1.372363e-21   8.690790e+05   5.893432e-40   0.000000e+00   0.000000e+00
     1136000   1.135999e-05   3.921108e+00   4.377502e+00   2.808528e+01   3.363648e+05  -2.896039e+05   7.471858e+05  -1.146035e+01  -1.331080e+01  -3.524101e-22   8.690790e+05   5.613006e-40   0.000000e+00   0.000000e+00
     1144000   1.143999e-05   3.948017e+00   4.354333e+00   2.814505e+01   3.363648e+05  -2.896039e+05   7.471858e+05  -9.105208e+00  -1.057538e+01   2.821686e-21   8.690790e+05   3.543075e-40   0.000000e+00   0.000000e+00
     1152000   1.151999e-05   3.974926e+00   4.331165e+00   2.820483e+01   3.363648e+05  -2.896039e+05   7.471858e+05  -8.275375e+00  -9.611559e+00   2.271295e-21   8.690790e+05   2.926708e-40   0.000000e+00   0.000000e+00
     1160000   1.159999e-05   4.001836e+00   4.307997e+00   2.826460e+01   3.363648e+05  -2.896039e+05   7.471858e+05  -8.096947e+00  -9.404321e+00   1.206875e-21   8.690790e+05   2.801823e-40   0.000000e+00   0.000000e+00
     1168000   1.167999e-05   4.028745e+00   4.284828e+00   2.832438e+01   3.363648e+05  -2.896039e+05   7.471858e+05  -6.997885e+00  -8.127799e+00   1.791691e-21   8.690790e+05   2.092776e-40   0.000000e+00   0.000000e+00
     1176000   1.175999e-05   4.055654e+00   4.261660e+00   2.838415e+01   3.363648e+05  -2.896039e+05   7.471858e+05  -6.939116e+00  -8.059541e+00   6.558571e-22   8.690790e+05   2.057774e-40   0.000000e+00   0.000000e+00
     1184000   1.183999e-05   4.082563e+00   4.238492e+00   2.844393e+01   3.363648e+05  -2.896039e+05   7.471858e+05  -5.737847e+00  -6.664309e+00  -9.520005e-22   8.690790e+05   1.407039e-40   0.000000e+00   0.000000e+00
     1192000   1.191999e-05   4.109472e+00   4.215323e+00   2.850370e+01   3.363648e+05  -2.896039e+05   7.471858e+05  -4.655576e+00  -5.407289e+00   3.874756e-21   8.690790e+05   9.260487e-41   0.000000e+00   0.000000e+00
     1200000   1.199999e-05   4.136381e+00   4.192155e+00   2.856348e+01   3.363648e+05  -2.896039e+05   7.471858e+05  -2.750936e+00  -3.195115e+00   2.378851e-22   8.690790e+05   3.234002e-41   0.000000e+00   0.000000e+00
     1208000   1.207999e-05   4.163291e+00   4.168987e+00   2.862325e+01   3.363648e+05  -2.896039e+05   7.471858e+05  -6.338953e+00  -7.362473e+00   6.204966e-21   8.690790e+05   1.717252e-40   0.000000e+00   0.000000e+00
     1216000   1.215999e-05   4.190200e+00   4.145819e+00   2.868303e+01   3.363648e+05  -2.896039e+05   7.471858e+05  -5.723867e+00  -6.648072e+00  -5.451639e-22   8.690790e+05   1.400165e-40   0.000000e+00   0.000000e+00
     1224000   1.223999e-05   4.217109e+00   4.122650e+00   2.874280e+01   3.363648e+05  -2.896039e+05   7.471858e+05  -6.917073e+00  -8.033939e+00   4.226796e-23   8.690790e+05   2.044705e-40   0.000000e+00   0.000000e+00
     1232000   1.231999e-05   4.244018e+00   4.099482e+00   2.880258e+01   3.363648e+05  -2.896039e+05   7.471858e+05  -5.434112e+00  -6.311531e+00   1.260975e-21   8.690790e+05   1.262043e-40   0.000000e+00   0.000000e+00
     1240000   1.239999e-05   4.270927e+00   4.076314e+00   2.886235e+01   3.363648e+05  -2.896039e+05   7.471858e+05  -3.990006e+00  -4.634253e+00   3.157808e-21   8.690790e+05   6.804164e-41   0.000000e+00   0.000000e+00
     1248000   1.247999e-05   4.297837e+00   4.053145e+00   2.892213e+01   3.363648e+05  -2.896039e+05   7.471858e+05  -5.110099e+00  -5.935201e+00  -1.725042e-21   8.690790e+05   1.115854e-40   0.000000e+00   0.000000e+00
     1256000   1.255999e-05   4.324746e+00   4.029977e+00   2.898190e+01   3.363648e+05  -2.896039e+05   7.471858e+05  -5.182228e+00  -6.018977e+00  -5.220229e-21   8.690790e+05   1.147664e-40   0.000000e+00   0.000000e+00
     1264000   1.263999e-05   4.351655e+00   4.006809e+00   2.904168e+01   3.363648e+05  -2.896039e+05   7.471858e+05  -1.036973e+01  -1.204408e+01  -8.276794e-21   8.690790e+05   4.595158e-40   0.000000e+00   0.000000e+00
     1272000   1.271999e-05   4.378564e+00   3.983640e+00   2.910145e+01   3.363648e+05  -2.896039e+05   7.471858e+05  -6.754361e+00  -7.844954e+00   2.283756e-21   8.690790e+05   1.949631e-40   0.000000e+00   0.000000e+00
     1280000   1.279999e-05   4.405473e+00   3.960472e+00   2.916122e+01   3.363648e+05  -2.896039e+05   7.471858e+05  -9.195709e+00  -1.068049e+01  -2.560564e-21   8.690790e+05   3.613591e-40   0.000000e+00   0.000000e+00
     1288000   1.287999e-05   4.432382e+00   3.937304e+00   2.922100e+01   3.363648e+05  -2.896039e+05   7.471858e+05  -1.204832e+01  -1.399371e+01  -3.456074e-21   8.690790e+05   6.203710e-40   0.000000e+00   0.000000e+00
     1296000   1.295999e-05   4.459292e+00   3.914135e+00   2.928077e+01   3.363648e+05  -2.896039e+05   7.471858e+05  -1.093713e+01  -1.270310e+01  -1.103697e-20   8.690790e+05   5.112182e-40   0.000000e+00   0.000000e+00
     1304000   1.303999e-05   4.486201e+00   3.890967e+00   2.934055e+01   3.363648e+05  -2.896039e+05   7.471858e+05  -1.447255e+01  -1.680937e+01  -6.915153e-21   8.690790e+05   8.950919e-40   0.000000e+00   0.000000e+00
     1312000   1.311999e-05   4.513110e+00   3.867799e+00   2.940032e+01   3.363648e+05  -2.896039e+05   7.471858e+05  -1.128276e+01  -1.310453e+01  -6.591109e-21   8.690790e+05   5.440469e-40   0.000000e+00   0.000000e+00
     1320000   1.319999e-05   4.540019e+00   3.844630e+00   2.946010e+01   3.363648e+05  -2.896039e+05   7.471858e+05  -9.452420e+00  -1.097866e+01  -2.211435e-21   8.690790e+05   3.818523e-40   0.000000e+00   0.000000e+00
     1328000   1.327999e-05   4.566928e+00   3.821462e+00   2.951987e+01   3.363648e+05  -2.896039e+05   7.471858e+05  -6.860275e+00  -7.967970e+00  -1.256403e-21   8.690790e+05   2.011384e-40   0.000000e+00   0.000000e+00
     1336000   1.335999e-05   4.593838e+00   3.798294e+00   2.957965e+01   3.363648e+05  -2.896039e+05   7.471858e+05  -1.793044e+01  -2.082558e+01  -1.357987e-20   8.690790e+05   1.373943e-39   0.000000e+00   0.000000e+00
     1344000   1.343999e-05   4.620747e+00   3.775126e+00   2.963942e+01   3.363648e+05  -2.896039e+05   7.471858e+05  -4.926567e+00  -5.722035e+00  -8.121397e-22   8.690790e+05   1.037272e-40   0.000000e+00   0.000000e+00
     1352000   1.351999e-05   4.647656e+00   3.751957e+00   2.969920e+01   3.363648e+05  -2.896039e+05   7.471858e+05  -4.226607e+00  -4.909056e+00   2.514889e-21   8.690790e+05   7.634665e-41   0.000000e+00   0.000000e+00
     1360000   1.359999e-05   4.674565e+00   3.728789e+00   2.975897e+01   3.363648e+05  -2.896039e+05   7.471858e+05  -6.319264e+00  -8.645144e+00  -5.060179e-01   8.690790e+05   2.090748e-40   0.000000e+00   0.000000e+00
     1368000   1.367999e-05   4.701474e+00   3.705621e+00   2.981875e+01   3.363648e+05  -2.896039e+05   7.471858e+05   2.636050e+00  -1.286800e+01  -6.174230e+00   8.690790e+05   3.832516e-40   0.000000e+00   0.000000e+00
     1376000   1.375999e-05   4.728383e+00   3.682452e+00   2.987852e+01   3.363648e+05  -2.896039e+05   7.471858e+05   1.053955e+01  -2.532840e+01  -1.456175e+01   8.690790e+05   1.754904e-39   0.000000e+00   0.000000e+00
     1384000   1.383999e-05   4.755293e+00   3.659284e+00   2.993830e+01   3.363648e+05  -2.896039e+05   7.471858e+05  -9.744378e+00  -2.311718e+01  -4.573374e+00   8.690790e+05   1.182880e-39   0.000000e+00   0.000000e+00
     1392000   1.391999e-05   4.782202e+00   3.636116e+00   2.999807e+01   3.363648e+05  -2.896039e+05   7.471858e+05  -7.002232e+00  -3.835219e+01  -1.171280e+01   8.690790e+05   3.014493e-39   0.000000e+00   0.000000e+00
     1400000   1.399999e-05   4.809111e+00   3.612947e+00   3.005785e+01   3.363648e+05  -2.896039e+05   7.471858e+05  -3.852277e+00  -1.107853e+01  -2.559758e+00   8.690790e+05   2.622561e-40   0.000000e+00   0.000000e+00
     1408000   1.407999e-05   4.836020e+00   3.589779e+00   3.011762e+01   3.363648e+05  -2.896039e+05   7.471858e+05   1.324910e+00  -7.109966e+00  -3.352215e+00   8.690790e+05   1.156181e-40   0.000000e+00   0.000000e+00
     1416000   1.415999e-05   4.862929e+00   3.566611e+00   3.017740e+01   3.363648e+05  -2.896039e+05   7.471858e+05   2.620602e+00  -3.617585e+00  -2.581881e+00   8.690790e+05   4.843602e-41   0.000000e+00   0.000000e+00
     1424000   1.423999e-05   4.889839e+00   3.543442e+00   3.023717e+01   3.363648e+05  -2.896039e+05   7.471858e+05  -1.569201e+01  -1.822573e+01  -2.791835e-21   8.690790e+05   1.052247e-39   0.000000e+00   0.000000e+00
     1432000   1.431999e-05   4.916748e+00   3.520274e+00   3.029695e+01   3.363648e+05  -2.896039e+05   7.471858e+05  -2.324982e+00  -2.700386e+00  -3.454928e-22   8.690790e+05   2.311702e-41   0.000000e+00   0.000000e+00
     1440000   1.439999e-05   4.943657e+00   3.497106e+00   3.035672e+01   3.363648e+05  -2.896039e+05   7.471858e+05   4.703273e-01   5.462687e-01  -4.870651e-22   8.690790e+05   9.432831e-43   0.000000e+00   0.000000e+00
     1448000   1.447999e-05   4.970566e+00   3.473937e+00   3.041650e+01   3.363648e+05  -2.896039e+05   7.471858e+05  -1.983508e+01  -2.303776e+01   3.713108e-21   8.690790e+05   1.681263e-39   0.000000e+00   0.000000e+00
     1456000   1.455999e-05   4.997475e+00   3.450769e+00   3.047627e+01   3.363648e+05  -2.896039e+05   7.471858e+05  -2.362854e+01  -2.744372e+01  -1.388099e-20   8.690790e+05   2.385858e-39   0.000000e+00   0.000000e+00
     1464000   1.463999e-05   5.024384e+00   3.427601e+00   3.053605e+01   3.363648e+05  -2.896039e+05   7.471858e+05  -8.578129e+00  -9.963197e+00  -6.048920e-22   8.690790e+05   3.144197e-40   0.000000e+00   0.000000e+00
     1472000   1.471999e-05   5.051294e+00   3.404433e+00   3.059582e+01   3.363648e+05  -2.896039e+05   7.471858e+05  -1.360650e+01  -1.580347e+01  -2.982991e-22   8.690790e+05   7.911170e-40   0.000000e+00   0.000000e+00
     1480000   1.479999e-05   5.078203e+00   3.381264e+00   3.065560e+01   3.363648e+05  -2.896039e+05   7.471858e+05  -1.173346e+01  -1.362800e+01  -2.324867e-21   8.690790e+05   5.883726e-40   0.000000e+00   0.000000e+00
     1488000   1.487999e-05   5.105112e+00   3.358096e+00   3.071537e+01   3.363648e+05  -2.896039e+05   7.471858e+05  -8.188740e+00  -9.510935e+00  -5.640734e-21   8.690790e+05   2.865973e-40   0.000000e+00   0.000000e+00
     1496000   1.495999e-05   5.132021e+00   3.334928e+00   3.077515e+01   3.363648e+05  -2.896039e+05   7.471858e+05  -4.443712e+00  -5.161216e+00  -8.731823e-22   8.690790e+05   8.440566e-41   0.000000e+00   0.000000e+00
     1504000   1.503999e-05   5.158930e+00   3.311759e+00   3.083492e+01   3.363648e+05  -2.896039e+05   7.471858e+05  -1.314815e+01  -1.527112e+01  -8.152496e-21   8.690790e+05   7.387138e-40   0.000000e+00   0.000000e+00
     1512000   1.511999e-05   5.185840e+00   3.288591e+00   3.089470e+01   3.363648e+05  -2.896039e+05   7.471858e+05   8.613490e-01   1.000427e+00  -2.646164e-22   8.690790e+05   3.167530e-42   0.000000e+00   0.000000e+00
     1520000   1.519999e-05   5.212749e+00   3.265423e+00   3.095447e+01   3.363648e+05  -2.896039e+05   7.471858e+05  -5.608071e+00  -6.513579e+00  -2.339659e-21   8.690790e+05   1.344315e-40   0.000000e+00   0.000000e+00
     1528000   1.527999e-05   5.239658e+00   3.242254e+00   3.101425e+01   3.363648e+05  -2.896039e+05   7.471858e+05  -1.127460e+01  -1.309506e+01  -5.295413e-21   8.690790e+05   5.431856e-40   0.000000e+00   0.000000e+00
     1536000   1.535999e-05   5.266567e+00   3.219086e+00   3.107402e+01   3.363648e+05  -2.896039e+05   7.471858e+05  -1.569609e+01  -1.823046e+01   1.206349e-21   8.690790e+05   1.052788e-39   0.000000e+00   0.000000e+00
     1544000   1.543999e-05   5.293476e+00   3.195918e+00   3.113380e+01   3.363648e+05  -2.896039e+05   7.471858e+05  -8.679136e+00  -1.008051e+01   4.302730e-21   8.690790e+05   3.219454e-40   0.000000e+00   0.000000e+00
     1552000   1.551999e-05   5.320386e+00   3.172749e+00   3.119357e+01   3.363648e+05  -2.896039e+05   7.471858e+05  -1.606679e+01  -1.866102e+01  -8.429116e-21   8.690790e+05   1.103109e-39   0.000000e+00   0.000000e+00
     1560000   1.559999e-05   5.347295e+00   3.149581e+00   3.125335e+01   3.363648e+05  -2.896039e+05   7.471858e+05  -7.121736e+00  -8.271647e+00   4.439081e-22   8.690790e+05   2.167750e-40   0.000000e+00   0.000000e+00
     1568000   1.567999e-05   5.374204e+00   3.126413e+00   3.131312e+01   3.363648e+05  -2.896039e+05   7.471858e+05  -1.182672e+01  -1.373632e+01  -5.485884e-21   8.690790e+05   5.976937e-40   0.000000e+00   0.000000e+00
     1576000   1.575999e-05   5.401113e+00   3.103244e+00   3.137289e+01   3.363648e+05  -2.896039e+05   7.471858e+05  -1.142796e+01  -1.327318e+01  -3.208398e-21   8.690790e+05   5.581289e-40   0.000000e+00   0.000000e+00
     1584000   1.583999e-05   5.428022e+00   3.080076e+00   3.143267e+01   3.363648e+05  -2.896039e+05   7.471858e+05  -7.270162e+00  -8.444039e+00   5.118121e-22   8.690790e+05   2.259243e-40   0.000000e+00   0.000000e+00
     1592000   1.591999e-05   5.454931e+00   3.056908e+00   3.149244e+01   3.363648e+05  -2.896039e+05   7.471858e+05  -1.479193e+00  -1.718031e+00  -3.802564e-23   8.690790e+05   9.359723e-42   0.000000e+00   0.000000e+00
     1600000   1.599999e-05   5.481841e+00   3.033740e+00   3.155222e+01   3.363648e+05  -2.896039e+05   7.471858e+05  -1.064060e+01  -1.235868e+01   5.498143e-21   8.690790e+05   4.838296e-40   0.000000e+00   0.000000e+00
     1608000   1.607999e-05   5.508750e+00   3.010571e+00   3.161199e+01   3.363648e+05  -2.896039e+05   7.471858e+05  -6.027342e+00  -7.000547e+00  -1.286775e-21   8.690790e+05   1.552531e-40   0.000000e+00   0.000000e+00
     1616000   1.615999e-05   5.535659e+00   2.987403e+00   3.167177e+01   3.363648e+05  -2.896039e+05   7.471858e+05  -2.797521e+00  -3.249223e+00   2.046447e-21   8.690790e+05   3.344745e-41   0.000000e+00   0.000000e+00
     1624000   1.623999e-05   5.562568e+00   2.964235e+00   3.173154e+01   3.363648e+05  -2.896039e+05   7.471858e+05  -3.255442e+00  -3.781082e+00  -1.361175e-21   8.690790e+05   4.528977e-41   0.000000e+00   0.000000e+00
     1632000   1.631999e-05   5.589477e+00   2.941066e+00   3.179132e+01   3.363648e+05  -2.896039e+05   7.471858e+05  -3.502184e+00  -4.067664e+00  -9.064639e-22   8.690790e+05   5.241535e-41   0.000000e+00   0.000000e+00
     1640000   1.639999e-05   5.616387e+00   2.917898e+00   3.185109e+01   3.363648e+05  -2.896039e+05   7.471858e+05  -5.955835e+00  -6.917494e+00  -2.539778e-21   8.690790e+05   1.516015e-40   0.000000e+00   0.000000e+00
     1648000   1.647999e-05   5.643296e+00   2.894730e+00   3.191087e+01   3.363648e+05  -2.896039e+05   7.471858e+05  -2.983554e+00  -3.465294e+00  -1.764473e-21   8.690790e+05   3.804429e-41   0.000000e+00   0.000000e+00
     1656000   1.655999e-05   5.670205e+00   2.871561e+00   3.197064e+01   3.363648e+05  -2.896039e+05   7.471858e+05  -2.068112e+00  -2.402040e+00   4.986524e-22   8.690790e+05   1.828035e-41   0.000000e+00   0.000000e+00
     1664000   1.663999e-05   5.697114e+00   2.848393e+00   3.203042e+01   3.363648e+05  -2.896039e+05   7.471858e+05  -8.392392e+00  -9.747470e+00   1.252424e-21   8.690790e+05   3.009793e-40   0.000000e+00   0.000000e+00
     1672000   1.671999e-05   5.724023e+00   2.825225e+00   3.209019e+01   3.363648e+05  -2.896039e+05   7.471858e+05  -7.229304e+00  -8.396584e+00   1.136613e-21   8.690790e+05   2.233472e-40   0.000000e+00   0.000000e+00
     1680000   1.679999e-05   5.750932e+00   2.802056e+00   3.214997e+01   3.363648e+05  -2.896039e+05   7.471858e+05  -7.486130e+00  -8.694878e+00  -7.853427e-22   8.690790e+05   2.394849e-40   0.000000e+00   0.000000e+00
     1688000   1.687999e-05   5.777842e+00   2.778888e+00   3.220974e+01   3.363648e+05  -2.896039e+05   7.471858e+05  -7.248515e+00  -8.418897e+00  -6.897325e-21   8.690790e+05   2.245421e-40   0.000000e+00   0.000000e+00
     1696000   1.695999e-05   5.804751e+00   2.755720e+00   3.226952e+01   3.363648e+05  -2.896039e+05   7.471858e+05  -9.601544e+00  -1.115186e+01  -4.449308e-21   8.690790e+05   3.939531e-40   0.000000e+00   0.000000e+00
     1704000   1.703999e-05   5.831660e+00   2.732552e+00   3.232929e+01   3.363648e+05  -2.896039e+05   7.471858e+05  -9.388843e+00  -1.090481e+01  -2.564638e-21   8.690790e+05   3.766905e-40   0.000000e+00   0.000000e+00
     1712000   1.711999e-05   5.858569e+00   2.709383e+00   3.238907e+01   3.363648e+05  -2.896039e+05   7.471858e+05  -1.179527e+01  -1.369979e+01   1.588886e-21   8.690790e+05   5.945411e-40   0.000000e+00   0.000000e+00
     1720000   1.719999e-05   5.885478e+00   2.686215e+00   3.244884e+01   3.363648e+05  -2.896039e+05   7.471858e+05   3.580084e-01   4.158142e-01  -7.312228e-23   8.690790e+05   5.460028e-43   0.000000e+00   0.000000e+00
     1728000   1.727999e-05   5.912388e+00   2.663047e+00   3.250862e+01   3.363648e+05  -2.896039e+05   7.471858e+05  -1.325091e+01  -1.539047e+01  -7.708400e-21   8.690790e+05   7.504253e-40   0.000000e+00   0.000000e+00
     1736000   1.735999e-05   5.939297e+00   2.639878e+00   3.256839e+01   3.363648e+05  -2.896039e+05   7.471858e+05  -9.871230e+00  -1.146509e+01   7.207721e-21   8.690790e+05   4.164550e-40   0.000000e+00   0.000000e+00
     1744000   1.743999e-05   5.966206e+00   2.616710e+00   3.262817e+01   3.363648e+05  -2.896039e+05   7.471858e+05  -1.471624e+01  -1.709240e+01  -1.628319e-21   8.690790e+05   9.254741e-40   0.000000e+00   0.000000e+00
     1752000   1.751999e-05   5.993115e+00   2.593542e+00   3.268794e+01   3.363648e+05  -2.896039e+05   7.471858e+05   4.190436e+00   4.867045e+00   6.162115e-22   8.690790e+05   7.502943e-41   0.000000e+00   0.000000e+00
     1760000   1.759999e-05   6.020024e+00   2.570373e+00   3.274772e+01   3.363648e+05  -2.896039e+05   7.471858e+05  -7.914034e+00  -9.191873e+00   3.406300e-21   8.690790e+05   2.676911e-40   0.000000e+00   0.000000e+00
     1768000   1.767999e-05   6.046933e+00   2.547205e+00   3.280749e+01   3.363648e+05  -2.896039e+05   7.471858e+05  -1.340705e+01  -1.557182e+01  -2.496007e-21   8.690790e+05   7.681268e-40   0.000000e+00   0.000000e+00
     1776000   1.775999e-05   6.073843e+00   2.524037e+00   3.286727e+01   3.363648e+05  -2.896039e+05   7.471858e+05  -1.611276e+01  -1.871441e+01   4.191730e-21   8.690790e+05   1.109456e-39   0.000000e+00   0.000000e+00
     1784000   1.783999e-05   6.100752e+00   2.500868e+00   3.292704e+01   3.363648e+05  -2.896039e+05   7.471858e+05  -9.738456e+00  -1.131088e+01   2.052366e-21   8.690790e+05   4.052763e-40   0.000000e+00   0.000000e+00
     1792000   1.791999e-05   6.127661e+00   2.477700e+00   3.298682e+01   3.363648e+05  -2.896039e+05   7.471858e+05  -7.770972e+00  -9.025712e+00  -9.831176e-22   8.690790e+05   2.580788e-40   0.000000e+00   0.000000e+00
     1800000   1.799999e-05   6.154570e+00   2.454532e+00   3.304659e+01   3.363648e+05  -2.896039e+05   7.471858e+05  -1.045997e+01  -1.214889e+01  -1.042395e-22   8.690790e+05   4.675744e-40   0.000000e+00   0.000000e+00
     1808000   1.807999e-05   6.181479e+00   2.431363e+00   3.310637e+01   3.363648e+05  -2.896039e+05   7.471858e+05  -8.681009e+00  -1.008269e+01  -8.911927e-21   8.690790e+05   3.220629e-40   0.000000e+00   0.000000e+00
     1816000   1.815999e-05   6.208389e+00   2.408195e+00   3.316614e+01   3.363648e+05  -2.896039e+05   7.471858e+05  -7.260141e+00  -8.432400e+00   8.553058e-22   8.690790e+05   2.252573e-40   0.000000e+00   0.000000e+00
     1824000   1.823999e-05   6.235298e+00   2.385027e+00   3.322592e+01   3.363648e+05  -2.896039e+05   7.471858e+05  -5.712744e+00  -6.635152e+00   5.522092e-22   8.690790e+05   1.394724e-40   0.000000e+00   0.000000e+00
     1832000   1.831999e-05   6.262207e+00   2.361859e+00   3.328569e+01   3.363648e+05  -2.896039e+05   7.471858e+05  -5.156968e+00  -5.989638e+00   6.344343e-24   8.690790e+05   1.136551e-40   0.000000e+00   0.000000e+00
     1840000   1.839999e-05   6.289116e+00   2.338690e+00   3.334547e+01   3.363648e+05  -2.896039e+05   7.471858e+05  -6.750532e+00  -7.840507e+00   4.596385e-21   8.690790e+05   1.947492e-40   0.000000e+00   0.000000e+00
     1848000   1.847999e-05   6.316025e+00   2.315522e+00   3.340524e+01   3.363648e+05  -2.896039e+05   7.471858e+05  -5.659230e+00  -6.572997e+00  -1.338218e-21   8.690790e+05   1.368510e-40   0.000000e+00   0.000000e+00
     1856000   1.855999e-05   6.342935e+00   2.292354e+00   3.346501e+01   3.363648e+05  -2.896039e+05   7.471858e+05  -5.264485e+00  -6.114515e+00   6.094502e-21   8.690790e+05   1.184291e-40   0.000000e+00   0.000000e+00
     1864000   1.863999e-05   6.369844e+00   2.269185e+00   3.352479e+01   3.363648e+05  -2.896039e+05   7.471858e+05  -2.793251e+00  -3.244263e+00  -1.878127e-21   8.690790e+05   3.335423e-41   0.000000e+00   0.000000e+00
     1872000   1.871999e-05   6.396753e+00   2.246017e+00   3.358456e+01   3.363648e+05  -2.896039e+05   7.471858e+05   8.791784e-01   1.021135e+00  -1.210763e-22   8.690790e+05   3.299808e-42   0.000000e+00   0.000000e+00
     1880000   1.879999e-05   6.423662e+00   2.222849e+00   3.364434e+01   3.363648e+05  -2.896039e+05   7.471858e+05  -7.809409e+00  -9.070356e+00  -3.643631e-21   8.690790e+05   2.606056e-40   0.000000e+00   0.000000e+00
     1888000   1.887999e-05   6.450571e+00   2.199680e+00   3.370411e+01   3.363648e+05  -2.896039e+05   7.471858e+05  -1.881466e+00  -2.185257e+00  -5.899731e-22   8.690790e+05   1.513678e-41   0.000000e+00   0.000000e+00
     1896000   1.895999e-05   6.477480e+00   2.176512e+00   3.376389e+01   3.363648e+05  -2.896039e+05   7.471858e+05   2.492639e+00   2.895113e+00   1.806587e-23   8.690790e+05   2.654095e-41   0.000000e+00   0.000000e+00
     1904000   1.903999e-05   6.504390e+00   2.153344e+00   3.382366e+01   3.363648e+05  -2.896039e+05   7.471858e+05  -1.052141e+01  -1.222025e+01  -2.293680e-21   8.690790e+05   4.730904e-40   0.000000e+00   0.000000e+00
     1912000   1.911999e-05   6.531299e+00   2.130175e+00   3.388344e+01   3.363648e+05  -2.896039e+05   7.471858e+05  -9.776772e+00  -1.135538e+01  -5.862602e-21   8.690790e+05   4.084957e-40   0.000000e+00   0.000000e+00
     1920000   1.919999e-05   6.558208e+00   2.107007e+00   3.394321e+01   3.363648e+05  -2.896039e+05   7.471858e+05  -6.672569e+00  -7.749956e+00  -1.109225e-21   8.690790e+05   1.902835e-40   0.000000e+00   0.000000e+00
     1928000   1.927999e-05   6.585117e+00   2.083839e+00   3.400299e+01   3.363648e+05  -2.896039e+05   7.471858e+05  -1.094493e+01  -1.271216e+01  -7.884815e-21   8.690790e+05   5.118761e-40   0.000000e+00   0.000000e+00
     1936000   1.935999e-05   6.612026e+00   2.060670e+00   3.406276e+01   3.363648e+05  -2.896039e+05   7.471858e+05  -6.331340e+00  -7.353630e+00  -6.641938e-21   8.690790e+05   1.713290e-40   0.000000e+00   0.000000e+00
     1944000   1.943999e-05   6.638936e+00   2.037502e+00   3.412254e+01   3.363648e+05  -2.896039e+05   7.471858e+05  -7.836043e+00  -9.101290e+00  -2.312582e-22   8.690790e+05   2.623935e-40   0.000000e+00   0.000000e+00
     1952000   1.951999e-05   6.665845e+00   2.014334e+00   3.418231e+01   3.363648e+05  -2.896039e+05   7.471858e+05  -9.921434e+00  -1.152340e+01  -5.032275e-21   8.690790e+05   4.206437e-40   0.000000e+00   0.000000e+00
     1960000   1.959999e-05   6.692754e+00   1.991166e+00   3.424209e+01   3.363648e+05  -2.896039e+05   7.471858e+05  -6.149960e+00  -7.142963e+00   6.438125e-22   8.690790e+05   1.616430e-40   0.000000e+00   0.000000e+00
     1968000   1.967999e-05   6.719663e+00   1.967997e+00   3.430186e+01   3.363648e+05  -2.896039e+05   7.471858e+05  -8.529588e+00  -9.906818e+00   1.022072e-20   8.690790e+05   3.108833e-40   0.000000e+00   0.000000e+00
     1976000   1.975999e-05   6.746572e+00   1.944829e+00   3.436164e+01   3.363648e+05  -2.896039e+05   7.471858e+05  -1.222670e+01  -1.420088e+01  -9.263023e-21   8.690790e+05   6.388134e-40   0.000000e+00   0.000000e+00
     1984000   1.983999e-05   6.773481e+00   1.921661e+00   3.442141e+01   3.363648e+05  -2.896039e+05   7.471858e+05  -4.420601e+00  -5.134373e+00   7.184617e-22   8.690790e+05   8.352220e-41   0.000000e+00   0.000000e+00
     1992000   1.991999e-05   6.800391e+00   1.898492e+00   3.448119e+01   3.363648e+05  -2.896039e+05   7.471858e+05  -4.510218e-01  -5.238461e-01   4.429881e-23   8.690790e+05   8.718447e-43   0.000000e+00   0.000000e+00
     2000000   1.999999e-05   6.827300e+00   1.875324e+00   3.454096e+01   3.363648e+05  -2.896039e+05   7.471858e+05  -1.261935e+01  -1.465693e+01   1.245692e-20   8.690790e+05   6.805134e-40   0.000000e+00   0.000000e+00
     2008000   2.007999e-05   6.854209e+00   1.852156e+00   3.460074e+01   3.363648e+05  -2.896039e+05   7.471858e+05  -3.988779e+00  -4.632828e+00  -2.758748e-21   8.690790e+05   6.801590e-41   0.000000e+00   0.000000e+00
     2016000   2.015999e-05   6.881118e+00   1.828987e+00   3.466051e+01   3.363648e+05  -2.896039e+05   7.471858e+05   1.231358e+00   1.430179e+00   5.609787e-22   8.690790e+05   6.472861e-42   0.000000e+00   0.000000e+00
     2024000   2.023999e-05   6.908027e+00   1.805819e+00   3.472029e+01   3.363648e+05  -2.896039e+05   7.471858e+05  -5.614251e+00  -6.520757e+00  -2.446049e-21   8.690790e+05   1.347132e-40   0.000000e+00   0.000000e+00
     2032000   2.031999e-05   6.934937e+00   1.782651e+00   3.478006e+01   3.363648e+05  -2.896039e+05   7.471858e+05  -6.004357e+00  -6.973850e+00  -1.092150e-21   8.690790e+05   1.540661e-40   0.000000e+00   0.000000e+00
     2040000   2.039999e-05   6.961846e+00   1.759482e+00   3.483984e+01   3.363648e+05  -2.896039e+05   7.471858e+05  -6.030405e-01  -7.004105e-01   6.161874e-23   8.690790e+05   1.555054e-42   0.000000e+00   0.000000e+00
     2048000   2.047999e-05   6.988755e+00   1.736314e+00   3.489961e+01   3.363648e+05  -2.896039e+05   7.471858e+05   8.637898e-01   1.003262e+00  -3.377584e-22   8.690790e+05   3.187279e-42   0.000000e+00   0.000000e+00
     2056000   2.055999e-05   7.015664e+00   1.713146e+00   3.495939e+01   3.363648e+05  -2.896039e+05   7.471858e+05  -4.728274e+00  -5.491725e+00  -2.718482e-23   8.690790e+05   9.554660e-41   0.000000e+00   0.000000e+00
     2064000   2.063999e-05   7.042573e+00   1.689977e+00   3.501916e+01   3.363648e+05  -2.896039e+05   7.471858e+05  -6.129242e+00  -7.118900e+00   1.856295e-21   8.690790e+05   1.605246e-40   0.000000e+00   0.000000e+00
     2072000   2.071999e-05   7.069482e+00   1.666809e+00   3.507894e+01   3.363648e+05  -2.896039e+05   7.471858e+05  -9.531553e+00  -1.107057e+01  -1.985549e-22   8.690790e+05   3.882191e-40   0.000000e+00   0.000000e+00
     2080000   2.079999e-05   7.096392e+00   1.643641e+00   3.513871e+01   3.363648e+05  -2.896039e+05   7.471858e+05  -2.890994e+00  -3.357788e+00  -2.059790e-21   8.690790e+05   3.572053e-41   0.000000e+00   0.000000e+00
     2088000   2.087999e-05   7.123301e+00   1.620473e+00   3.519849e+01   3.363648e+05  -2.896039e+05   7.471858e+05  -1.093388e+01  -1.269933e+01  -3.281674e-21   8.690790e+05   5.108619e-40   0.000000e+00   0.000000e+00
     2096000   2.095999e-05   7.150210e+00   1.597304e+00   3.525826e+01   3.363648e+05  -2.896039e+05   7.471858e+05  -1.890129e+01  -2.195319e+01  -1.599919e-21   8.690790e+05   1.526682e-39   0.000000e+00   0.000000e+00
     2104000   2.103999e-05   7.177119e+00   1.574136e+00   3.531804e+01   3.363648e+05  -2.896039e+05   7.471858e+05  -9.314665e+00  -1.081866e+01   5.002205e-21   8.690790e+05   3.707951e-40   0.000000e+00   0.000000e+00
     2112000   2.111999e-05   7.204028e+00   1.550968e+00   3.537781e+01   3.363648e+05  -2.896039e+05   7.471858e+05  -1.304301e+01  -1.514900e+01   4.881557e-21   8.690790e+05   7.269908e-40   0.000000e+00   0.000000e+00
     2120000   2.119999e-05   7.230938e+00   1.527799e+00   3.543759e+01   3.363648e+05  -2.896039e+05   7.471858e+05  -8.049543e+00  -9.349263e+00   6.542929e-22   8.690790e+05   2.769320e-40   0.000000e+00   0.000000e+00
     2128000   2.127999e-05   7.257847e+00   1.504631e+00   3.549736e+01   3.363648e+05  -2.896039e+05   7.471858e+05  -4.902346e+00  -5.693903e+00   2.010392e-21   8.690790e+05   1.027226e-40   0.000000e+00   0.000000e+00
     2136000   2.135999e-05   7.284756e+00   1.481463e+00   3.555714e+01   3.363648e+05  -2.896039e+05   7.471858e+05  -1.782139e+01  -2.069892e+01  -3.941216e-21   8.690790e+05   1.357274e-39   0.000000e+00   0.000000e+00
     2144000   2.143999e-05   7.311665e+00   1.458294e+00   3.561691e+01   3.363648e+05  -2.896039e+05   7.471858e+05  -8.181742e+00  -9.502808e+00  -2.626434e-21   8.690790e+05   2.860723e-40   0.000000e+00   0.000000e+00
     2152000   2.151999e-05   7.338574e+00   1.435126e+00   3.567668e+01   3.363648e+05  -2.896039e+05   7.471858e+05  -8.486487e+00  -9.856758e+00  -5.105941e-21   8.690790e+05   3.077799e-40   0.000000e+00   0.000000e+00
     2160000   2.159999e-05   7.365484e+00   1.411958e+00   3.573646e+01   3.363648e+05  -2.896039e+05   7.471858e+05  -5.956571e+00  -6.918349e+00  -3.719602e-22   8.690790e+05   1.516405e-40   0.000000e+00   0.000000e+00
     2168000   2.167999e-05   7.392393e+00   1.388789e+00   3.579623e+01   3.363648e+05  -2.896039e+05   7.471858e+05  -2.112808e+01  -2.453953e+01   7.964093e-21   8.690790e+05   1.907688e-39   0.000000e+00   0.000000e+00
     2176000   2.175999e-05   7.419302e+00   1.365621e+00   3.585601e+01   3.363648e+05  -2.896039e+05   7.471858e+05  -8.045363e+00  -9.344408e+00  -1.710437e-22   8.690790e+05   2.766133e-40   0.000000e+00   0.000000e+00
     2184000   2.183999e-05   7.446211e+00   1.342453e+00   3.591578e+01   3.363648e+05  -2.896039e+05   7.471858e+05  -6.552863e+00  -7.610921e+00  -1.675911e-22   8.690790e+05   1.834995e-40   0.000000e+00   0.000000e+00
     2192000   2.191999e-05   7.473120e+00   1.319285e+00   3.597556e+01   3.363648e+05  -2.896039e+05   7.471858e+05  -7.496754e+00  -8.707218e+00   7.301668e-22   8.690790e+05   2.401713e-40   0.000000e+00   0.000000e+00
     2200000   2.199999e-05   7.500029e+00   1.296116e+00   3.603533e+01   3.363648e+05  -2.896039e+05   7.471858e+05  -6.768144e+00  -7.860963e+00   1.757331e-21   8.690790e+05   1.957839e-40   0.000000e+00   0.000000e+00
     2208000   2.207999e-05   7.526939e+00   1.272948e+00   3.609511e+01   3.363648e+05  -2.896039e+05   7.471858e+05  -3.688924e+00  -4.284557e+00  -6.282277e-22   8.690790e+05   5.816724e-41   0.000000e+00   0.000000e+00
     2216000   2.215999e-05   7.553848e+00   1.249780e+00   3.615488e+01   3.363648e+05  -2.896039e+05   7.471858e+05  -1.714639e+01  -1.991493e+01  -9.749462e-21   8.690790e+05   1.256311e-39   0.000000e+00   0.000000e+00
     2224000   2.223999e-05   7.580757e+00   1.226611e+00   3.621466e+01   3.363648e+05  -2.896039e+05   7.471858e+05  -6.559286e+00  -7.618381e+00   1.385187e-21   8.690790e+05   1.838876e-40   0.000000e+00   0.000000e+00
     2232000   2.231999e-05   7.607666e+00   1.203443e+00   3.627443e+01   3.363648e+05  -2.896039e+05   7.471858e+05  -1.713280e+01  -1.989915e+01   2.091797e-20   8.690790e+05   1.254243e-39   0.000000e+00   0.000000e+00
     2240000   2.239999e-05   7.634575e+00   1.180275e+00   3.633421e+01   3.363648e+05  -2.896039e+05   7.471858e+05  -1.825897e+01  -2.120716e+01   1.161807e-21   8.690790e+05   1.424835e-39   0.000000e+00   0.000000e+00
     2248000   2.247999e-05   7.661485e+00   1.157106e+00   3.639398e+01   3.363648e+05  -2.896039e+05   7.471858e+05  -1.430568e+01  -1.661555e+01  -1.128043e-21   8.690790e+05   8.746518e-40   0.000000e+00   0.000000e+00
     2256000   2.255999e-05   7.688394e+00   1.133938e+00   3.645376e+01   3.363648e+05  -2.896039e+05   7.471858e+05  -9.734999e+00  -1.130686e+01   4.763380e-21   8.690790e+05   4.049805e-40   0.000000e+00   0.000000e+00
     2264000   2.263999e-05   7.715303e+00   1.110770e+00   3.651353e+01   3.363648e+05  -2.896039e+05   7.471858e+05  -1.036653e+01  -1.204036e+01   4.410103e-21   8.690790e+05   4.593022e-40   0.000000e+00   0.000000e+00
     2272000   2.271999e-05   7.742212e+00   1.087601e+00   3.657331e+01   3.363648e+05  -2.896039e+05   7.471858e+05  -6.696193e+00  -7.777394e+00  -5.609593e-23   8.690790e+05   1.916562e-40   0.000000e+00   0.000000e+00
     2280000   2.279999e-05   7.769121e+00   1.064433e+00   3.663308e+01   3.363648e+05  -2.896039e+05   7.471858e+05  -5.295924e+00  -6.151031e+00  -2.145429e-22   8.690790e+05   1.198537e-40   0.000000e+00   0.000000e+00
     2288000   2.287999e-05   7.796030e+00   1.041265e+00   3.669286e+01   3.363648e+05  -2.896039e+05   7.471858e+05  -6.295894e+00  -7.312461e+00  -5.347929e-21   8.690790e+05   1.693893e-40   0.000000e+00   0.000000e+00
     2296000   2.295999e-05   7.822940e+00   1.018096e+00   3.675263e+01   3.363648e+05  -2.896039e+05   7.471858e+05  -5.792912e+00  -6.728265e+00  -1.060595e-21   8.690790e+05   1.433873e-40   0.000000e+00   0.000000e+00
     2304000   2.303999e-05   7.849849e+00   9.949281e-01   3.681241e+01   3.363648e+05  -2.896039e+05   7.471858e+05  -2.475059e+00  -2.874695e+00  -1.076073e-21   8.690790e+05   2.618037e-41   0.000000e+00   0.000000e+00
     2312000   2.311999e-05   7.876758e+00   9.717598e-01   3.687218e+01   3.363648e+05  -2.896039e+05   7.471858e+05  -2.101693e+00  -2.441043e+00  -1.318783e-21   8.690790e+05   1.887757e-41   0.000000e+00   0.000000e+00
     2320000   2.319999e-05   7.903667e+00   9.485915e-01   3.693196e+01   3.363648e+05  -2.896039e+05   7.471858e+05  -7.997225e+00  -9.288497e+00  -8.694199e-21   8.690790e+05   2.732936e-40   0.000000e+00   0.000000e+00
     2328000   2.327999e-05   7.930576e+00   9.254232e-01   3.699173e+01   3.363648e+05  -2.896039e+05   7.471858e+05  -1.075413e+01  -1.249055e+01  -7.129872e-22   8.690790e+05   4.942094e-40   0.000000e+00   0.000000e+00
     2336000   2.335999e-05   7.957486e+00   9.022549e-01   3.705151e+01   3.363648e+05  -2.896039e+05   7.471858e+05  -6.286810e+00  -7.301911e+00   3.013686e-21   8.690790e+05   1.689148e-40   0.000000e+00   0.000000e+00
     2344000   2.343999e-05   7.984395e+00   8.790866e-01   3.711128e+01   3.363648e+05  -2.896039e+05   7.471858e+05   5.315432e+00   6.173688e+00  -1.618686e-21   8.690790e+05   1.207335e-40   0.000000e+00   0.000000e+00
     2352000   2.351999e-05   8.011304e+00   8.559183e-01   3.717106e+01   3.363648e+05  -2.896039e+05   7.471858e+05  -1.158857e+01  -1.345971e+01   5.025374e-21   8.690790e+05   5.738594e-40   0.000000e+00   0.000000e+00
     2360000   2.359999e-05   8.038213e+00   8.327500e-01   3.723083e+01   3.363648e+05  -2.896039e+05   7.471858e+05  -2.239967e+00  -2.601644e+00   3.474535e-22   8.690790e+05   2.145998e-41   0.000000e+00   0.000000e+00
     2368000   2.367999e-05   8.065122e+00   8.095816e-01   3.729061e+01   3.363648e+05  -2.896039e+05   7.471858e+05   5.141831e+00   5.972057e+00  -3.539793e-21   8.690790e+05   1.129453e-40   0.000000e+00   0.000000e+00
     2376000   2.375999e-05   8.092031e+00   7.864133e-01   3.735038e+01   3.363648e+05  -2.896039e+05   7.471858e+05  -3.016144e+00  -3.503146e+00   1.205172e-21   8.690790e+05   3.885276e-41   0.000000e+00   0.000000e+00
     2384000   2.383999e-05   8.118941e+00   7.632450e-01   3.741016e+01   3.363648e+05  -2.896039e+05   7.471858e+05  -2.798537e+00  -3.250403e+00   5.985268e-22   8.690790e+05   3.347053e-41   0.000000e+00   0.000000e+00
     2392000   2.391999e-05   8.145850e+00   7.400767e-01   3.746993e+01   3.363648e+05  -2.896039e+05   7.471858e+05  -2.482762e+00  -2.883641e+00  -9.896613e-22   8.690790e+05   2.634342e-41   0.000000e+00   0.000000e+00
     2400000   2.399999e-05   8.172759e+00   7.169084e-01   3.752971e+01   3.363648e+05  -2.896039e+05   7.471858e+05  -3.064760e+00  -3.559611e+00  -1.870754e-21   8.690790e+05   4.014105e-41   0.000000e+00   0.000000e+00
     2408000   2.407999e-05   8.199668e+00   6.937401e-01   3.758948e+01   3.363648e+05  -2.896039e+05   7.471858e+05  -2.425041e+01  -2.816600e+01   2.394103e-20   8.690790e+05   2.513032e-39   0.000000e+00   0.000000e+00
     2416000   2.415999e-05   8.226577e+00   6.705718e-01   3.764926e+01   3.363648e+05  -2.896039e+05   7.471858e+05  -3.921499e+00  -4.554684e+00   3.127249e-22   8.690790e+05   6.571641e-41   0.000000e+00   0.000000e+00
     2424000   2.423999e-05   8.253487e+00   6.474035e-01   3.770903e+01   3.363648e+05  -2.896039e+05   7.471858e+05  -1.041499e+00  -1.209664e+00   4.724490e-22   8.690790e+05   4.638337e-42   0.000000e+00   0.000000e+00
     2432000   2.431999e-05   8.280396e+00   6.242352e-01   3.776880e+01   3.363648e+05  -2.896039e+05   7.471858e+05   1.420452e+00   1.649805e+00   5.077680e-23   8.690790e+05   8.618925e-42   0.000000e+00   0.000000e+00
     2440000   2.439999e-05   8.307305e+00   6.010668e-01   3.782858e+01   3.363648e+05  -2.896039e+05   7.471858e+05  -7.145695e-01  -8.299474e-01   4.469232e-22   8.690790e+05   2.180547e-42   0.000000e+00   0.000000e+00
     2448000   2.447999e-05   8.334214e+00   5.778985e-01   3.788835e+01   3.363648e+05  -2.896039e+05   7.471858e+05   1.124553e+00   1.306129e+00  -2.827371e-22   8.690790e+05   5.404275e-42   0.000000e+00   0.000000e+00
     2456000   2.455999e-05   8.361123e+00   5.547302e-01   3.794813e+01   3.363648e+05  -2.896039e+05   7.471858e+05  -1.873448e+00  -2.175945e+00   7.048080e-22   8.690790e+05   1.499804e-41   0.000000e+00   0.000000e+00
     2464000   2.463999e-05   8.388033e+00   5.315619e-01   3.800790e+01   3.363648e+05  -2.896039e+05   7.471858e+05   1.834506e+00   2.130714e+00  -1.402685e-21   8.690790e+05   1.438201e-41   0.000000e+00   0.000000e+00
     2472000   2.471999e-05   8.414942e+00   5.083936e-01   3.806768e+01   3.363648e+05  -2.896039e+05   7.471858e+05  -5.118185e+00  -5.944593e+00   4.616487e-22   8.690790e+05   1.119337e-40   0.000000e+00   0.000000e+00
     2480000   2.479999e-05   8.441851e+00   4.852253e-01   3.812745e+01   3.363648e+05  -2.896039e+05   7.471858e+05  -8.453326e+00  -9.818243e+00  -5.496750e-21   8.690790e+05   3.053481e-40   0.000000e+00   0.000000e+00
     2488000   2.487999e-05   8.468760e+00   4.620570e-01   3.818723e+01   3.363648e+05  -2.896039e+05   7.471858e+05  -1.222115e+01  -1.419444e+01   2.634409e-21   8.690790e+05   6.382326e-40   0.000000e+00   0.000000e+00
     2496000   2.495999e-05   8.495669e+00   4.388887e-01   3.824700e+01   3.363648e+05  -2.896039e+05   7.471858e+05  -4.327250e+00  -5.025950e+00   9.019816e-22   8.690790e+05   8.002344e-41   0.000000e+00   0.000000e+00
     2504000   2.503999e-05   8.522578e+00   4.157204e-01   3.830678e+01   3.363648e+05  -2.896039e+05   7.471858e+05  -9.748659e+00  -1.132273e+01   4.557819e-21   8.690790e+05   4.061256e-40   0.000000e+00   0.000000e+00
     2512000   2.511999e-05   8.549488e+00   3.925520e-01   3.836655e+01   3.363648e+05  -2.896039e+05   7.471858e+05  -1.766107e+01  -2.051272e+01   8.765586e-21   8.690790e+05   1.332912e-39   0.000000e+00   0.000000e+00
     2520000   2.519999e-05   8.576397e+00   3.693837e-01   3.842633e+01   3.363648e+05  -2.896039e+05   7.471858e+05  -5.792070e+00  -6.727286e+00   3.451311e-21   8.690790e+05   1.434033e-40   0.000000e+00   0.000000e+00
     2528000   2.527999e-05   8.603306e+00   3.462154e-01   3.848610e+01   3.363648e+05  -2.896039e+05   7.471858e+05  -7.382134e+00  -8.574091e+00   4.519087e-22   8.690790e+05   2.328822e-40   0.000000e+00   0.000000e+00
     2536000   2.535999e-05   8.630215e+00   3.230471e-01   3.854588e+01   3.363648e+05  -2.896039e+05   7.471858e+05  -7.714606e+00  -8.960245e+00   4.329195e-21   8.690790e+05   2.543491e-40   0.000000e+00   0.000000e+00
     2544000   2.543999e-05   8.657124e+00   2.998788e-01   3.860565e+01   3.363648e+05  -2.896039e+05   7.471858e+05   3.130637e+06   3.636125e+06  -9.070761e-16   8.690790e+05   4.187010e-29   0.000000e+00   0.000000e+00
     2552000   2.551999e-05   8.684034e+00   2.767105e-01   3.866543e+01   3.363652e+05  -2.896034e+05   7.471858e+05   7.444753e+06   8.646846e+06   1.893099e-15   8.690790e+05   2.368250e-28   0.000000e+00   0.000000e+00
     2560000   2.559999e-05   8.710943e+00   2.535423e-01   3.872520e+01   3.363657e+05  -2.896029e+05   7.471858e+05   1.804885e+06   2.096323e+06   2.731415e-17   8.690790e+05   1.391329e-29   0.000000e+00   0.000000e+00
     2568000   2.567999e-05   8.737852e+00   2.303740e-01   3.878498e+01   3.363660e+05  -2.896025e+05   7.471858e+05   6.134781e+06   7.125392e+06   6.298237e-15   8.690790e+05   1.608103e-28   0.000000e+00   0.000000e+00
     2576000   2.575999e-05   8.764761e+00   2.072058e-01   3.884475e+01   3.363661e+05  -2.896024e+05   7.471858e+05  -8.338162e+05  -9.684573e+05  -6.869586e-16   8.690790e+05   2.968389e-30   0.000000e+00   0.000000e+00
     2584000   2.583999e-05   8.791671e+00   1.840377e-01   3.890453e+01   3.363679e+05  -2.896003e+05   7.471858e+05  -1.357007e+07  -1.576150e+07   2.940399e-15   8.690790e+05   7.868461e-28   0.000000e+00   0.000000e+00
     2592000   2.591999e-05   8.818580e+00   1.608697e-01   3.896430e+01   3.363686e+05  -2.895995e+05   7.471858e+05   2.560035e+07   2.973469e+07  -2.185416e-14   8.690790e+05   2.800331e-27   0.000000e+00   0.000000e+00
     2600000   2.599999e-05   8.845490e+00   1.377018e-01   3.902408e+01   3.363704e+05  -2.895974e+05   7.471858e+05   7.987151e+06   9.277159e+06   1.774936e-15   8.690790e+05   2.727199e-28   0.000000e+00   0.000000e+00
     2608000   2.607999e-05   8.872399e+00   1.145341e-01   3.908385e+01   3.363707e+05  -2.895971e+05   7.471858e+05  -1.228555e+06  -1.426982e+06   3.855305e-17   8.690790e+05   6.438478e-30   0.000000e+00   0.000000e+00
     2616000   2.615999e-05   8.899309e+00   9.136635e-02   3.914363e+01   3.363722e+05  -2.895952e+05   7.471858e+05   2.455791e+07   2.852464e+07  -2.910853e-14   8.690790e+05   2.577221e-27   0.000000e+00   0.000000e+00
     2624000   2.623999e-05   8.926219e+00   6.819885e-02   3.920340e+01   3.363748e+05  -2.895922e+05   7.471858e+05   2.486493e+07   2.888177e+07  -1.697801e-15   8.690790e+05   2.642121e-27   0.000000e+00   0.000000e+00
     2632000   2.631999e-05   8.953129e+00   4.503158e-02   3.926318e+01   3.363772e+05  -2.895894e+05   7.471858e+05   3.516771e+07   4.084962e+07  -4.430342e-14   8.690790e+05   5.285524e-27   0.000000e+00   0.000000e+00
     2640000   2.639999e-05   8.980039e+00   2.186457e-02   3.932295e+01   3.363803e+05  -2.895859e+05   7.471858e+05   3.855977e+07   4.479069e+07   3.464268e-14   8.690790e+05   6.355013e-27   0.000000e+00   0.000000e+00
