     timestep     time              x             y              z              vx             vy             vz             ax             ay             az         v_magnitude      ELoss        Electronic      Nuclear
           0   0.000000e+00   1.000000e-01   1.936962e+01   1.202674e+01   4.671669e+05   7.273865e+05   8.923146e+04   0.000000e+00   0.000000e+00   0.000000e+00   8.690790e+05   0.000000e+00   0.000000e+00   0.000000e+00
        8000   7.999000e-08   1.373734e-01   1.942782e+01   1.203387e+01   4.671669e+05   7.273865e+05   8.923146e+04   0.000000e+00   0.000000e+00   0.000000e+00   8.690790e+05   0.000000e+00   0.000000e+00   0.000000e+00
       16000   1.599900e-07   1.747467e-01   1.948601e+01   1.204101e+01   4.671669e+05   7.273865e+05   8.923146e+04   0.000000e+00   0.000000e+00   0.000000e+00   8.690790e+05   0.000000e+00   0.000000e+00   0.000000e+00
       24000   2.399900e-07   2.121201e-01   1.954420e+01   1.204815e+01   4.671669e+05   7.273865e+05   8.923146e+04   0.000000e+00   0.000000e+00   0.000000e+00   8.690790e+05   0.000000e+00   0.000000e+00   0.000000e+00
       32000   3.199900e-07   2.494934e-01   1.960239e+01   1.205529e+01   4.671669e+05   7.273865e+05   8.923146e+04   0.000000e+00   0.000000e+00   0.000000e+00   8.690790e+05   0.000000e+00   0.000000e+00   0.000000e+00
       40000   3.999900e-07   2.868668e-01   1.966058e+01   1.206243e+01   4.671669e+05   7.273865e+05   8.923146e+04   0.000000e+00   0.000000e+00   0.000000e+00   8.690790e+05   0.000000e+00   0.000000e+00   0.000000e+00
       48000   4.799900e-07   3.242401e-01   1.971877e+01   1.206957e+01   4.671669e+05   7.273865e+05   8.923146e+04   0.000000e+00   0.000000e+00   0.000000e+00   8.690790e+05   0.000000e+00   0.000000e+00   0.000000e+00
       56000   5.599900e-07   3.616135e-01   1.977696e+01   1.207671e+01   4.671669e+05   7.273865e+05   8.923146e+04   0.000000e+00   0.000000e+00   0.000000e+00   8.690790e+05   0.000000e+00   0.000000e+00   0.000000e+00
       64000   6.399900e-07   3.989868e-01   1.983515e+01   1.208384e+01   4.671669e+05   7.273865e+05   8.923146e+04   0.000000e+00   0.000000e+00   0.000000e+00   8.690790e+05   0.000000e+00   0.000000e+00   0.000000e+00
       72000   7.199900e-07   4.363602e-01   1.989334e+01   1.209098e+01   4.671669e+05   7.273865e+05   8.923146e+04   0.000000e+00   0.000000e+00   0.000000e+00   8.690790e+05   0.000000e+00   0.000000e+00   0.000000e+00
       80000   7.999900e-07   4.737335e-01   1.995153e+01   1.209812e+01   4.671669e+05   7.273865e+05   8.923146e+04   0.000000e+00   0.000000e+00   0.000000e+00   8.690790e+05   0.000000e+00   0.000000e+00   0.000000e+00
       88000   8.799900e-07   5.111069e-01   2.000973e+01   1.210526e+01   4.671669e+05   7.273865e+05   8.923146e+04   0.000000e+00   0.000000e+00   0.000000e+00   8.690790e+05   0.000000e+00   0.000000e+00   0.000000e+00
       96000   9.599900e-07   5.484802e-01   2.006792e+01   1.211240e+01   4.671669e+05   7.273865e+05   8.923146e+04   0.000000e+00   0.000000e+00   0.000000e+00   8.690790e+05   0.000000e+00   0.000000e+00   0.000000e+00
      104000   1.039990e-06   5.858536e-01   2.012611e+01   1.211954e+01   4.671669e+05   7.273865e+05   8.923146e+04   0.000000e+00   0.000000e+00   0.000000e+00   8.690790e+05   0.000000e+00   0.000000e+00   0.000000e+00
      112000   1.119990e-06   6.232270e-01   2.018430e+01   1.212668e+01   4.671669e+05   7.273865e+05   8.923146e+04   0.000000e+00   0.000000e+00   0.000000e+00   8.690790e+05   0.000000e+00   0.000000e+00   0.000000e+00
      120000   1.199990e-06   6.606003e-01   2.024249e+01   1.213381e+01   4.671669e+05   7.273865e+05   8.923146e+04   0.000000e+00   0.000000e+00   0.000000e+00   8.690790e+05   0.000000e+00   0.000000e+00   0.000000e+00
      128000   1.279990e-06   6.979737e-01   2.030068e+01   1.214095e+01   4.671669e+05   7.273865e+05   8.923146e+04   0.000000e+00   0.000000e+00   0.000000e+00   8.690790e+05   0.000000e+00   0.000000e+00   0.000000e+00
      136000   1.359990e-06   7.353470e-01   2.035887e+01   1.214809e+01   4.671669e+05   7.273865e+05   8.923146e+04   0.000000e+00   0.000000e+00   0.000000e+00   8.690790e+05   0.000000e+00   0.000000e+00   0.000000e+00
      144000   1.439990e-06   7.727204e-01   2.041706e+01   1.215523e+01   4.671669e+05   7.273865e+05   8.923146e+04   0.000000e+00   0.000000e+00   0.000000e+00   8.690790e+05   0.000000e+00   0.000000e+00   0.000000e+00
      152000   1.519990e-06   8.100937e-01   2.047525e+01   1.216237e+01   4.671669e+05   7.273865e+05   8.923146e+04   0.000000e+00   0.000000e+00   0.000000e+00   8.690790e+05   0.000000e+00   0.000000e+00   0.000000e+00
      160000   1.599990e-06   8.474671e-01   2.053344e+01   1.216951e+01   4.671669e+05   7.273865e+05   8.923146e+04   0.000000e+00   0.000000e+00   0.000000e+00   8.690790e+05   0.000000e+00   0.000000e+00   0.000000e+00
      168000   1.679990e-06   8.848404e-01   2.059163e+01   1.217664e+01   4.671669e+05   7.273865e+05   8.923146e+04   0.000000e+00   0.000000e+00   0.000000e+00   8.690790e+05   0.000000e+00   0.000000e+00   0.000000e+00
      176000   1.759990e-06   9.222138e-01   2.064983e+01   1.218378e+01   4.671669e+05   7.273865e+05   8.923146e+04   0.000000e+00   0.000000e+00   0.000000e+00   8.690790e+05   0.000000e+00   0.000000e+00   0.000000e+00
      184000   1.839990e-06   9.595871e-01   2.070802e+01   1.219092e+01   4.671669e+05   7.273865e+05   8.923146e+04   0.000000e+00   0.000000e+00   0.000000e+00   8.690790e+05   0.000000e+00   0.000000e+00   0.000000e+00
      192000   1.919990e-06   9.969605e-01   2.076621e+01   1.219806e+01   4.671669e+05   7.273865e+05   8.923146e+04   0.000000e+00   0.000000e+00   0.000000e+00   8.690790e+05   0.000000e+00   0.000000e+00   0.000000e+00
      200000   1.999990e-06   1.034334e+00   2.082440e+01   1.220520e+01   4.671669e+05   7.273865e+05   8.923146e+04   0.000000e+00   0.000000e+00   0.000000e+00   8.690790e+05   0.000000e+00   0.000000e+00   0.000000e+00
      208000   2.079990e-06   1.071707e+00   2.088259e+01   1.221234e+01   4.671669e+05   7.273865e+05   8.923146e+04   0.000000e+00   0.000000e+00   0.000000e+00   8.690790e+05   0.000000e+00   0.000000e+00   0.000000e+00
      216000   2.159990e-06   1.109081e+00   2.094078e+01   1.221948e+01   4.671669e+05   7.273865e+05   8.923146e+04   0.000000e+00   0.000000e+00   0.000000e+00   8.690790e+05   0.000000e+00   0.000000e+00   0.000000e+00
      224000   2.239990e-06   1.146454e+00   2.099897e+01   1.222661e+01   4.671669e+05   7.273865e+05   8.923146e+04   0.000000e+00   0.000000e+00   0.000000e+00   8.690790e+05   0.000000e+00   0.000000e+00   0.000000e+00
      232000   2.319990e-06   1.183827e+00   2.105716e+01   1.223375e+01   4.671669e+05   7.273865e+05   8.923146e+04   0.000000e+00   0.000000e+00   0.000000e+00   8.690790e+05   0.000000e+00   0.000000e+00   0.000000e+00
      240000   2.399990e-06   1.221201e+00   2.111535e+01   1.224089e+01   4.671669e+05   7.273865e+05   8.923146e+04   0.000000e+00   0.000000e+00   0.000000e+00   8.690790e+05   0.000000e+00   0.000000e+00   0.000000e+00
      248000   2.479990e-06   1.258574e+00   2.117354e+01   1.224803e+01   4.671669e+05   7.273865e+05   8.923146e+04   0.000000e+00   0.000000e+00   0.000000e+00   8.690790e+05   0.000000e+00   0.000000e+00   0.000000e+00
      256000   2.559990e-06   1.295947e+00   2.123173e+01   1.225517e+01   4.671669e+05   7.273865e+05   8.923146e+04   0.000000e+00   0.000000e+00   0.000000e+00   8.690790e+05   0.000000e+00   0.000000e+00   0.000000e+00
      264000   2.639990e-06   1.333321e+00   2.128993e+01   1.226231e+01   4.671669e+05   7.273865e+05   8.923146e+04   0.000000e+00   0.000000e+00   0.000000e+00   8.690790e+05   0.000000e+00   0.000000e+00   0.000000e+00
      272000   2.719990e-06   1.370694e+00   2.134812e+01   1.226945e+01   4.671669e+05   7.273865e+05   8.923146e+04   0.000000e+00   0.000000e+00   0.000000e+00   8.690790e+05   0.000000e+00   0.000000e+00   0.000000e+00
      280000   2.799990e-06   1.408067e+00   2.140631e+01   1.227658e+01   4.671669e+05   7.273865e+05   8.923146e+04   0.000000e+00   0.000000e+00   0.000000e+00   8.690790e+05   0.000000e+00   0.000000e+00   0.000000e+00
      288000   2.879990e-06   1.445441e+00   2.146450e+01   1.228372e+01   4.671669e+05   7.273865e+05   8.923146e+04   0.000000e+00   0.000000e+00   0.000000e+00   8.690790e+05   0.000000e+00   0.000000e+00   0.000000e+00
      296000   2.959990e-06   1.482814e+00   2.152269e+01   1.229086e+01   4.671669e+05   7.273865e+05   8.923146e+04   0.000000e+00   0.000000e+00   0.000000e+00   8.690790e+05   0.000000e+00   0.000000e+00   0.000000e+00
      304000   3.039990e-06   1.520187e+00   2.158088e+01   1.229800e+01   4.671669e+05   7.273865e+05   8.923146e+04   0.000000e+00   0.000000e+00   0.000000e+00   8.690790e+05   0.000000e+00   0.000000e+00   0.000000e+00
      312000   3.119990e-06   1.557561e+00   2.163907e+01   1.230514e+01   4.671669e+05   7.273865e+05   8.923146e+04   0.000000e+00   0.000000e+00   0.000000e+00   8.690790e+05   0.000000e+00   0.000000e+00   0.000000e+00
      320000   3.199990e-06   1.594934e+00   2.169726e+01   1.231228e+01   4.671669e+05   7.273865e+05   8.923146e+04   0.000000e+00   0.000000e+00   0.000000e+00   8.690790e+05   0.000000e+00   0.000000e+00   0.000000e+00
      328000   3.279990e-06   1.632308e+00   2.175545e+01   1.231942e+01   4.671669e+05   7.273865e+05   8.923146e+04   0.000000e+00   0.000000e+00   0.000000e+00   8.690790e+05   0.000000e+00   0.000000e+00   0.000000e+00
      336000   3.359990e-06   1.669681e+00   2.181364e+01   1.232655e+01   4.671669e+05   7.273865e+05   8.923146e+04   0.000000e+00   0.000000e+00   0.000000e+00   8.690790e+05   0.000000e+00   0.000000e+00   0.000000e+00
      344000   3.439990e-06   1.707054e+00   2.187183e+01   1.233369e+01   4.671669e+05   7.273865e+05   8.923146e+04   0.000000e+00   0.000000e+00   0.000000e+00   8.690790e+05   0.000000e+00   0.000000e+00   0.000000e+00
      352000   3.519990e-06   1.744428e+00   2.193003e+01   1.234083e+01   4.671669e+05   7.273865e+05   8.923146e+04   0.000000e+00   0.000000e+00   0.000000e+00   8.690790e+05   0.000000e+00   0.000000e+00   0.000000e+00
      360000   3.599990e-06   1.781801e+00   2.198822e+01   1.234797e+01   4.671669e+05   7.273865e+05   8.923146e+04   0.000000e+00   0.000000e+00   0.000000e+00   8.690790e+05   0.000000e+00   0.000000e+00   0.000000e+00
      368000   3.679990e-06   1.819174e+00   2.204641e+01   1.235511e+01   4.671669e+05   7.273865e+05   8.923146e+04   0.000000e+00   0.000000e+00   0.000000e+00   8.690790e+05   0.000000e+00   0.000000e+00   0.000000e+00
      376000   3.759990e-06   1.856548e+00   2.210460e+01   1.236225e+01   4.671669e+05   7.273865e+05   8.923146e+04   0.000000e+00   0.000000e+00   0.000000e+00   8.690790e+05   0.000000e+00   0.000000e+00   0.000000e+00
      384000   3.839990e-06   1.893921e+00   2.216279e+01   1.236938e+01   4.671669e+05   7.273865e+05   8.923146e+04   0.000000e+00   0.000000e+00   0.000000e+00   8.690790e+05   0.000000e+00   0.000000e+00   0.000000e+00
      392000   3.919990e-06   1.931294e+00   2.222098e+01   1.237652e+01   4.671669e+05   7.273865e+05   8.923146e+04   0.000000e+00   0.000000e+00   0.000000e+00   8.690790e+05   0.000000e+00   0.000000e+00   0.000000e+00
      400000   3.999990e-06   1.968668e+00   2.227917e+01   1.238366e+01   4.671669e+05   7.273865e+05   8.923146e+04   0.000000e+00   0.000000e+00   0.000000e+00   8.690790e+05   0.000000e+00   0.000000e+00   0.000000e+00
      408000   4.079990e-06   2.006041e+00   2.233736e+01   1.239080e+01   4.671669e+05   7.273865e+05   8.923146e+04   0.000000e+00   0.000000e+00   0.000000e+00   8.690790e+05   0.000000e+00   0.000000e+00   0.000000e+00
      416000   4.159990e-06   2.043414e+00   2.239555e+01   1.239794e+01   4.671669e+05   7.273865e+05   8.923146e+04   0.000000e+00   0.000000e+00   0.000000e+00   8.690790e+05   0.000000e+00   0.000000e+00   0.000000e+00
      424000   4.239990e-06   2.080788e+00   2.245374e+01   1.240508e+01   4.671669e+05   7.273865e+05   8.923146e+04   0.000000e+00   0.000000e+00   0.000000e+00   8.690790e+05   0.000000e+00   0.000000e+00   0.000000e+00
      432000   4.319990e-06   2.118161e+00   2.251193e+01   1.241222e+01   4.671669e+05   7.273865e+05   8.923146e+04   0.000000e+00   0.000000e+00   0.000000e+00   8.690790e+05   0.000000e+00   0.000000e+00   0.000000e+00
      440000   4.399990e-06   2.155534e+00   2.257013e+01   1.241935e+01   4.671669e+05   7.273865e+05   8.923146e+04   0.000000e+00   0.000000e+00   0.000000e+00   8.690790e+05   0.000000e+00   0.000000e+00   0.000000e+00
      448000   4.479990e-06   2.192908e+00   2.262832e+01   1.242649e+01   4.671669e+05   7.273865e+05   8.923146e+04   0.000000e+00   0.000000e+00   0.000000e+00   8.690790e+05   0.000000e+00   0.000000e+00   0.000000e+00
      456000   4.559990e-06   2.230281e+00   2.268651e+01   1.243363e+01   4.671669e+05   7.273865e+05   8.923146e+04   0.000000e+00   0.000000e+00   0.000000e+00   8.690790e+05   0.000000e+00   0.000000e+00   0.000000e+00
      464000   4.639990e-06   2.267655e+00   2.274470e+01   1.244077e+01   4.671669e+05   7.273865e+05   8.923146e+04   0.000000e+00   0.000000e+00   0.000000e+00   8.690790e+05   0.000000e+00   0.000000e+00   0.000000e+00
      472000   4.719990e-06   2.305028e+00   2.280289e+01   1.244791e+01   4.671669e+05   7.273865e+05   8.923146e+04   0.000000e+00   0.000000e+00   0.000000e+00   8.690790e+05   0.000000e+00   0.000000e+00   0.000000e+00
      480000   4.799990e-06   2.342401e+00   2.286108e+01   1.245505e+01   4.671669e+05   7.273865e+05   8.923146e+04   0.000000e+00   0.000000e+00   0.000000e+00   8.690790e+05   0.000000e+00   0.000000e+00   0.000000e+00
      488000   4.879990e-06   2.379775e+00   2.291927e+01   1.246219e+01   4.671669e+05   7.273865e+05   8.923146e+04   0.000000e+00   0.000000e+00   0.000000e+00   8.690790e+05   0.000000e+00   0.000000e+00   0.000000e+00
      496000   4.959990e-06   2.417148e+00   2.297746e+01   1.246932e+01   4.671669e+05   7.273865e+05   8.923146e+04   0.000000e+00   0.000000e+00   0.000000e+00   8.690790e+05   0.000000e+00   0.000000e+00   0.000000e+00
      504000   5.039990e-06   2.454521e+00   2.303565e+01   1.247646e+01   4.671669e+05   7.273865e+05   8.923146e+04   0.000000e+00   0.000000e+00   0.000000e+00   8.690790e+05   0.000000e+00   0.000000e+00   0.000000e+00
      512000   5.119990e-06   2.491895e+00   2.309384e+01   1.248360e+01   4.671669e+05   7.273865e+05   8.923146e+04   0.000000e+00   0.000000e+00   0.000000e+00   8.690790e+05   0.000000e+00   0.000000e+00   0.000000e+00
      520000   5.199990e-06   2.529268e+00   2.315203e+01   1.249074e+01   4.671669e+05   7.273865e+05   8.923146e+04   0.000000e+00   0.000000e+00   0.000000e+00   8.690790e+05   0.000000e+00   0.000000e+00   0.000000e+00
      528000   5.279990e-06   2.566641e+00   2.321023e+01   1.249788e+01   4.671669e+05   7.273865e+05   8.923146e+04   0.000000e+00   0.000000e+00   0.000000e+00   8.690790e+05   0.000000e+00   0.000000e+00   0.000000e+00
      536000   5.359990e-06   2.604015e+00   2.326842e+01   1.250502e+01   4.671669e+05   7.273865e+05   8.923146e+04   0.000000e+00   0.000000e+00   0.000000e+00   8.690790e+05   0.000000e+00   0.000000e+00   0.000000e+00
      544000   5.439990e-06   2.641388e+00   2.332661e+01   1.251216e+01   4.671669e+05   7.273865e+05   8.923146e+04   0.000000e+00   0.000000e+00   0.000000e+00   8.690790e+05   0.000000e+00   0.000000e+00   0.000000e+00
      552000   5.519990e-06   2.678761e+00   2.338480e+01   1.251929e+01   4.671669e+05   7.273865e+05   8.923146e+04   0.000000e+00   0.000000e+00   0.000000e+00   8.690790e+05   0.000000e+00   0.000000e+00   0.000000e+00
      560000   5.599990e-06   2.716135e+00   2.344299e+01   1.252643e+01   4.671669e+05   7.273865e+05   8.923146e+04   0.000000e+00   0.000000e+00   0.000000e+00   8.690790e+05   0.000000e+00   0.000000e+00   0.000000e+00
      568000   5.679990e-06   2.753508e+00   2.350118e+01   1.253357e+01   4.671669e+05   7.273865e+05   8.923146e+04   0.000000e+00   0.000000e+00   0.000000e+00   8.690790e+05   0.000000e+00   0.000000e+00   0.000000e+00
      576000   5.759990e-06   2.790881e+00   2.355937e+01   1.254071e+01   4.671669e+05   7.273865e+05   8.923146e+04   0.000000e+00   0.000000e+00   0.000000e+00   8.690790e+05   0.000000e+00   0.000000e+00   0.000000e+00
      584000   5.839990e-06   2.828255e+00   2.361756e+01   1.254785e+01   4.671669e+05   7.273865e+05   8.923146e+04   0.000000e+00   0.000000e+00   0.000000e+00   8.690790e+05   0.000000e+00   0.000000e+00   0.000000e+00
      592000   5.919990e-06   2.865628e+00   2.367575e+01   1.255499e+01   4.671669e+05   7.273865e+05   8.923146e+04   0.000000e+00   0.000000e+00   0.000000e+00   8.690790e+05   0.000000e+00   0.000000e+00   0.000000e+00
      600000   5.999990e-06   2.903002e+00   2.373394e+01   1.256212e+01   4.671669e+05   7.273865e+05   8.923146e+04   0.000000e+00   0.000000e+00   0.000000e+00   8.690790e+05   0.000000e+00   0.000000e+00   0.000000e+00
      608000   6.079990e-06   2.940375e+00   2.379213e+01   1.256926e+01   4.671669e+05   7.273865e+05   8.923146e+04   0.000000e+00   0.000000e+00   0.000000e+00   8.690790e+05   0.000000e+00   0.000000e+00   0.000000e+00
      616000   6.159990e-06   2.977748e+00   2.385033e+01   1.257640e+01   4.671669e+05   7.273865e+05   8.923146e+04   0.000000e+00   0.000000e+00   0.000000e+00   8.690790e+05   0.000000e+00   0.000000e+00   0.000000e+00
      624000   6.239990e-06   3.015122e+00   2.390852e+01   1.258354e+01   4.671669e+05   7.273865e+05   8.923146e+04   0.000000e+00   0.000000e+00   0.000000e+00   8.690790e+05   0.000000e+00   0.000000e+00   0.000000e+00
      632000   6.319990e-06   3.052495e+00   2.396671e+01   1.259068e+01   4.671669e+05   7.273865e+05   8.923146e+04   0.000000e+00   0.000000e+00   0.000000e+00   8.690790e+05   0.000000e+00   0.000000e+00   0.000000e+00
      640000   6.399990e-06   3.089868e+00   2.402490e+01   1.259782e+01   4.671669e+05   7.273865e+05   8.923146e+04   0.000000e+00   0.000000e+00   0.000000e+00   8.690790e+05   0.000000e+00   0.000000e+00   0.000000e+00
      648000   6.479990e-06   3.127242e+00   2.408309e+01   1.260496e+01   4.671669e+05   7.273865e+05   8.923146e+04   0.000000e+00   0.000000e+00   0.000000e+00   8.690790e+05   0.000000e+00   0.000000e+00   0.000000e+00
      656000   6.559990e-06   3.164615e+00   2.414128e+01   1.261209e+01   4.671669e+05   7.273865e+05   8.923146e+04   0.000000e+00   0.000000e+00   0.000000e+00   8.690790e+05   0.000000e+00   0.000000e+00   0.000000e+00
      664000   6.639990e-06   3.201988e+00   2.419947e+01   1.261923e+01   4.671669e+05   7.273865e+05   8.923146e+04   0.000000e+00   0.000000e+00   0.000000e+00   8.690790e+05   0.000000e+00   0.000000e+00   0.000000e+00
      672000   6.719990e-06   3.239362e+00   2.425766e+01   1.262637e+01   4.671669e+05   7.273865e+05   8.923146e+04   0.000000e+00   0.000000e+00   0.000000e+00   8.690790e+05   0.000000e+00   0.000000e+00   0.000000e+00
      680000   6.799990e-06   3.276735e+00   2.431585e+01   1.263351e+01   4.671669e+05   7.273865e+05   8.923146e+04   0.000000e+00   0.000000e+00   0.000000e+00   8.690790e+05   0.000000e+00   0.000000e+00   0.000000e+00
      688000   6.879990e-06   3.314108e+00   2.437404e+01   1.264065e+01   4.671669e+05   7.273865e+05   8.923146e+04   0.000000e+00   0.000000e+00   0.000000e+00   8.690790e+05   0.000000e+00   0.000000e+00   0.000000e+00
      696000   6.959990e-06   3.351482e+00   2.443223e+01   1.264779e+01   4.671669e+05   7.273865e+05   8.923146e+04   0.000000e+00   0.000000e+00   0.000000e+00   8.690790e+05   0.000000e+00   0.000000e+00   0.000000e+00
      704000   7.039990e-06   3.388855e+00   2.449043e+01   1.265493e+01   4.671669e+05   7.273865e+05   8.923146e+04   0.000000e+00   0.000000e+00   0.000000e+00   8.690790e+05   0.000000e+00   0.000000e+00   0.000000e+00
      712000   7.119990e-06   3.426228e+00   2.454862e+01   1.266206e+01   4.671669e+05   7.273865e+05   8.923146e+04   0.000000e+00   0.000000e+00   0.000000e+00   8.690790e+05   0.000000e+00   0.000000e+00   0.000000e+00
      720000   7.199990e-06   3.463602e+00   2.460681e+01   1.266920e+01   4.671669e+05   7.273865e+05   8.923146e+04   0.000000e+00   0.000000e+00   0.000000e+00   8.690790e+05   0.000000e+00   0.000000e+00   0.000000e+00
      728000   7.279990e-06   3.500975e+00   2.466500e+01   1.267634e+01   4.671669e+05   7.273865e+05   8.923146e+04   0.000000e+00   0.000000e+00   0.000000e+00   8.690790e+05   0.000000e+00   0.000000e+00   0.000000e+00
      736000   7.359990e-06   3.538349e+00   2.472319e+01   1.268348e+01   4.671669e+05   7.273865e+05   8.923146e+04   0.000000e+00   0.000000e+00   0.000000e+00   8.690790e+05   0.000000e+00   0.000000e+00   0.000000e+00
      744000   7.439990e-06   3.575722e+00   2.478138e+01   1.269062e+01   4.671669e+05   7.273865e+05   8.923146e+04   0.000000e+00   0.000000e+00   0.000000e+00   8.690790e+05   0.000000e+00   0.000000e+00   0.000000e+00
      752000   7.519990e-06   3.613095e+00   2.483957e+01   1.269776e+01   4.671669e+05   7.273865e+05   8.923146e+04   0.000000e+00   0.000000e+00   0.000000e+00   8.690790e+05   0.000000e+00   0.000000e+00   0.000000e+00
      760000   7.599990e-06   3.650469e+00   2.489776e+01   1.270490e+01   4.671669e+05   7.273865e+05   8.923146e+04   0.000000e+00   0.000000e+00   0.000000e+00   8.690790e+05   0.000000e+00   0.000000e+00   0.000000e+00
      768000   7.679990e-06   3.687842e+00   2.495595e+01   1.271203e+01   4.671669e+05   7.273865e+05   8.923146e+04   0.000000e+00   0.000000e+00   0.000000e+00   8.690790e+05   0.000000e+00   0.000000e+00   0.000000e+00
      776000   7.759990e-06   3.725215e+00   2.501414e+01   1.271917e+01   4.671669e+05   7.273865e+05   8.923146e+04   0.000000e+00   0.000000e+00   0.000000e+00   8.690790e+05   0.000000e+00   0.000000e+00   0.000000e+00
      784000   7.839990e-06   3.762589e+00   2.507234e+01   1.272631e+01   4.671669e+05   7.273865e+05   8.923146e+04   0.000000e+00   0.000000e+00   0.000000e+00   8.690790e+05   0.000000e+00   0.000000e+00   0.000000e+00
      792000   7.919990e-06   3.799962e+00   2.513053e+01   1.273345e+01   4.671669e+05   7.273865e+05   8.923146e+04   0.000000e+00   0.000000e+00   0.000000e+00   8.690790e+05   0.000000e+00   0.000000e+00   0.000000e+00
      800000   7.999990e-06   3.837335e+00   2.518872e+01   1.274059e+01   4.671669e+05   7.273865e+05   8.923146e+04   0.000000e+00   0.000000e+00   0.000000e+00   8.690790e+05   0.000000e+00   0.000000e+00   0.000000e+00
      808000   8.079990e-06   3.874709e+00   2.524691e+01   1.274773e+01   4.671669e+05   7.273865e+05   8.923146e+04   0.000000e+00   0.000000e+00   0.000000e+00   8.690790e+05   0.000000e+00   0.000000e+00   0.000000e+00
      816000   8.159990e-06   3.912082e+00   2.530510e+01   1.275486e+01   4.671669e+05   7.273865e+05   8.923146e+04   0.000000e+00   0.000000e+00   0.000000e+00   8.690790e+05   0.000000e+00   0.000000e+00   0.000000e+00
      824000   8.239990e-06   3.949455e+00   2.536329e+01   1.276200e+01   4.671669e+05   7.273865e+05   8.923146e+04   0.000000e+00   0.000000e+00   0.000000e+00   8.690790e+05   0.000000e+00   0.000000e+00   0.000000e+00
      832000   8.319990e-06   3.986829e+00   2.542148e+01   1.276914e+01   4.671669e+05   7.273865e+05   8.923146e+04   0.000000e+00   0.000000e+00   0.000000e+00   8.690790e+05   0.000000e+00   0.000000e+00   0.000000e+00
      840000   8.399990e-06   4.024202e+00   2.547967e+01   1.277628e+01   4.671669e+05   7.273865e+05   8.923146e+04   0.000000e+00   0.000000e+00   0.000000e+00   8.690790e+05   0.000000e+00   0.000000e+00   0.000000e+00
      848000   8.479990e-06   4.061575e+00   2.553786e+01   1.278342e+01   4.671669e+05   7.273865e+05   8.923146e+04   0.000000e+00   0.000000e+00   0.000000e+00   8.690790e+05   0.000000e+00   0.000000e+00   0.000000e+00
      856000   8.559990e-06   4.098949e+00   2.559605e+01   1.279056e+01   4.671669e+05   7.273865e+05   8.923146e+04   0.000000e+00   0.000000e+00   0.000000e+00   8.690790e+05   0.000000e+00   0.000000e+00   0.000000e+00
      864000   8.639990e-06   4.136322e+00   2.565424e+01   1.279770e+01   4.671669e+05   7.273865e+05   8.923146e+04   0.000000e+00   0.000000e+00   0.000000e+00   8.690790e+05   0.000000e+00   0.000000e+00   0.000000e+00
      872000   8.719990e-06   4.173696e+00   2.571244e+01   1.280483e+01   4.671669e+05   7.273865e+05   8.923146e+04   0.000000e+00   0.000000e+00   0.000000e+00   8.690790e+05   0.000000e+00   0.000000e+00   0.000000e+00
      880000   8.799990e-06   4.211069e+00   2.577063e+01   1.281197e+01   4.671669e+05   7.273865e+05   8.923146e+04   0.000000e+00   0.000000e+00   0.000000e+00   8.690790e+05   0.000000e+00   0.000000e+00   0.000000e+00
      888000   8.879990e-06   4.248442e+00   2.582882e+01   1.281911e+01   4.671669e+05   7.273865e+05   8.923146e+04   0.000000e+00   0.000000e+00   0.000000e+00   8.690790e+05   0.000000e+00   0.000000e+00   0.000000e+00
      896000   8.959990e-06   4.285816e+00   2.588701e+01   1.282625e+01   4.671669e+05   7.273865e+05   8.923146e+04   0.000000e+00   0.000000e+00   0.000000e+00   8.690790e+05   0.000000e+00   0.000000e+00   0.000000e+00
      904000   9.039990e-06   4.323189e+00   2.594520e+01   1.283339e+01   4.671669e+05   7.273865e+05   8.923146e+04   0.000000e+00   0.000000e+00   0.000000e+00   8.690790e+05   0.000000e+00   0.000000e+00   0.000000e+00
      912000   9.119990e-06   4.360562e+00   2.600339e+01   1.284053e+01   4.671669e+05   7.273865e+05   8.923146e+04   0.000000e+00   0.000000e+00   0.000000e+00   8.690790e+05   0.000000e+00   0.000000e+00   0.000000e+00
      920000   9.199990e-06   4.397936e+00   2.606158e+01   1.284767e+01   4.671669e+05   7.273865e+05   8.923146e+04   0.000000e+00   0.000000e+00   0.000000e+00   8.690790e+05   0.000000e+00   0.000000e+00   0.000000e+00
      928000   9.279990e-06   4.435309e+00   2.611977e+01   1.285480e+01   4.671669e+05   7.273865e+05   8.923146e+04   0.000000e+00   0.000000e+00   0.000000e+00   8.690790e+05   0.000000e+00   0.000000e+00   0.000000e+00
      936000   9.359990e-06   4.472682e+00   2.617796e+01   1.286194e+01   4.671669e+05   7.273865e+05   8.923146e+04   0.000000e+00   0.000000e+00   0.000000e+00   8.690790e+05   0.000000e+00   0.000000e+00   0.000000e+00
      944000   9.439990e-06   4.510056e+00   2.623615e+01   1.286908e+01   4.671669e+05   7.273865e+05   8.923146e+04   0.000000e+00   0.000000e+00   0.000000e+00   8.690790e+05   0.000000e+00   0.000000e+00   0.000000e+00
      952000   9.519990e-06   4.547429e+00   2.629434e+01   1.287622e+01   4.671669e+05   7.273865e+05   8.923146e+04   0.000000e+00   0.000000e+00   0.000000e+00   8.690790e+05   0.000000e+00   0.000000e+00   0.000000e+00
      960000   9.599990e-06   4.584802e+00   2.635254e+01   1.288336e+01   4.671669e+05   7.273865e+05   8.923146e+04   0.000000e+00   0.000000e+00   0.000000e+00   8.690790e+05   0.000000e+00   0.000000e+00   0.000000e+00
      968000   9.679990e-06   4.622176e+00   2.641073e+01   1.289050e+01   4.671669e+05   7.273865e+05   8.923146e+04   0.000000e+00   0.000000e+00   0.000000e+00   8.690790e+05   0.000000e+00   0.000000e+00   0.000000e+00
      976000   9.759990e-06   4.659549e+00   2.646892e+01   1.289764e+01   4.671669e+05   7.273865e+05   8.923146e+04   0.000000e+00   0.000000e+00   0.000000e+00   8.690790e+05   0.000000e+00   0.000000e+00   0.000000e+00
      984000   9.839990e-06   4.696923e+00   2.652711e+01   1.290477e+01   4.671669e+05   7.273865e+05   8.923146e+04   0.000000e+00   0.000000e+00   0.000000e+00   8.690790e+05   0.000000e+00   0.000000e+00   0.000000e+00
      992000   9.919990e-06   4.734296e+00   2.658530e+01   1.291191e+01   4.671669e+05   7.273865e+05   8.923146e+04   0.000000e+00   0.000000e+00   0.000000e+00   8.690790e+05   0.000000e+00   0.000000e+00   0.000000e+00
     1000000   9.999990e-06   4.771669e+00   2.664349e+01   1.291905e+01   4.671669e+05   7.273865e+05   8.923146e+04   0.000000e+00   0.000000e+00   0.000000e+00   8.690790e+05   0.000000e+00   0.000000e+00   0.000000e+00
     1008000   1.007999e-05   4.809043e+00   2.670168e+01   1.292619e+01   4.671669e+05   7.273865e+05   8.923146e+04   0.000000e+00   0.000000e+00   0.000000e+00   8.690790e+05   0.000000e+00   0.000000e+00   0.000000e+00
     1016000   1.015999e-05   4.846416e+00   2.675987e+01   1.293333e+01   4.671669e+05   7.273865e+05   8.923146e+04   0.000000e+00   0.000000e+00   0.000000e+00   8.690790e+05   0.000000e+00   0.000000e+00   0.000000e+00
     1024000   1.023999e-05   4.883789e+00   2.681806e+01   1.294047e+01   4.671669e+05   7.273865e+05   8.923146e+04   0.000000e+00   0.000000e+00   0.000000e+00   8.690790e+05   0.000000e+00   0.000000e+00   0.000000e+00
     1032000   1.031999e-05   4.921163e+00   2.687625e+01   1.294760e+01   4.671669e+05   7.273865e+05   8.923146e+04   0.000000e+00   0.000000e+00   0.000000e+00   8.690790e+05   0.000000e+00   0.000000e+00   0.000000e+00
     1040000   1.039999e-05   4.958536e+00   2.693444e+01   1.295474e+01   4.671669e+05   7.273865e+05   8.923146e+04   0.000000e+00   0.000000e+00   0.000000e+00   8.690790e+05   0.000000e+00   0.000000e+00   0.000000e+00
     1048000   1.047999e-05   4.995909e+00   2.699264e+01   1.296188e+01   4.671669e+05   7.273865e+05   8.923146e+04   0.000000e+00   0.000000e+00   0.000000e+00   8.690790e+05   0.000000e+00   0.000000e+00   0.000000e+00
     1056000   1.055999e-05   5.033283e+00   2.705083e+01   1.296902e+01   4.671669e+05   7.273865e+05   8.923146e+04   0.000000e+00   0.000000e+00   0.000000e+00   8.690790e+05   0.000000e+00   0.000000e+00   0.000000e+00
     1064000   1.063999e-05   5.070656e+00   2.710902e+01   1.297616e+01   4.671669e+05   7.273865e+05   8.923146e+04   0.000000e+00   0.000000e+00   0.000000e+00   8.690790e+05   0.000000e+00   0.000000e+00   0.000000e+00
     1072000   1.071999e-05   5.108029e+00   2.716721e+01   1.298330e+01   4.671669e+05   7.273865e+05   8.923146e+04   0.000000e+00   0.000000e+00   0.000000e+00   8.690790e+05   0.000000e+00   0.000000e+00   0.000000e+00
     1080000   1.079999e-05   5.145403e+00   2.722540e+01   1.299044e+01   4.671669e+05   7.273865e+05   8.923146e+04   0.000000e+00   0.000000e+00   0.000000e+00   8.690790e+05   0.000000e+00   0.000000e+00   0.000000e+00
     1088000   1.087999e-05   5.182776e+00   2.728359e+01   1.299757e+01   4.671669e+05   7.273865e+05   8.923146e+04   0.000000e+00   0.000000e+00   0.000000e+00   8.690790e+05   0.000000e+00   0.000000e+00   0.000000e+00
     1096000   1.095999e-05   5.220149e+00   2.734178e+01   1.300471e+01   4.671669e+05   7.273865e+05   8.923146e+04   0.000000e+00   0.000000e+00   0.000000e+00   8.690790e+05   0.000000e+00   0.000000e+00   0.000000e+00
     1104000   1.103999e-05   5.257523e+00   2.739997e+01   1.301185e+01   4.671669e+05   7.273865e+05   8.923146e+04   0.000000e+00   0.000000e+00   0.000000e+00   8.690790e+05   0.000000e+00   0.000000e+00   0.000000e+00
     1112000   1.111999e-05   5.294896e+00   2.745816e+01   1.301899e+01   4.671669e+05   7.273865e+05   8.923146e+04   0.000000e+00   0.000000e+00   0.000000e+00   8.690790e+05   0.000000e+00   0.000000e+00   0.000000e+00
     1120000   1.119999e-05   5.332270e+00   2.751635e+01   1.302613e+01   4.671669e+05   7.273865e+05   8.923146e+04   0.000000e+00   0.000000e+00   0.000000e+00   8.690790e+05   0.000000e+00   0.000000e+00   0.000000e+00
     1128000   1.127999e-05   5.369643e+00   2.757454e+01   1.303327e+01   4.671669e+05   7.273865e+05   8.923146e+04   0.000000e+00   0.000000e+00   0.000000e+00   8.690790e+05   0.000000e+00   0.000000e+00   0.000000e+00
     1136000   1.135999e-05   5.407016e+00   2.763274e+01   1.304041e+01   4.671669e+05   7.273865e+05   8.923146e+04   0.000000e+00   0.000000e+00   0.000000e+00   8.690790e+05   0.000000e+00   0.000000e+00   0.000000e+00
     1144000   1.143999e-05   5.444390e+00   2.769093e+01   1.304754e+01   4.671669e+05   7.273865e+05   8.923146e+04   0.000000e+00   0.000000e+00   0.000000e+00   8.690790e+05   0.000000e+00   0.000000e+00   0.000000e+00
     1152000   1.151999e-05   5.481763e+00   2.774912e+01   1.305468e+01   4.671669e+05   7.273865e+05   8.923146e+04   0.000000e+00   0.000000e+00   0.000000e+00   8.690790e+05   0.000000e+00   0.000000e+00   0.000000e+00
     1160000   1.159999e-05   5.519136e+00   2.780731e+01   1.306182e+01   4.671669e+05   7.273865e+05   8.923146e+04   0.000000e+00   0.000000e+00   0.000000e+00   8.690790e+05   0.000000e+00   0.000000e+00   0.000000e+00
     1168000   1.167999e-05   5.556510e+00   2.786550e+01   1.306896e+01   4.671669e+05   7.273865e+05   8.923146e+04   0.000000e+00   0.000000e+00   0.000000e+00   8.690790e+05   0.000000e+00   0.000000e+00   0.000000e+00
     1176000   1.175999e-05   5.593883e+00   2.792369e+01   1.307610e+01   4.671669e+05   7.273865e+05   8.923146e+04   0.000000e+00   0.000000e+00   0.000000e+00   8.690790e+05   0.000000e+00   0.000000e+00   0.000000e+00
     1184000   1.183999e-05   5.631256e+00   2.798188e+01   1.308324e+01   4.671669e+05   7.273865e+05   8.923146e+04   0.000000e+00   0.000000e+00   0.000000e+00   8.690790e+05   0.000000e+00   0.000000e+00   0.000000e+00
     1192000   1.191999e-05   5.668630e+00   2.804007e+01   1.309038e+01   4.671669e+05   7.273865e+05   8.923146e+04   0.000000e+00   0.000000e+00   0.000000e+00   8.690790e+05   0.000000e+00   0.000000e+00   0.000000e+00
     1200000   1.199999e-05   5.706003e+00   2.809826e+01   1.309751e+01   4.671669e+05   7.273865e+05   8.923146e+04   0.000000e+00   0.000000e+00   0.000000e+00   8.690790e+05   0.000000e+00   0.000000e+00   0.000000e+00
     1208000   1.207999e-05   5.743376e+00   2.815645e+01   1.310465e+01   4.671669e+05   7.273865e+05   8.923146e+04   0.000000e+00   0.000000e+00   0.000000e+00   8.690790e+05   0.000000e+00   0.000000e+00   0.000000e+00
     1216000   1.215999e-05   5.780750e+00   2.821464e+01   1.311179e+01   4.671669e+05   7.273865e+05   8.923146e+04   0.000000e+00   0.000000e+00   0.000000e+00   8.690790e+05   0.000000e+00   0.000000e+00   0.000000e+00
     1224000   1.223999e-05   5.818123e+00   2.827284e+01   1.311893e+01   4.671669e+05   7.273865e+05   8.923146e+04   0.000000e+00   0.000000e+00   0.000000e+00   8.690790e+05   0.000000e+00   0.000000e+00   0.000000e+00
     1232000   1.231999e-05   5.855496e+00   2.833103e+01   1.312607e+01   4.671669e+05   7.273865e+05   8.923146e+04   0.000000e+00   0.000000e+00   0.000000e+00   8.690790e+05   0.000000e+00   0.000000e+00   0.000000e+00
     1240000   1.239999e-05   5.892870e+00   2.838922e+01   1.313321e+01   4.671669e+05   7.273865e+05   8.923146e+04   0.000000e+00   0.000000e+00   0.000000e+00   8.690790e+05   0.000000e+00   0.000000e+00   0.000000e+00
     1248000   1.247999e-05   5.930243e+00   2.844741e+01   1.314034e+01   4.671669e+05   7.273865e+05   8.923146e+04   0.000000e+00   0.000000e+00   0.000000e+00   8.690790e+05   0.000000e+00   0.000000e+00   0.000000e+00
     1256000   1.255999e-05   5.967617e+00   2.850560e+01   1.314748e+01   4.671669e+05   7.273865e+05   8.923146e+04   0.000000e+00   0.000000e+00   0.000000e+00   8.690790e+05   0.000000e+00   0.000000e+00   0.000000e+00
     1264000   1.263999e-05   6.004990e+00   2.856379e+01   1.315462e+01   4.671669e+05   7.273865e+05   8.923146e+04   0.000000e+00   0.000000e+00   0.000000e+00   8.690790e+05   0.000000e+00   0.000000e+00   0.000000e+00
     1272000   1.271999e-05   6.042363e+00   2.862198e+01   1.316176e+01   4.671669e+05   7.273865e+05   8.923146e+04   0.000000e+00   0.000000e+00   0.000000e+00   8.690790e+05   0.000000e+00   0.000000e+00   0.000000e+00
     1280000   1.279999e-05   6.079737e+00   2.868017e+01   1.316890e+01   4.671669e+05   7.273865e+05   8.923146e+04   0.000000e+00   0.000000e+00   0.000000e+00   8.690790e+05   0.000000e+00   0.000000e+00   0.000000e+00
     1288000   1.287999e-05   6.117110e+00   2.873836e+01   1.317604e+01   4.671669e+05   7.273865e+05   8.923146e+04   0.000000e+00   0.000000e+00   0.000000e+00   8.690790e+05   0.000000e+00   0.000000e+00   0.000000e+00
     1296000   1.295999e-05   6.154483e+00   2.879655e+01   1.318318e+01   4.671669e+05   7.273865e+05   8.923146e+04   0.000000e+00   0.000000e+00   0.000000e+00   8.690790e+05   0.000000e+00   0.000000e+00   0.000000e+00
     1304000   1.303999e-05   6.191857e+00   2.885474e+01   1.319031e+01   4.671669e+05   7.273865e+05   8.923146e+04   0.000000e+00   0.000000e+00   0.000000e+00   8.690790e+05   0.000000e+00   0.000000e+00   0.000000e+00
     1312000   1.311999e-05   6.229230e+00   2.891294e+01   1.319745e+01   4.671669e+05   7.273865e+05   8.923146e+04   0.000000e+00   0.000000e+00   0.000000e+00   8.690790e+05   0.000000e+00   0.000000e+00   0.000000e+00
     1320000   1.319999e-05   6.266603e+00   2.897113e+01   1.320459e+01   4.671669e+05   7.273865e+05   8.923146e+04   0.000000e+00   0.000000e+00   0.000000e+00   8.690790e+05   0.000000e+00   0.000000e+00   0.000000e+00
     1328000   1.327999e-05   6.303977e+00   2.902932e+01   1.321173e+01   4.671669e+05   7.273865e+05   8.923146e+04   0.000000e+00   0.000000e+00   0.000000e+00   8.690790e+05   0.000000e+00   0.000000e+00   0.000000e+00
     1336000   1.335999e-05   6.341350e+00   2.908751e+01   1.321887e+01   4.671669e+05   7.273865e+05   8.923146e+04   0.000000e+00   0.000000e+00   0.000000e+00   8.690790e+05   0.000000e+00   0.000000e+00   0.000000e+00
     1344000   1.343999e-05   6.378723e+00   2.914570e+01   1.322601e+01   4.671669e+05   7.273865e+05   8.923146e+04   0.000000e+00   0.000000e+00   0.000000e+00   8.690790e+05   0.000000e+00   0.000000e+00   0.000000e+00
     1352000   1.351999e-05   6.416097e+00   2.920389e+01   1.323315e+01   4.671669e+05   7.273865e+05   8.923146e+04   0.000000e+00   0.000000e+00   0.000000e+00   8.690790e+05   0.000000e+00   0.000000e+00   0.000000e+00
     1360000   1.359999e-05   6.453470e+00   2.926208e+01   1.324028e+01   4.671669e+05   7.273865e+05   8.923146e+04   0.000000e+00   0.000000e+00   0.000000e+00   8.690790e+05   0.000000e+00   0.000000e+00   0.000000e+00
     1368000   1.367999e-05   6.490843e+00   2.932027e+01   1.324742e+01   4.671669e+05   7.273865e+05   8.923146e+04   0.000000e+00   0.000000e+00   0.000000e+00   8.690790e+05   0.000000e+00   0.000000e+00   0.000000e+00
     1376000   1.375999e-05   6.528217e+00   2.937846e+01   1.325456e+01   4.671669e+05   7.273865e+05   8.923146e+04   0.000000e+00   0.000000e+00   0.000000e+00   8.690790e+05   0.000000e+00   0.000000e+00   0.000000e+00
     1384000   1.383999e-05   6.565590e+00   2.943665e+01   1.326170e+01   4.671669e+05   7.273865e+05   8.923146e+04   0.000000e+00   0.000000e+00   0.000000e+00   8.690790e+05   0.000000e+00   0.000000e+00   0.000000e+00
     1392000   1.391999e-05   6.602964e+00   2.949484e+01   1.326884e+01   4.671669e+05   7.273865e+05   8.923146e+04   0.000000e+00   0.000000e+00   0.000000e+00   8.690790e+05   0.000000e+00   0.000000e+00   0.000000e+00
     1400000   1.399999e-05   6.640337e+00   2.955304e+01   1.327598e+01   4.671669e+05   7.273865e+05   8.923146e+04   0.000000e+00   0.000000e+00   0.000000e+00   8.690790e+05   0.000000e+00   0.000000e+00   0.000000e+00
     1408000   1.407999e-05   6.677710e+00   2.961123e+01   1.328312e+01   4.671669e+05   7.273865e+05   8.923146e+04   0.000000e+00   0.000000e+00   0.000000e+00   8.690790e+05   0.000000e+00   0.000000e+00   0.000000e+00
     1416000   1.415999e-05   6.715084e+00   2.966942e+01   1.329025e+01   4.671669e+05   7.273865e+05   8.923146e+04   0.000000e+00   0.000000e+00   0.000000e+00   8.690790e+05   0.000000e+00   0.000000e+00   0.000000e+00
     1424000   1.423999e-05   6.752457e+00   2.972761e+01   1.329739e+01   4.671669e+05   7.273865e+05   8.923146e+04   0.000000e+00   0.000000e+00   0.000000e+00   8.690790e+05   0.000000e+00   0.000000e+00   0.000000e+00
     1432000   1.431999e-05   6.789830e+00   2.978580e+01   1.330453e+01   4.671669e+05   7.273865e+05   8.923146e+04   0.000000e+00   0.000000e+00   0.000000e+00   8.690790e+05   0.000000e+00   0.000000e+00   0.000000e+00
     1440000   1.439999e-05   6.827204e+00   2.984399e+01   1.331167e+01   4.671669e+05   7.273865e+05   8.923146e+04   0.000000e+00   0.000000e+00   0.000000e+00   8.690790e+05   0.000000e+00   0.000000e+00   0.000000e+00
     1448000   1.447999e-05   6.864577e+00   2.990218e+01   1.331881e+01   4.671669e+05   7.273865e+05   8.923146e+04   0.000000e+00   0.000000e+00   0.000000e+00   8.690790e+05   0.000000e+00   0.000000e+00   0.000000e+00
     1456000   1.455999e-05   6.901950e+00   2.996037e+01   1.332595e+01   4.671669e+05   7.273865e+05   8.923146e+04   0.000000e+00   0.000000e+00   0.000000e+00   8.690790e+05   0.000000e+00   0.000000e+00   0.000000e+00
     1464000   1.463999e-05   6.939324e+00   3.001856e+01   1.333308e+01   4.671669e+05   7.273865e+05   8.923146e+04   0.000000e+00   0.000000e+00   0.000000e+00   8.690790e+05   0.000000e+00   0.000000e+00   0.000000e+00
     1472000   1.471999e-05   6.976697e+00   3.007675e+01   1.334022e+01   4.671669e+05   7.273865e+05   8.923146e+04   0.000000e+00   0.000000e+00   0.000000e+00   8.690790e+05   0.000000e+00   0.000000e+00   0.000000e+00
     1480000   1.479999e-05   7.014070e+00   3.013494e+01   1.334736e+01   4.671669e+05   7.273865e+05   8.923146e+04   0.000000e+00   0.000000e+00   0.000000e+00   8.690790e+05   0.000000e+00   0.000000e+00   0.000000e+00
     1488000   1.487999e-05   7.051444e+00   3.019314e+01   1.335450e+01   4.671669e+05   7.273865e+05   8.923146e+04   0.000000e+00   0.000000e+00   0.000000e+00   8.690790e+05   0.000000e+00   0.000000e+00   0.000000e+00
     1496000   1.495999e-05   7.088817e+00   3.025133e+01   1.336164e+01   4.671669e+05   7.273865e+05   8.923146e+04   0.000000e+00   0.000000e+00   0.000000e+00   8.690790e+05   0.000000e+00   0.000000e+00   0.000000e+00
     1504000   1.503999e-05   7.126190e+00   3.030952e+01   1.336878e+01   4.671669e+05   7.273865e+05   8.923146e+04   0.000000e+00   0.000000e+00   0.000000e+00   8.690790e+05   0.000000e+00   0.000000e+00   0.000000e+00
     1512000   1.511999e-05   7.163564e+00   3.036771e+01   1.337592e+01   4.671669e+05   7.273865e+05   8.923146e+04   0.000000e+00   0.000000e+00   0.000000e+00   8.690790e+05   0.000000e+00   0.000000e+00   0.000000e+00
     1520000   1.519999e-05   7.200937e+00   3.042590e+01   1.338305e+01   4.671669e+05   7.273865e+05   8.923146e+04   0.000000e+00   0.000000e+00   0.000000e+00   8.690790e+05   0.000000e+00   0.000000e+00   0.000000e+00
     1528000   1.527999e-05   7.238311e+00   3.048409e+01   1.339019e+01   4.671669e+05   7.273865e+05   8.923146e+04   0.000000e+00   0.000000e+00   0.000000e+00   8.690790e+05   0.000000e+00   0.000000e+00   0.000000e+00
     1536000   1.535999e-05   7.275684e+00   3.054228e+01   1.339733e+01   4.671669e+05   7.273865e+05   8.923146e+04   0.000000e+00   0.000000e+00   0.000000e+00   8.690790e+05   0.000000e+00   0.000000e+00   0.000000e+00
     1544000   1.543999e-05   7.313057e+00   3.060047e+01   1.340447e+01   4.671669e+05   7.273865e+05   8.923146e+04   0.000000e+00   0.000000e+00   0.000000e+00   8.690790e+05   0.000000e+00   0.000000e+00   0.000000e+00
     1552000   1.551999e-05   7.350431e+00   3.065866e+01   1.341161e+01   4.671669e+05   7.273865e+05   8.923146e+04   0.000000e+00   0.000000e+00   0.000000e+00   8.690790e+05   0.000000e+00   0.000000e+00   0.000000e+00
     1560000   1.559999e-05   7.387804e+00   3.071685e+01   1.341875e+01   4.671669e+05   7.273865e+05   8.923146e+04   0.000000e+00   0.000000e+00   0.000000e+00   8.690790e+05   0.000000e+00   0.000000e+00   0.000000e+00
     1568000   1.567999e-05   7.425177e+00   3.077505e+01   1.342589e+01   4.671669e+05   7.273865e+05   8.923146e+04   0.000000e+00   0.000000e+00   0.000000e+00   8.690790e+05   0.000000e+00   0.000000e+00   0.000000e+00
     1576000   1.575999e-05   7.462551e+00   3.083324e+01   1.343302e+01   4.671669e+05   7.273865e+05   8.923146e+04   0.000000e+00   0.000000e+00   0.000000e+00   8.690790e+05   0.000000e+00   0.000000e+00   0.000000e+00
     1584000   1.583999e-05   7.499924e+00   3.089143e+01   1.344016e+01   4.671669e+05   7.273865e+05   8.923146e+04   0.000000e+00   0.000000e+00   0.000000e+00   8.690790e+05   0.000000e+00   0.000000e+00   0.000000e+00
     1592000   1.591999e-05   7.537297e+00   3.094962e+01   1.344730e+01   4.671669e+05   7.273865e+05   8.923146e+04   0.000000e+00   0.000000e+00   0.000000e+00   8.690790e+05   0.000000e+00   0.000000e+00   0.000000e+00
     1600000   1.599999e-05   7.574671e+00   3.100781e+01   1.345444e+01   4.671669e+05   7.273865e+05   8.923146e+04   0.000000e+00   0.000000e+00   0.000000e+00   8.690790e+05   0.000000e+00   0.000000e+00   0.000000e+00
     1608000   1.607999e-05   7.612044e+00   3.106600e+01   1.346158e+01   4.671669e+05   7.273865e+05   8.923146e+04   0.000000e+00   0.000000e+00   0.000000e+00   8.690790e+05   0.000000e+00   0.000000e+00   0.000000e+00
     1616000   1.615999e-05   7.649417e+00   3.112419e+01   1.346872e+01   4.671669e+05   7.273865e+05   8.923146e+04   0.000000e+00   0.000000e+00   0.000000e+00   8.690790e+05   0.000000e+00   0.000000e+00   0.000000e+00
     1624000   1.623999e-05   7.686791e+00   3.118238e+01   1.347585e+01   4.671669e+05   7.273865e+05   8.923146e+04   0.000000e+00   0.000000e+00   0.000000e+00   8.690790e+05   0.000000e+00   0.000000e+00   0.000000e+00
     1632000   1.631999e-05   7.724164e+00   3.124057e+01   1.348299e+01   4.671669e+05   7.273865e+05   8.923146e+04   0.000000e+00   0.000000e+00   0.000000e+00   8.690790e+05   0.000000e+00   0.000000e+00   0.000000e+00
     1640000   1.639999e-05   7.761538e+00   3.129876e+01   1.349013e+01   4.671669e+05   7.273865e+05   8.923146e+04   0.000000e+00   0.000000e+00   0.000000e+00   8.690790e+05   0.000000e+00   0.000000e+00   0.000000e+00
     1648000   1.647999e-05   7.798911e+00   3.135695e+01   1.349727e+01   4.671669e+05   7.273865e+05   8.923146e+04   0.000000e+00   0.000000e+00   0.000000e+00   8.690790e+05   0.000000e+00   0.000000e+00   0.000000e+00
     1656000   1.655999e-05   7.836284e+00   3.141515e+01   1.350441e+01   4.671669e+05   7.273865e+05   8.923146e+04   0.000000e+00   0.000000e+00   0.000000e+00   8.690790e+05   0.000000e+00   0.000000e+00   0.000000e+00
     1664000   1.663999e-05   7.873658e+00   3.147334e+01   1.351155e+01   4.671669e+05   7.273865e+05   8.923146e+04   0.000000e+00   0.000000e+00   0.000000e+00   8.690790e+05   0.000000e+00   0.000000e+00   0.000000e+00
     1672000   1.671999e-05   7.911031e+00   3.153153e+01   1.351869e+01   4.671669e+05   7.273865e+05   8.923146e+04   0.000000e+00   0.000000e+00   0.000000e+00   8.690790e+05   0.000000e+00   0.000000e+00   0.000000e+00
     1680000   1.679999e-05   7.948404e+00   3.158972e+01   1.352582e+01   4.671669e+05   7.273865e+05   8.923146e+04   0.000000e+00   0.000000e+00   0.000000e+00   8.690790e+05   0.000000e+00   0.000000e+00   0.000000e+00
     1688000   1.687999e-05   7.985778e+00   3.164791e+01   1.353296e+01   4.671669e+05   7.273865e+05   8.923146e+04   0.000000e+00   0.000000e+00   0.000000e+00   8.690790e+05   0.000000e+00   0.000000e+00   0.000000e+00
     1696000   1.695999e-05   8.023151e+00   3.170610e+01   1.354010e+01   4.671669e+05   7.273865e+05   8.923146e+04   0.000000e+00   0.000000e+00   0.000000e+00   8.690790e+05   0.000000e+00   0.000000e+00   0.000000e+00
     1704000   1.703999e-05   8.060524e+00   3.176429e+01   1.354724e+01   4.671669e+05   7.273865e+05   8.923146e+04   0.000000e+00   0.000000e+00   0.000000e+00   8.690790e+05   0.000000e+00   0.000000e+00   0.000000e+00
     1712000   1.711999e-05   8.097898e+00   3.182248e+01   1.355438e+01   4.671669e+05   7.273865e+05   8.923146e+04   0.000000e+00   0.000000e+00   0.000000e+00   8.690790e+05   0.000000e+00   0.000000e+00   0.000000e+00
     1720000   1.719999e-05   8.135271e+00   3.188067e+01   1.356152e+01   4.671669e+05   7.273865e+05   8.923146e+04   0.000000e+00   0.000000e+00   0.000000e+00   8.690790e+05   0.000000e+00   0.000000e+00   0.000000e+00
     1728000   1.727999e-05   8.172644e+00   3.193886e+01   1.356866e+01   4.671669e+05   7.273865e+05   8.923146e+04   0.000000e+00   0.000000e+00   0.000000e+00   8.690790e+05   0.000000e+00   0.000000e+00   0.000000e+00
     1736000   1.735999e-05   8.210018e+00   3.199705e+01   1.357579e+01   4.671669e+05   7.273865e+05   8.923146e+04   0.000000e+00   0.000000e+00   0.000000e+00   8.690790e+05   0.000000e+00   0.000000e+00   0.000000e+00
     1744000   1.743999e-05   8.247391e+00   3.205525e+01   1.358293e+01   4.671669e+05   7.273865e+05   8.923146e+04   0.000000e+00   0.000000e+00   0.000000e+00   8.690790e+05   0.000000e+00   0.000000e+00   0.000000e+00
     1752000   1.751999e-05   8.284764e+00   3.211344e+01   1.359007e+01   4.671669e+05   7.273865e+05   8.923146e+04   0.000000e+00   0.000000e+00   0.000000e+00   8.690790e+05   0.000000e+00   0.000000e+00   0.000000e+00
     1760000   1.759999e-05   8.322138e+00   3.217163e+01   1.359721e+01   4.671669e+05   7.273865e+05   8.923146e+04   0.000000e+00   0.000000e+00   0.000000e+00   8.690790e+05   0.000000e+00   0.000000e+00   0.000000e+00
     1768000   1.767999e-05   8.359511e+00   3.222982e+01   1.360435e+01   4.671669e+05   7.273865e+05   8.923146e+04   0.000000e+00   0.000000e+00   0.000000e+00   8.690790e+05   0.000000e+00   0.000000e+00   0.000000e+00
     1776000   1.775999e-05   8.396885e+00   3.228801e+01   1.361149e+01   4.671669e+05   7.273865e+05   8.923146e+04   0.000000e+00   0.000000e+00   0.000000e+00   8.690790e+05   0.000000e+00   0.000000e+00   0.000000e+00
     1784000   1.783999e-05   8.434258e+00   3.234620e+01   1.361863e+01   4.671669e+05   7.273865e+05   8.923146e+04   0.000000e+00   0.000000e+00   0.000000e+00   8.690790e+05   0.000000e+00   0.000000e+00   0.000000e+00
     1792000   1.791999e-05   8.471631e+00   3.240439e+01   1.362576e+01   4.671669e+05   7.273865e+05   8.923146e+04   0.000000e+00   0.000000e+00   0.000000e+00   8.690790e+05   0.000000e+00   0.000000e+00   0.000000e+00
     1800000   1.799999e-05   8.509005e+00   3.246258e+01   1.363290e+01   4.671669e+05   7.273865e+05   8.923146e+04   0.000000e+00   0.000000e+00   0.000000e+00   8.690790e+05   0.000000e+00   0.000000e+00   0.000000e+00
     1808000   1.807999e-05   8.546378e+00   3.252077e+01   1.364004e+01   4.671669e+05   7.273865e+05   8.923146e+04   0.000000e+00   0.000000e+00   0.000000e+00   8.690790e+05   0.000000e+00   0.000000e+00   0.000000e+00
     1816000   1.815999e-05   8.583751e+00   3.257896e+01   1.364718e+01   4.671669e+05   7.273865e+05   8.923146e+04   0.000000e+00   0.000000e+00   0.000000e+00   8.690790e+05   0.000000e+00   0.000000e+00   0.000000e+00
     1824000   1.823999e-05   8.621125e+00   3.263715e+01   1.365432e+01   4.671669e+05   7.273865e+05   8.923146e+04   0.000000e+00   0.000000e+00   0.000000e+00   8.690790e+05   0.000000e+00   0.000000e+00   0.000000e+00
     1832000   1.831999e-05   8.658498e+00   3.269535e+01   1.366146e+01   4.671669e+05   7.273865e+05   8.923146e+04   0.000000e+00   0.000000e+00   0.000000e+00   8.690790e+05   0.000000e+00   0.000000e+00   0.000000e+00
     1840000   1.839999e-05   8.695871e+00   3.275354e+01   1.366859e+01   4.671669e+05   7.273865e+05   8.923146e+04   0.000000e+00   0.000000e+00   0.000000e+00   8.690790e+05   0.000000e+00   0.000000e+00   0.000000e+00
     1848000   1.847999e-05   8.733245e+00   3.281173e+01   1.367573e+01   4.671669e+05   7.273865e+05   8.923146e+04   0.000000e+00   0.000000e+00   0.000000e+00   8.690790e+05   0.000000e+00   0.000000e+00   0.000000e+00
     1856000   1.855999e-05   8.770618e+00   3.286992e+01   1.368287e+01   4.671669e+05   7.273865e+05   8.923146e+04   0.000000e+00   0.000000e+00   0.000000e+00   8.690790e+05   0.000000e+00   0.000000e+00   0.000000e+00
     1864000   1.863999e-05   8.807991e+00   3.292811e+01   1.369001e+01   4.671669e+05   7.273865e+05   8.923146e+04   0.000000e+00   0.000000e+00   0.000000e+00   8.690790e+05   0.000000e+00   0.000000e+00   0.000000e+00
     1872000   1.871999e-05   8.845365e+00   3.298630e+01   1.369715e+01   4.671669e+05   7.273865e+05   8.923146e+04   0.000000e+00   0.000000e+00   0.000000e+00   8.690790e+05   0.000000e+00   0.000000e+00   0.000000e+00
     1880000   1.879999e-05   8.882738e+00   3.304449e+01   1.370429e+01   4.671669e+05   7.273865e+05   8.923146e+04   0.000000e+00   0.000000e+00   0.000000e+00   8.690790e+05   0.000000e+00   0.000000e+00   0.000000e+00
     1888000   1.887999e-05   8.920111e+00   3.310268e+01   1.371143e+01   4.671669e+05   7.273865e+05   8.923146e+04   0.000000e+00   0.000000e+00   0.000000e+00   8.690790e+05   0.000000e+00   0.000000e+00   0.000000e+00
     1896000   1.895999e-05   8.957485e+00   3.316087e+01   1.371856e+01   4.671669e+05   7.273865e+05   8.923146e+04   0.000000e+00   0.000000e+00   0.000000e+00   8.690790e+05   0.000000e+00   0.000000e+00   0.000000e+00
     1904000   1.903999e-05   8.994858e+00   3.321906e+01   1.372570e+01   4.671669e+05   7.273865e+05   8.923146e+04   0.000000e+00   0.000000e+00   0.000000e+00   8.690790e+05   0.000000e+00   0.000000e+00   0.000000e+00
     1912000   1.911999e-05   9.032232e+00   3.327725e+01   1.373284e+01   4.671669e+05   7.273865e+05   8.923146e+04   0.000000e+00   0.000000e+00   0.000000e+00   8.690790e+05   0.000000e+00   0.000000e+00   0.000000e+00
     1920000   1.919999e-05   9.069605e+00   3.333545e+01   1.373998e+01   4.671669e+05   7.273865e+05   8.923146e+04   0.000000e+00   0.000000e+00   0.000000e+00   8.690790e+05   0.000000e+00   0.000000e+00   0.000000e+00
     1928000   1.927999e-05   9.106978e+00   3.339364e+01   1.374712e+01   4.671669e+05   7.273865e+05   8.923146e+04   0.000000e+00   0.000000e+00   0.000000e+00   8.690790e+05   0.000000e+00   0.000000e+00   0.000000e+00
     1936000   1.935999e-05   9.144352e+00   3.345183e+01   1.375426e+01   4.671669e+05   7.273865e+05   8.923146e+04   0.000000e+00   0.000000e+00   0.000000e+00   8.690790e+05   0.000000e+00   0.000000e+00   0.000000e+00
     1944000   1.943999e-05   9.181725e+00   3.351002e+01   1.376140e+01   4.671669e+05   7.273865e+05   8.923146e+04   0.000000e+00   0.000000e+00   0.000000e+00   8.690790e+05   0.000000e+00   0.000000e+00   0.000000e+00
     1952000   1.951999e-05   9.219098e+00   3.356821e+01   1.376853e+01   4.671669e+05   7.273865e+05   8.923146e+04   0.000000e+00   0.000000e+00   0.000000e+00   8.690790e+05   0.000000e+00   0.000000e+00   0.000000e+00
     1960000   1.959999e-05   9.256472e+00   3.362640e+01   1.377567e+01   4.671669e+05   7.273865e+05   8.923146e+04   0.000000e+00   0.000000e+00   0.000000e+00   8.690790e+05   0.000000e+00   0.000000e+00   0.000000e+00
     1968000   1.967999e-05   9.293845e+00   3.368459e+01   1.378281e+01   4.671669e+05   7.273865e+05   8.923146e+04   0.000000e+00   0.000000e+00   0.000000e+00   8.690790e+05   0.000000e+00   0.000000e+00   0.000000e+00
     1976000   1.975999e-05   9.331218e+00   3.374278e+01   1.378995e+01   4.671669e+05   7.273865e+05   8.923146e+04   0.000000e+00   0.000000e+00   0.000000e+00   8.690790e+05   0.000000e+00   0.000000e+00   0.000000e+00
     1984000   1.983999e-05   9.368592e+00   3.380097e+01   1.379709e+01   4.671669e+05   7.273865e+05   8.923146e+04   0.000000e+00   0.000000e+00   0.000000e+00   8.690790e+05   0.000000e+00   0.000000e+00   0.000000e+00
     1992000   1.991999e-05   9.405965e+00   3.385916e+01   1.380423e+01   4.671669e+05   7.273865e+05   8.923146e+04   0.000000e+00   0.000000e+00   0.000000e+00   8.690790e+05   0.000000e+00   0.000000e+00   0.000000e+00
     2000000   1.999999e-05   9.443338e+00   3.391735e+01   1.381137e+01   4.671669e+05   7.273865e+05   8.923146e+04   0.000000e+00   0.000000e+00   0.000000e+00   8.690790e+05   0.000000e+00   0.000000e+00   0.000000e+00
     2008000   2.007999e-05   9.480712e+00   3.397555e+01   1.381850e+01   4.671669e+05   7.273865e+05   8.923146e+04   0.000000e+00   0.000000e+00   0.000000e+00   8.690790e+05   0.000000e+00   0.000000e+00   0.000000e+00
     2016000   2.015999e-05   9.518085e+00   3.403374e+01   1.382564e+01   4.671669e+05   7.273865e+05   8.923146e+04   0.000000e+00   0.000000e+00   0.000000e+00   8.690790e+05   0.000000e+00   0.000000e+00   0.000000e+00
     2024000   2.023999e-05   9.555458e+00   3.409193e+01   1.383278e+01   4.671669e+05   7.273865e+05   8.923146e+04   0.000000e+00   0.000000e+00   0.000000e+00   8.690790e+05   0.000000e+00   0.000000e+00   0.000000e+00
     2032000   2.031999e-05   9.592832e+00   3.415012e+01   1.383992e+01   4.671669e+05   7.273865e+05   8.923146e+04   0.000000e+00   0.000000e+00   0.000000e+00   8.690790e+05   0.000000e+00   0.000000e+00   0.000000e+00
     2040000   2.039999e-05   9.630205e+00   3.420831e+01   1.384706e+01   4.671669e+05   7.273865e+05   8.923146e+04   0.000000e+00   0.000000e+00   0.000000e+00   8.690790e+05   0.000000e+00   0.000000e+00   0.000000e+00
     2048000   2.047999e-05   9.667579e+00   3.426650e+01   1.385420e+01   4.671669e+05   7.273865e+05   8.923146e+04   0.000000e+00   0.000000e+00   0.000000e+00   8.690790e+05   0.000000e+00   0.000000e+00   0.000000e+00
     2056000   2.055999e-05   9.704952e+00   3.432469e+01   1.386133e+01   4.671669e+05   7.273865e+05   8.923146e+04   0.000000e+00   0.000000e+00   0.000000e+00   8.690790e+05   0.000000e+00   0.000000e+00   0.000000e+00
     2064000   2.063999e-05   9.742325e+00   3.438288e+01   1.386847e+01   4.671669e+05   7.273865e+05   8.923146e+04   0.000000e+00   0.000000e+00   0.000000e+00   8.690790e+05   0.000000e+00   0.000000e+00   0.000000e+00
     2072000   2.071999e-05   9.779699e+00   3.444107e+01   1.387561e+01   4.671669e+05   7.273865e+05   8.923146e+04   0.000000e+00   0.000000e+00   0.000000e+00   8.690790e+05   0.000000e+00   0.000000e+00   0.000000e+00
     2080000   2.079999e-05   9.817072e+00   3.449926e+01   1.388275e+01   4.671669e+05   7.273865e+05   8.923146e+04   0.000000e+00   0.000000e+00   0.000000e+00   8.690790e+05   0.000000e+00   0.000000e+00   0.000000e+00
     2088000   2.087999e-05   9.854445e+00   3.455745e+01   1.388989e+01   4.671669e+05   7.273865e+05   8.923146e+04   0.000000e+00   0.000000e+00   0.000000e+00   8.690790e+05   0.000000e+00   0.000000e+00   0.000000e+00
     2096000   2.095999e-05   9.891819e+00   3.461565e+01   1.389703e+01   4.671669e+05   7.273865e+05   8.923146e+04   0.000000e+00   0.000000e+00   0.000000e+00   8.690790e+05   0.000000e+00   0.000000e+00   0.000000e+00
     2104000   2.103999e-05   9.929192e+00   3.467384e+01   1.390417e+01   4.671669e+05   7.273865e+05   8.923146e+04   0.000000e+00   0.000000e+00   0.000000e+00   8.690790e+05   0.000000e+00   0.000000e+00   0.000000e+00
     2112000   2.111999e-05   9.966565e+00   3.473203e+01   1.391130e+01   4.671669e+05   7.273865e+05   8.923146e+04   0.000000e+00   0.000000e+00   0.000000e+00   8.690790e+05   0.000000e+00   0.000000e+00   0.000000e+00
     2120000   2.119999e-05   1.000394e+01   3.479022e+01   1.391844e+01   4.671669e+05   7.273865e+05   8.923146e+04   0.000000e+00   0.000000e+00   0.000000e+00   8.690790e+05   0.000000e+00   0.000000e+00   0.000000e+00
     2128000   2.127999e-05   1.004131e+01   3.484841e+01   1.392558e+01   4.671669e+05   7.273865e+05   8.923146e+04   0.000000e+00   0.000000e+00   0.000000e+00   8.690790e+05   0.000000e+00   0.000000e+00   0.000000e+00
     2136000   2.135999e-05   1.007869e+01   3.490660e+01   1.393272e+01   4.671669e+05   7.273865e+05   8.923146e+04   0.000000e+00   0.000000e+00   0.000000e+00   8.690790e+05   0.000000e+00   0.000000e+00   0.000000e+00
     2144000   2.143999e-05   1.011606e+01   3.496479e+01   1.393986e+01   4.671669e+05   7.273865e+05   8.923146e+04   0.000000e+00   0.000000e+00   0.000000e+00   8.690790e+05   0.000000e+00   0.000000e+00   0.000000e+00
     2152000   2.151999e-05   1.015343e+01   3.502298e+01   1.394700e+01   4.671669e+05   7.273865e+05   8.923146e+04   0.000000e+00   0.000000e+00   0.000000e+00   8.690790e+05   0.000000e+00   0.000000e+00   0.000000e+00
     2160000   2.159999e-05   1.019081e+01   3.508117e+01   1.395414e+01   4.671669e+05   7.273865e+05   8.923146e+04   0.000000e+00   0.000000e+00   0.000000e+00   8.690790e+05   0.000000e+00   0.000000e+00   0.000000e+00
     2168000   2.167999e-05   1.022818e+01   3.513936e+01   1.396127e+01   4.671669e+05   7.273865e+05   8.923146e+04   0.000000e+00   0.000000e+00   0.000000e+00   8.690790e+05   0.000000e+00   0.000000e+00   0.000000e+00
     2176000   2.175999e-05   1.026555e+01   3.519755e+01   1.396841e+01   4.671669e+05   7.273865e+05   8.923146e+04   0.000000e+00   0.000000e+00   0.000000e+00   8.690790e+05   0.000000e+00   0.000000e+00   0.000000e+00
     2184000   2.183999e-05   1.030293e+01   3.525575e+01   1.397555e+01   4.671669e+05   7.273865e+05   8.923146e+04   0.000000e+00   0.000000e+00   0.000000e+00   8.690790e+05   0.000000e+00   0.000000e+00   0.000000e+00
     2192000   2.191999e-05   1.034030e+01   3.531394e+01   1.398269e+01   4.671669e+05   7.273865e+05   8.923146e+04   0.000000e+00   0.000000e+00   0.000000e+00   8.690790e+05   0.000000e+00   0.000000e+00   0.000000e+00
     2200000   2.199999e-05   1.037767e+01   3.537213e+01   1.398983e+01   4.671669e+05   7.273865e+05   8.923146e+04   0.000000e+00   0.000000e+00   0.000000e+00   8.690790e+05   0.000000e+00   0.000000e+00   0.000000e+00
     2208000   2.207999e-05   1.041505e+01   3.543032e+01   1.399697e+01   4.671669e+05   7.273865e+05   8.923146e+04   0.000000e+00   0.000000e+00   0.000000e+00   8.690790e+05   0.000000e+00   0.000000e+00   0.000000e+00
     2216000   2.215999e-05   1.045242e+01   3.548851e+01   1.400411e+01   4.671669e+05   7.273865e+05   8.923146e+04   0.000000e+00   0.000000e+00   0.000000e+00   8.690790e+05   0.000000e+00   0.000000e+00   0.000000e+00
     2224000   2.223999e-05   1.048979e+01   3.554670e+01   1.401124e+01   4.671669e+05   7.273865e+05   8.923146e+04   0.000000e+00   0.000000e+00   0.000000e+00   8.690790e+05   0.000000e+00   0.000000e+00   0.000000e+00
     2232000   2.231999e-05   1.052717e+01   3.560489e+01   1.401838e+01   4.671669e+05   7.273865e+05   8.923146e+04   0.000000e+00   0.000000e+00   0.000000e+00   8.690790e+05   0.000000e+00   0.000000e+00   0.000000e+00
     2240000   2.239999e-05   1.056454e+01   3.566308e+01   1.402552e+01   4.671669e+05   7.273865e+05   8.923146e+04   0.000000e+00   0.000000e+00   0.000000e+00   8.690790e+05   0.000000e+00   0.000000e+00   0.000000e+00
     2248000   2.247999e-05   1.060191e+01   3.572127e+01   1.403266e+01   4.671669e+05   7.273865e+05   8.923146e+04   0.000000e+00   0.000000e+00   0.000000e+00   8.690790e+05   0.000000e+00   0.000000e+00   0.000000e+00
     2256000   2.255999e-05   1.063929e+01   3.577946e+01   1.403980e+01   4.671669e+05   7.273865e+05   8.923146e+04   0.000000e+00   0.000000e+00   0.000000e+00   8.690790e+05   0.000000e+00   0.000000e+00   0.000000e+00
     2264000   2.263999e-05   1.067666e+01   3.583765e+01   1.404694e+01   4.671669e+05   7.273865e+05   8.923146e+04   0.000000e+00   0.000000e+00   0.000000e+00   8.690790e+05   0.000000e+00   0.000000e+00   0.000000e+00
     2272000   2.271999e-05   1.071403e+01   3.589585e+01   1.405407e+01   4.671669e+05   7.273865e+05   8.923146e+04   0.000000e+00   0.000000e+00   0.000000e+00   8.690790e+05   0.000000e+00   0.000000e+00   0.000000e+00
     2280000   2.279999e-05   1.075141e+01   3.595404e+01   1.406121e+01   4.671669e+05   7.273865e+05   8.923146e+04   0.000000e+00   0.000000e+00   0.000000e+00   8.690790e+05   0.000000e+00   0.000000e+00   0.000000e+00
     2288000   2.287999e-05   1.078878e+01   3.601223e+01   1.406835e+01   4.671669e+05   7.273865e+05   8.923146e+04   0.000000e+00   0.000000e+00   0.000000e+00   8.690790e+05   0.000000e+00   0.000000e+00   0.000000e+00
     2296000   2.295999e-05   1.082615e+01   3.607042e+01   1.407549e+01   4.671669e+05   7.273865e+05   8.923146e+04   0.000000e+00   0.000000e+00   0.000000e+00   8.690790e+05   0.000000e+00   0.000000e+00   0.000000e+00
     2304000   2.303999e-05   1.086353e+01   3.612861e+01   1.408263e+01   4.671669e+05   7.273865e+05   8.923146e+04   0.000000e+00   0.000000e+00   0.000000e+00   8.690790e+05   0.000000e+00   0.000000e+00   0.000000e+00
     2312000   2.311999e-05   1.090090e+01   3.618680e+01   1.408977e+01   4.671669e+05   7.273865e+05   8.923146e+04   0.000000e+00   0.000000e+00   0.000000e+00   8.690790e+05   0.000000e+00   0.000000e+00   0.000000e+00
     2320000   2.319999e-05   1.093827e+01   3.624499e+01   1.409691e+01   4.671669e+05   7.273865e+05   8.923146e+04   0.000000e+00   0.000000e+00   0.000000e+00   8.690790e+05   0.000000e+00   0.000000e+00   0.000000e+00
     2328000   2.327999e-05   1.097565e+01   3.630318e+01   1.410404e+01   4.671669e+05   7.273865e+05   8.923146e+04   0.000000e+00   0.000000e+00   0.000000e+00   8.690790e+05   0.000000e+00   0.000000e+00   0.000000e+00
     2336000   2.335999e-05   1.101302e+01   3.636137e+01   1.411118e+01   4.671669e+05   7.273865e+05   8.923146e+04   0.000000e+00   0.000000e+00   0.000000e+00   8.690790e+05   0.000000e+00   0.000000e+00   0.000000e+00
     2344000   2.343999e-05   1.105039e+01   3.641956e+01   1.411832e+01   4.671669e+05   7.273865e+05   8.923146e+04   0.000000e+00   0.000000e+00   0.000000e+00   8.690790e+05   0.000000e+00   0.000000e+00   0.000000e+00
     2352000   2.351999e-05   1.108777e+01   3.647776e+01   1.412546e+01   4.671669e+05   7.273865e+05   8.923146e+04   0.000000e+00   0.000000e+00   0.000000e+00   8.690790e+05   0.000000e+00   0.000000e+00   0.000000e+00
     2360000   2.359999e-05   1.112514e+01   3.653595e+01   1.413260e+01   4.671669e+05   7.273865e+05   8.923146e+04   0.000000e+00   0.000000e+00   0.000000e+00   8.690790e+05   0.000000e+00   0.000000e+00   0.000000e+00
     2368000   2.367999e-05   1.116251e+01   3.659414e+01   1.413974e+01   4.671669e+05   7.273865e+05   8.923146e+04   0.000000e+00   0.000000e+00   0.000000e+00   8.690790e+05   0.000000e+00   0.000000e+00   0.000000e+00
     2376000   2.375999e-05   1.119989e+01   3.665233e+01   1.414688e+01   4.671669e+05   7.273865e+05   8.923146e+04   0.000000e+00   0.000000e+00   0.000000e+00   8.690790e+05   0.000000e+00   0.000000e+00   0.000000e+00
     2384000   2.383999e-05   1.123726e+01   3.671052e+01   1.415401e+01   4.671669e+05   7.273865e+05   8.923146e+04   0.000000e+00   0.000000e+00   0.000000e+00   8.690790e+05   0.000000e+00   0.000000e+00   0.000000e+00
     2392000   2.391999e-05   1.127463e+01   3.676871e+01   1.416115e+01   4.671669e+05   7.273865e+05   8.923146e+04   0.000000e+00   0.000000e+00   0.000000e+00   8.690790e+05   0.000000e+00   0.000000e+00   0.000000e+00
     2400000   2.399999e-05   1.131201e+01   3.682690e+01   1.416829e+01   4.671669e+05   7.273865e+05   8.923146e+04   0.000000e+00   0.000000e+00   0.000000e+00   8.690790e+05   0.000000e+00   0.000000e+00   0.000000e+00
     2408000   2.407999e-05   1.134938e+01   3.688509e+01   1.417543e+01   4.671669e+05   7.273865e+05   8.923146e+04   0.000000e+00   0.000000e+00   0.000000e+00   8.690790e+05   0.000000e+00   0.000000e+00   0.000000e+00
     2416000   2.415999e-05   1.138675e+01   3.694328e+01   1.418257e+01   4.671669e+05   7.273865e+05   8.923146e+04   0.000000e+00   0.000000e+00   0.000000e+00   8.690790e+05   0.000000e+00   0.000000e+00   0.000000e+00
     2424000   2.423999e-05   1.142413e+01   3.700147e+01   1.418971e+01   4.671669e+05   7.273865e+05   8.923146e+04   0.000000e+00   0.000000e+00   0.000000e+00   8.690790e+05   0.000000e+00   0.000000e+00   0.000000e+00
     2432000   2.431999e-05   1.146150e+01   3.705966e+01   1.419685e+01   4.671669e+05   7.273865e+05   8.923146e+04   0.000000e+00   0.000000e+00   0.000000e+00   8.690790e+05   0.000000e+00   0.000000e+00   0.000000e+00
     2440000   2.439999e-05   1.149887e+01   3.711786e+01   1.420398e+01   4.671669e+05   7.273865e+05   8.923146e+04   0.000000e+00   0.000000e+00   0.000000e+00   8.690790e+05   0.000000e+00   0.000000e+00   0.000000e+00
     2448000   2.447999e-05   1.153625e+01   3.717605e+01   1.421112e+01   4.671669e+05   7.273865e+05   8.923146e+04   0.000000e+00   0.000000e+00   0.000000e+00   8.690790e+05   0.000000e+00   0.000000e+00   0.000000e+00
     2456000   2.455999e-05   1.157362e+01   3.723424e+01   1.421826e+01   4.671669e+05   7.273865e+05   8.923146e+04   0.000000e+00   0.000000e+00   0.000000e+00   8.690790e+05   0.000000e+00   0.000000e+00   0.000000e+00
     2464000   2.463999e-05   1.161099e+01   3.729243e+01   1.422540e+01   4.671669e+05   7.273865e+05   8.923146e+04   0.000000e+00   0.000000e+00   0.000000e+00   8.690790e+05   0.000000e+00   0.000000e+00   0.000000e+00
     2472000   2.471999e-05   1.164837e+01   3.735062e+01   1.423254e+01   4.671669e+05   7.273865e+05   8.923146e+04   0.000000e+00   0.000000e+00   0.000000e+00   8.690790e+05   0.000000e+00   0.000000e+00   0.000000e+00
     2480000   2.479999e-05   1.168574e+01   3.740881e+01   1.423968e+01   4.671669e+05   7.273865e+05   8.923146e+04   0.000000e+00   0.000000e+00   0.000000e+00   8.690790e+05   0.000000e+00   0.000000e+00   0.000000e+00
     2488000   2.487999e-05   1.172311e+01   3.746700e+01   1.424681e+01   4.671669e+05   7.273865e+05   8.923146e+04   0.000000e+00   0.000000e+00   0.000000e+00   8.690790e+05   0.000000e+00   0.000000e+00   0.000000e+00
     2496000   2.495999e-05   1.176049e+01   3.752519e+01   1.425395e+01   4.671669e+05   7.273865e+05   8.923146e+04   0.000000e+00   0.000000e+00   0.000000e+00   8.690790e+05   0.000000e+00   0.000000e+00   0.000000e+00
     2504000   2.503999e-05   1.179786e+01   3.758338e+01   1.426109e+01   4.671669e+05   7.273865e+05   8.923146e+04   0.000000e+00   0.000000e+00   0.000000e+00   8.690790e+05   0.000000e+00   0.000000e+00   0.000000e+00
     2512000   2.511999e-05   1.183523e+01   3.764157e+01   1.426823e+01   4.671669e+05   7.273865e+05   8.923146e+04   0.000000e+00   0.000000e+00   0.000000e+00   8.690790e+05   0.000000e+00   0.000000e+00   0.000000e+00
     2520000   2.519999e-05   1.187261e+01   3.769976e+01   1.427537e+01   4.671669e+05   7.273865e+05   8.923146e+04   0.000000e+00   0.000000e+00   0.000000e+00   8.690790e+05   0.000000e+00   0.000000e+00   0.000000e+00
     2528000   2.527999e-05   1.190998e+01   3.775796e+01   1.428251e+01   4.671669e+05   7.273865e+05   8.923146e+04   0.000000e+00   0.000000e+00   0.000000e+00   8.690790e+05   0.000000e+00   0.000000e+00   0.000000e+00
     2536000   2.535999e-05   1.194735e+01   3.781615e+01   1.428965e+01   4.671669e+05   7.273865e+05   8.923146e+04   0.000000e+00   0.000000e+00   0.000000e+00   8.690790e+05   0.000000e+00   0.000000e+00   0.000000e+00
     2544000   2.543999e-05   1.198473e+01   3.787434e+01   1.429678e+01   4.671669e+05   7.273865e+05   8.923146e+04   0.000000e+00   0.000000e+00   0.000000e+00   8.690790e+05   0.000000e+00   0.000000e+00   0.000000e+00
     2552000   2.551999e-05   1.202210e+01   3.793253e+01   1.430392e+01   4.671669e+05   7.273865e+05   8.923146e+04   0.000000e+00   0.000000e+00   0.000000e+00   8.690790e+05   0.000000e+00   0.000000e+00   0.000000e+00
     2560000   2.559999e-05   1.205947e+01   3.799072e+01   1.431106e+01   4.671669e+05   7.273865e+05   8.923146e+04   0.000000e+00   0.000000e+00   0.000000e+00   8.690790e+05   0.000000e+00   0.000000e+00   0.000000e+00
     2568000   2.567999e-05   1.209685e+01   3.804891e+01   1.431820e+01   4.671669e+05   7.273865e+05   8.923146e+04   0.000000e+00   0.000000e+00   0.000000e+00   8.690790e+05   0.000000e+00   0.000000e+00   0.000000e+00
     2576000   2.575999e-05   1.213422e+01   3.810710e+01   1.432534e+01   4.671669e+05   7.273865e+05   8.923146e+04   0.000000e+00   0.000000e+00   0.000000e+00   8.690790e+05   0.000000e+00   0.000000e+00   0.000000e+00
     2584000   2.583999e-05   1.217159e+01   3.816529e+01   1.433248e+01   4.671669e+05   7.273865e+05   8.923146e+04   0.000000e+00   0.000000e+00   0.000000e+00   8.690790e+05   0.000000e+00   0.000000e+00   0.000000e+00
     2592000   2.591999e-05   1.220897e+01   3.822348e+01   1.433962e+01   4.671669e+05   7.273865e+05   8.923146e+04   0.000000e+00   0.000000e+00   0.000000e+00   8.690790e+05   0.000000e+00   0.000000e+00   0.000000e+00
     2600000   2.599999e-05   1.224634e+01   3.828167e+01   1.434675e+01   4.671669e+05   7.273865e+05   8.923146e+04   0.000000e+00   0.000000e+00   0.000000e+00   8.690790e+05   0.000000e+00   0.000000e+00   0.000000e+00
     2608000   2.607999e-05   1.228371e+01   3.833986e+01   1.435389e+01   4.671669e+05   7.273865e+05   8.923146e+04   0.000000e+00   0.000000e+00   0.000000e+00   8.690790e+05   0.000000e+00   0.000000e+00   0.000000e+00
     2616000   2.615999e-05   1.232109e+01   3.839806e+01   1.436103e+01   4.671669e+05   7.273865e+05   8.923146e+04   0.000000e+00   0.000000e+00   0.000000e+00   8.690790e+05   0.000000e+00   0.000000e+00   0.000000e+00
     2624000   2.623999e-05   1.235846e+01   3.845625e+01   1.436817e+01   4.671669e+05   7.273865e+05   8.923146e+04   0.000000e+00   0.000000e+00   0.000000e+00   8.690790e+05   0.000000e+00   0.000000e+00   0.000000e+00
     2632000   2.631999e-05   1.239583e+01   3.851444e+01   1.437531e+01   4.671669e+05   7.273865e+05   8.923146e+04   0.000000e+00   0.000000e+00   0.000000e+00   8.690790e+05   0.000000e+00   0.000000e+00   0.000000e+00
     2640000   2.639999e-05   1.243321e+01   3.857263e+01   1.438245e+01   4.671669e+05   7.273865e+05   8.923146e+04   0.000000e+00   0.000000e+00   0.000000e+00   8.690790e+05   0.000000e+00   0.000000e+00   0.000000e+00
     2648000   2.647999e-05   1.247058e+01   3.863082e+01   1.438959e+01   4.671669e+05   7.273865e+05   8.923146e+04   0.000000e+00   0.000000e+00   0.000000e+00   8.690790e+05   0.000000e+00   0.000000e+00   0.000000e+00
     2656000   2.655999e-05   1.250795e+01   3.868901e+01   1.439672e+01   4.671669e+05   7.273865e+05   8.923146e+04   0.000000e+00   0.000000e+00   0.000000e+00   8.690790e+05   0.000000e+00   0.000000e+00   0.000000e+00
     2664000   2.663999e-05   1.254533e+01   3.874720e+01   1.440386e+01   4.671669e+05   7.273865e+05   8.923146e+04   0.000000e+00   0.000000e+00   0.000000e+00   8.690790e+05   0.000000e+00   0.000000e+00   0.000000e+00
     2672000   2.671999e-05   1.258270e+01   3.880539e+01   1.441100e+01   4.671669e+05   7.273865e+05   8.923146e+04   0.000000e+00   0.000000e+00   0.000000e+00   8.690790e+05   0.000000e+00   0.000000e+00   0.000000e+00
     2680000   2.679999e-05   1.262007e+01   3.886358e+01   1.441814e+01   4.671669e+05   7.273865e+05   8.923146e+04   0.000000e+00   0.000000e+00   0.000000e+00   8.690790e+05   0.000000e+00   0.000000e+00   0.000000e+00
     2688000   2.687999e-05   1.265745e+01   3.892177e+01   1.442528e+01   4.671669e+05   7.273865e+05   8.923146e+04   0.000000e+00   0.000000e+00   0.000000e+00   8.690790e+05   0.000000e+00   0.000000e+00   0.000000e+00
     2696000   2.695999e-05   1.269482e+01   3.897996e+01   1.443242e+01   4.671669e+05   7.273865e+05   8.923146e+04   0.000000e+00   0.000000e+00   0.000000e+00   8.690790e+05   0.000000e+00   0.000000e+00   0.000000e+00
     2704000   2.703999e-05   1.273219e+01   3.903816e+01   1.443955e+01   4.671669e+05   7.273865e+05   8.923146e+04   0.000000e+00   0.000000e+00   0.000000e+00   8.690790e+05   0.000000e+00   0.000000e+00   0.000000e+00
     2712000   2.711999e-05   1.276957e+01   3.909635e+01   1.444669e+01   4.671669e+05   7.273865e+05   8.923146e+04   0.000000e+00   0.000000e+00   0.000000e+00   8.690790e+05   0.000000e+00   0.000000e+00   0.000000e+00
     2720000   2.719999e-05   1.280694e+01   3.915454e+01   1.445383e+01   4.671669e+05   7.273865e+05   8.923146e+04   0.000000e+00   0.000000e+00   0.000000e+00   8.690790e+05   0.000000e+00   0.000000e+00   0.000000e+00
     2728000   2.727999e-05   1.284431e+01   3.921273e+01   1.446097e+01   4.671669e+05   7.273865e+05   8.923146e+04   0.000000e+00   0.000000e+00   0.000000e+00   8.690790e+05   0.000000e+00   0.000000e+00   0.000000e+00
     2736000   2.735999e-05   1.288169e+01   3.927092e+01   1.446811e+01   4.671669e+05   7.273865e+05   8.923146e+04   0.000000e+00   0.000000e+00   0.000000e+00   8.690790e+05   0.000000e+00   0.000000e+00   0.000000e+00
     2744000   2.743999e-05   1.291906e+01   3.932911e+01   1.447525e+01   4.671669e+05   7.273865e+05   8.923146e+04   0.000000e+00   0.000000e+00   0.000000e+00   8.690790e+05   0.000000e+00   0.000000e+00   0.000000e+00
     2752000   2.751999e-05   1.295643e+01   3.938730e+01   1.448239e+01   4.671669e+05   7.273865e+05   8.923146e+04   0.000000e+00   0.000000e+00   0.000000e+00   8.690790e+05   0.000000e+00   0.000000e+00   0.000000e+00
     2760000   2.759999e-05   1.299381e+01   3.944549e+01   1.448952e+01   4.671669e+05   7.273865e+05   8.923146e+04   0.000000e+00   0.000000e+00   0.000000e+00   8.690790e+05   0.000000e+00   0.000000e+00   0.000000e+00
     2768000   2.767999e-05   1.303118e+01   3.950368e+01   1.449666e+01   4.671669e+05   7.273865e+05   8.923146e+04   0.000000e+00   0.000000e+00   0.000000e+00   8.690790e+05   0.000000e+00   0.000000e+00   0.000000e+00
     2776000   2.775999e-05   1.306855e+01   3.956187e+01   1.450380e+01   4.671669e+05   7.273865e+05   8.923146e+04   0.000000e+00   0.000000e+00   0.000000e+00   8.690790e+05   0.000000e+00   0.000000e+00   0.000000e+00
     2784000   2.783999e-05   1.310593e+01   3.962006e+01   1.451094e+01   4.671669e+05   7.273865e+05   8.923146e+04   0.000000e+00   0.000000e+00   0.000000e+00   8.690790e+05   0.000000e+00   0.000000e+00   0.000000e+00
     2792000   2.791999e-05   1.314330e+01   3.967826e+01   1.451808e+01   4.671669e+05   7.273865e+05   8.923146e+04   0.000000e+00   0.000000e+00   0.000000e+00   8.690790e+05   0.000000e+00   0.000000e+00   0.000000e+00
     2800000   2.799999e-05   1.318067e+01   3.973645e+01   1.452522e+01   4.671669e+05   7.273865e+05   8.923146e+04   0.000000e+00   0.000000e+00   0.000000e+00   8.690790e+05   0.000000e+00   0.000000e+00   0.000000e+00
     2808000   2.807999e-05   1.321805e+01   3.979464e+01   1.453236e+01   4.671669e+05   7.273865e+05   8.923146e+04   0.000000e+00   0.000000e+00   0.000000e+00   8.690790e+05   0.000000e+00   0.000000e+00   0.000000e+00
     2816000   2.815999e-05   1.325542e+01   3.985283e+01   1.453949e+01   4.671669e+05   7.273865e+05   8.923146e+04   0.000000e+00   0.000000e+00   0.000000e+00   8.690790e+05   0.000000e+00   0.000000e+00   0.000000e+00
     2824000   2.823999e-05   1.329279e+01   3.991102e+01   1.454663e+01   4.671669e+05   7.273865e+05   8.923146e+04   0.000000e+00   0.000000e+00   0.000000e+00   8.690790e+05   0.000000e+00   0.000000e+00   0.000000e+00
     2832000   2.831999e-05   1.333017e+01   3.996921e+01   1.455377e+01   4.671669e+05   7.273865e+05   8.923146e+04   0.000000e+00   0.000000e+00   0.000000e+00   8.690790e+05   0.000000e+00   0.000000e+00   0.000000e+00
     2840000   2.839999e-05   1.336754e+01   4.002740e+01   1.456091e+01   4.671669e+05   7.273865e+05   8.923146e+04   0.000000e+00   0.000000e+00   0.000000e+00   8.690790e+05   0.000000e+00   0.000000e+00   0.000000e+00
     2848000   2.847999e-05   1.340491e+01   4.008559e+01   1.456805e+01   4.671669e+05   7.273865e+05   8.923146e+04   0.000000e+00   0.000000e+00   0.000000e+00   8.690790e+05   0.000000e+00   0.000000e+00   0.000000e+00
     2856000   2.855999e-05   1.344229e+01   4.014378e+01   1.457519e+01   4.671669e+05   7.273865e+05   8.923146e+04   0.000000e+00   0.000000e+00   0.000000e+00   8.690790e+05   0.000000e+00   0.000000e+00   0.000000e+00
     2864000   2.863999e-05   1.347966e+01   4.020197e+01   1.458233e+01   4.671669e+05   7.273865e+05   8.923146e+04   0.000000e+00   0.000000e+00   0.000000e+00   8.690790e+05   0.000000e+00   0.000000e+00   0.000000e+00
     2872000   2.871999e-05   1.351703e+01   4.026016e+01   1.458946e+01   4.671669e+05   7.273865e+05   8.923146e+04   0.000000e+00   0.000000e+00   0.000000e+00   8.690790e+05   0.000000e+00   0.000000e+00   0.000000e+00
     2880000   2.879999e-05   1.355441e+01   4.031836e+01   1.459660e+01   4.671669e+05   7.273865e+05   8.923146e+04   0.000000e+00   0.000000e+00   0.000000e+00   8.690790e+05   0.000000e+00   0.000000e+00   0.000000e+00
     2888000   2.887999e-05   1.359178e+01   4.037655e+01   1.460374e+01   4.671669e+05   7.273865e+05   8.923146e+04   0.000000e+00   0.000000e+00   0.000000e+00   8.690790e+05   0.000000e+00   0.000000e+00   0.000000e+00
     2896000   2.895999e-05   1.362915e+01   4.043474e+01   1.461088e+01   4.671669e+05   7.273865e+05   8.923146e+04   0.000000e+00   0.000000e+00   0.000000e+00   8.690790e+05   0.000000e+00   0.000000e+00   0.000000e+00
     2904000   2.903999e-05   1.366653e+01   4.049293e+01   1.461802e+01   4.671669e+05   7.273865e+05   8.923146e+04   0.000000e+00   0.000000e+00   0.000000e+00   8.690790e+05   0.000000e+00   0.000000e+00   0.000000e+00
     2912000   2.911999e-05   1.370390e+01   4.055112e+01   1.462516e+01   4.671669e+05   7.273865e+05   8.923146e+04   0.000000e+00   0.000000e+00   0.000000e+00   8.690790e+05   0.000000e+00   0.000000e+00   0.000000e+00
     2920000   2.919999e-05   1.374127e+01   4.060931e+01   1.463229e+01   4.671669e+05   7.273865e+05   8.923146e+04   0.000000e+00   0.000000e+00   0.000000e+00   8.690790e+05   0.000000e+00   0.000000e+00   0.000000e+00
     2928000   2.927999e-05   1.377865e+01   4.066750e+01   1.463943e+01   4.671669e+05   7.273865e+05   8.923146e+04   0.000000e+00   0.000000e+00   0.000000e+00   8.690790e+05   0.000000e+00   0.000000e+00   0.000000e+00
     2936000   2.935999e-05   1.381602e+01   4.072569e+01   1.464657e+01   4.671669e+05   7.273865e+05   8.923146e+04   0.000000e+00   0.000000e+00   0.000000e+00   8.690790e+05   0.000000e+00   0.000000e+00   0.000000e+00
     2944000   2.943999e-05   1.385339e+01   4.078388e+01   1.465371e+01   4.671669e+05   7.273865e+05   8.923146e+04   0.000000e+00   0.000000e+00   0.000000e+00   8.690790e+05   0.000000e+00   0.000000e+00   0.000000e+00
     2952000   2.951999e-05   1.389077e+01   4.084207e+01   1.466085e+01   4.671669e+05   7.273865e+05   8.923146e+04   0.000000e+00   0.000000e+00   0.000000e+00   8.690790e+05   0.000000e+00   0.000000e+00   0.000000e+00
     2960000   2.959999e-05   1.392814e+01   4.090026e+01   1.466799e+01   4.671669e+05   7.273865e+05   8.923146e+04   0.000000e+00   0.000000e+00   0.000000e+00   8.690790e+05   0.000000e+00   0.000000e+00   0.000000e+00
     2968000   2.967999e-05   1.396551e+01   4.095846e+01   1.467513e+01   4.671669e+05   7.273865e+05   8.923146e+04   0.000000e+00   0.000000e+00   0.000000e+00   8.690790e+05   0.000000e+00   0.000000e+00   0.000000e+00
     2976000   2.975999e-05   1.400289e+01   4.101665e+01   1.468226e+01   4.671669e+05   7.273865e+05   8.923146e+04   0.000000e+00   0.000000e+00   0.000000e+00   8.690790e+05   0.000000e+00   0.000000e+00   0.000000e+00
     2984000   2.983999e-05   1.404026e+01   4.107484e+01   1.468940e+01   4.671669e+05   7.273865e+05   8.923146e+04   0.000000e+00   0.000000e+00   0.000000e+00   8.690790e+05   0.000000e+00   0.000000e+00   0.000000e+00
     2992000   2.991999e-05   1.407763e+01   4.113303e+01   1.469654e+01   4.671669e+05   7.273865e+05   8.923146e+04   0.000000e+00   0.000000e+00   0.000000e+00   8.690790e+05   0.000000e+00   0.000000e+00   0.000000e+00
     3000000   2.999999e-05   1.411501e+01   4.119122e+01   1.470368e+01   4.671669e+05   7.273865e+05   8.923146e+04   0.000000e+00   0.000000e+00   0.000000e+00   8.690790e+05   0.000000e+00   0.000000e+00   0.000000e+00
     3008000   3.007999e-05   1.415238e+01   4.124941e+01   1.471082e+01   4.671669e+05   7.273865e+05   8.923146e+04   0.000000e+00   0.000000e+00   0.000000e+00   8.690790e+05   0.000000e+00   0.000000e+00   0.000000e+00
     3016000   3.015999e-05   1.418975e+01   4.130760e+01   1.471796e+01   4.671669e+05   7.273865e+05   8.923146e+04   0.000000e+00   0.000000e+00   0.000000e+00   8.690790e+05   0.000000e+00   0.000000e+00   0.000000e+00
     3024000   3.023999e-05   1.422713e+01   4.136579e+01   1.472510e+01   4.671669e+05   7.273865e+05   8.923146e+04   0.000000e+00   0.000000e+00   0.000000e+00   8.690790e+05   0.000000e+00   0.000000e+00   0.000000e+00
     3032000   3.031999e-05   1.426450e+01   4.142398e+01   1.473223e+01   4.671669e+05   7.273865e+05   8.923146e+04   0.000000e+00   0.000000e+00   0.000000e+00   8.690790e+05   0.000000e+00   0.000000e+00   0.000000e+00
     3040000   3.039999e-05   1.430187e+01   4.148217e+01   1.473937e+01   4.671669e+05   7.273865e+05   8.923146e+04   0.000000e+00   0.000000e+00   0.000000e+00   8.690790e+05   0.000000e+00   0.000000e+00   0.000000e+00
     3048000   3.047999e-05   1.433925e+01   4.154036e+01   1.474651e+01   4.671669e+05   7.273865e+05   8.923146e+04   0.000000e+00   0.000000e+00   0.000000e+00   8.690790e+05   0.000000e+00   0.000000e+00   0.000000e+00
     3056000   3.055999e-05   1.437662e+01   4.159856e+01   1.475365e+01   4.671669e+05   7.273865e+05   8.923146e+04   0.000000e+00   0.000000e+00   0.000000e+00   8.690790e+05   0.000000e+00   0.000000e+00   0.000000e+00
     3064000   3.063999e-05   1.441399e+01   4.165675e+01   1.476079e+01   4.671669e+05   7.273865e+05   8.923146e+04   0.000000e+00   0.000000e+00   0.000000e+00   8.690790e+05   0.000000e+00   0.000000e+00   0.000000e+00
     3072000   3.071999e-05   1.445137e+01   4.171494e+01   1.476793e+01   4.671669e+05   7.273865e+05   8.923146e+04   0.000000e+00   0.000000e+00   0.000000e+00   8.690790e+05   0.000000e+00   0.000000e+00   0.000000e+00
     3080000   3.079999e-05   1.448874e+01   4.177313e+01   1.477507e+01   4.671669e+05   7.273865e+05   8.923146e+04   0.000000e+00   0.000000e+00   0.000000e+00   8.690790e+05   0.000000e+00   0.000000e+00   0.000000e+00
     3088000   3.087999e-05   1.452611e+01   4.183132e+01   1.478220e+01   4.671669e+05   7.273865e+05   8.923146e+04   0.000000e+00   0.000000e+00   0.000000e+00   8.690790e+05   0.000000e+00   0.000000e+00   0.000000e+00
     3096000   3.095999e-05   1.456349e+01   4.188951e+01   1.478934e+01   4.671669e+05   7.273865e+05   8.923146e+04   0.000000e+00   0.000000e+00   0.000000e+00   8.690790e+05   0.000000e+00   0.000000e+00   0.000000e+00
     3104000   3.103999e-05   1.460086e+01   4.194770e+01   1.479648e+01   4.671669e+05   7.273865e+05   8.923146e+04   0.000000e+00   0.000000e+00   0.000000e+00   8.690790e+05   0.000000e+00   0.000000e+00   0.000000e+00
     3112000   3.111999e-05   1.463823e+01   4.200589e+01   1.480362e+01   4.671669e+05   7.273865e+05   8.923146e+04   0.000000e+00   0.000000e+00   0.000000e+00   8.690790e+05   0.000000e+00   0.000000e+00   0.000000e+00
     3120000   3.119999e-05   1.467561e+01   4.206408e+01   1.481076e+01   4.671669e+05   7.273865e+05   8.923146e+04   0.000000e+00   0.000000e+00   0.000000e+00   8.690790e+05   0.000000e+00   0.000000e+00   0.000000e+00
     3128000   3.127999e-05   1.471298e+01   4.212227e+01   1.481790e+01   4.671669e+05   7.273865e+05   8.923146e+04   0.000000e+00   0.000000e+00   0.000000e+00   8.690790e+05   0.000000e+00   0.000000e+00   0.000000e+00
     3136000   3.135999e-05   1.475035e+01   4.218047e+01   1.482503e+01   4.671669e+05   7.273865e+05   8.923146e+04   0.000000e+00   0.000000e+00   0.000000e+00   8.690790e+05   0.000000e+00   0.000000e+00   0.000000e+00
     3144000   3.143999e-05   1.478773e+01   4.223866e+01   1.483217e+01   4.671669e+05   7.273865e+05   8.923146e+04   0.000000e+00   0.000000e+00   0.000000e+00   8.690790e+05   0.000000e+00   0.000000e+00   0.000000e+00
     3152000   3.151999e-05   1.482510e+01   4.229685e+01   1.483931e+01   4.671669e+05   7.273865e+05   8.923146e+04   0.000000e+00   0.000000e+00   0.000000e+00   8.690790e+05   0.000000e+00   0.000000e+00   0.000000e+00
     3160000   3.159999e-05   1.486247e+01   4.235504e+01   1.484645e+01   4.671669e+05   7.273865e+05   8.923146e+04   0.000000e+00   0.000000e+00   0.000000e+00   8.690790e+05   0.000000e+00   0.000000e+00   0.000000e+00
     3168000   3.167999e-05   1.489985e+01   4.241323e+01   1.485359e+01   4.671669e+05   7.273865e+05   8.923146e+04   0.000000e+00   0.000000e+00   0.000000e+00   8.690790e+05   0.000000e+00   0.000000e+00   0.000000e+00
     3176000   3.175999e-05   1.493722e+01   4.247142e+01   1.486073e+01   4.671669e+05   7.273865e+05   8.923146e+04   0.000000e+00   0.000000e+00   0.000000e+00   8.690790e+05   0.000000e+00   0.000000e+00   0.000000e+00
     3184000   3.183999e-05   1.497459e+01   4.252961e+01   1.486787e+01   4.671669e+05   7.273865e+05   8.923146e+04   0.000000e+00   0.000000e+00   0.000000e+00   8.690790e+05   0.000000e+00   0.000000e+00   0.000000e+00
     3192000   3.191999e-05   1.501197e+01   4.258780e+01   1.487500e+01   4.671669e+05   7.273865e+05   8.923146e+04   0.000000e+00   0.000000e+00   0.000000e+00   8.690790e+05   0.000000e+00   0.000000e+00   0.000000e+00
     3200000   3.199999e-05   1.504934e+01   4.264599e+01   1.488214e+01   4.671669e+05   7.273865e+05   8.923146e+04   0.000000e+00   0.000000e+00   0.000000e+00   8.690790e+05   0.000000e+00   0.000000e+00   0.000000e+00
     3208000   3.207999e-05   1.508671e+01   4.270418e+01   1.488928e+01   4.671669e+05   7.273865e+05   8.923146e+04   0.000000e+00   0.000000e+00   0.000000e+00   8.690790e+05   0.000000e+00   0.000000e+00   0.000000e+00
     3216000   3.215999e-05   1.512409e+01   4.276237e+01   1.489642e+01   4.671669e+05   7.273865e+05   8.923146e+04   0.000000e+00   0.000000e+00   0.000000e+00   8.690790e+05   0.000000e+00   0.000000e+00   0.000000e+00
     3224000   3.223999e-05   1.516146e+01   4.282057e+01   1.490356e+01   4.671669e+05   7.273865e+05   8.923146e+04   0.000000e+00   0.000000e+00   0.000000e+00   8.690790e+05   0.000000e+00   0.000000e+00   0.000000e+00
     3232000   3.231999e-05   1.519883e+01   4.287876e+01   1.491070e+01   4.671669e+05   7.273865e+05   8.923146e+04   0.000000e+00   0.000000e+00   0.000000e+00   8.690790e+05   0.000000e+00   0.000000e+00   0.000000e+00
     3240000   3.239999e-05   1.523621e+01   4.293695e+01   1.491784e+01   4.671669e+05   7.273865e+05   8.923146e+04   0.000000e+00   0.000000e+00   0.000000e+00   8.690790e+05   0.000000e+00   0.000000e+00   0.000000e+00
     3248000   3.247999e-05   1.527358e+01   4.299514e+01   1.492497e+01   4.671669e+05   7.273865e+05   8.923146e+04   0.000000e+00   0.000000e+00   0.000000e+00   8.690790e+05   0.000000e+00   0.000000e+00   0.000000e+00
     3256000   3.255999e-05   1.531095e+01   4.305333e+01   1.493211e+01   4.671669e+05   7.273865e+05   8.923146e+04   0.000000e+00   0.000000e+00   0.000000e+00   8.690790e+05   0.000000e+00   0.000000e+00   0.000000e+00
     3264000   3.263999e-05   1.534833e+01   4.311152e+01   1.493925e+01   4.671669e+05   7.273865e+05   8.923146e+04   0.000000e+00   0.000000e+00   0.000000e+00   8.690790e+05   0.000000e+00   0.000000e+00   0.000000e+00
     3272000   3.271999e-05   1.538570e+01   4.316971e+01   1.494639e+01   4.671669e+05   7.273865e+05   8.923146e+04   0.000000e+00   0.000000e+00   0.000000e+00   8.690790e+05   0.000000e+00   0.000000e+00   0.000000e+00
     3280000   3.279999e-05   1.542308e+01   4.322790e+01   1.495353e+01   4.671669e+05   7.273865e+05   8.923146e+04   0.000000e+00   0.000000e+00   0.000000e+00   8.690790e+05   0.000000e+00   0.000000e+00   0.000000e+00
     3288000   3.287999e-05   1.546045e+01   4.328609e+01   1.496067e+01   4.671669e+05   7.273865e+05   8.923146e+04   0.000000e+00   0.000000e+00   0.000000e+00   8.690790e+05   0.000000e+00   0.000000e+00   0.000000e+00
     3296000   3.295999e-05   1.549782e+01   4.334428e+01   1.496781e+01   4.671669e+05   7.273865e+05   8.923146e+04   0.000000e+00   0.000000e+00   0.000000e+00   8.690790e+05   0.000000e+00   0.000000e+00   0.000000e+00
     3304000   3.303999e-05   1.553520e+01   4.340247e+01   1.497494e+01   4.671669e+05   7.273865e+05   8.923146e+04   0.000000e+00   0.000000e+00   0.000000e+00   8.690790e+05   0.000000e+00   0.000000e+00   0.000000e+00
     3312000   3.311999e-05   1.557257e+01   4.346067e+01   1.498208e+01   4.671669e+05   7.273865e+05   8.923146e+04   0.000000e+00   0.000000e+00   0.000000e+00   8.690790e+05   0.000000e+00   0.000000e+00   0.000000e+00
     3320000   3.319999e-05   1.560994e+01   4.351886e+01   1.498922e+01   4.671669e+05   7.273865e+05   8.923146e+04   0.000000e+00   0.000000e+00   0.000000e+00   8.690790e+05   0.000000e+00   0.000000e+00   0.000000e+00
     3328000   3.327999e-05   1.564732e+01   4.357705e+01   1.499636e+01   4.671669e+05   7.273865e+05   8.923146e+04   0.000000e+00   0.000000e+00   0.000000e+00   8.690790e+05   0.000000e+00   0.000000e+00   0.000000e+00
     3336000   3.335999e-05   1.568469e+01   4.363524e+01   1.500350e+01   4.671669e+05   7.273865e+05   8.923146e+04   0.000000e+00   0.000000e+00   0.000000e+00   8.690790e+05   0.000000e+00   0.000000e+00   0.000000e+00
     3344000   3.343999e-05   1.572206e+01   4.369343e+01   1.501064e+01   4.671669e+05   7.273865e+05   8.923146e+04   0.000000e+00   0.000000e+00   0.000000e+00   8.690790e+05   0.000000e+00   0.000000e+00   0.000000e+00
     3352000   3.351999e-05   1.575944e+01   4.375162e+01   1.501777e+01   4.671669e+05   7.273865e+05   8.923146e+04   0.000000e+00   0.000000e+00   0.000000e+00   8.690790e+05   0.000000e+00   0.000000e+00   0.000000e+00
     3360000   3.359999e-05   1.579681e+01   4.380981e+01   1.502491e+01   4.671669e+05   7.273865e+05   8.923146e+04   0.000000e+00   0.000000e+00   0.000000e+00   8.690790e+05   0.000000e+00   0.000000e+00   0.000000e+00
     3368000   3.367999e-05   1.583418e+01   4.386800e+01   1.503205e+01   4.671669e+05   7.273865e+05   8.923146e+04   0.000000e+00   0.000000e+00   0.000000e+00   8.690790e+05   0.000000e+00   0.000000e+00   0.000000e+00
     3376000   3.375999e-05   1.587156e+01   4.392619e+01   1.503919e+01   4.671669e+05   7.273865e+05   8.923146e+04   0.000000e+00   0.000000e+00   0.000000e+00   8.690790e+05   0.000000e+00   0.000000e+00   0.000000e+00
     3384000   3.383999e-05   1.590893e+01   4.398438e+01   1.504633e+01   4.671669e+05   7.273865e+05   8.923146e+04   0.000000e+00   0.000000e+00   0.000000e+00   8.690790e+05   0.000000e+00   0.000000e+00   0.000000e+00
     3392000   3.391999e-05   1.594630e+01   4.404257e+01   1.505347e+01   4.671669e+05   7.273865e+05   8.923146e+04   0.000000e+00   0.000000e+00   0.000000e+00   8.690790e+05   0.000000e+00   0.000000e+00   0.000000e+00
     3400000   3.399999e-05   1.598368e+01   4.410077e+01   1.506061e+01   4.671669e+05   7.273865e+05   8.923146e+04   0.000000e+00   0.000000e+00   0.000000e+00   8.690790e+05   0.000000e+00   0.000000e+00   0.000000e+00
     3408000   3.407999e-05   1.602105e+01   4.415896e+01   1.506774e+01   4.671669e+05   7.273865e+05   8.923146e+04   0.000000e+00   0.000000e+00   0.000000e+00   8.690790e+05   0.000000e+00   0.000000e+00   0.000000e+00
     3416000   3.415999e-05   1.605842e+01   4.421715e+01   1.507488e+01   4.671669e+05   7.273865e+05   8.923146e+04   0.000000e+00   0.000000e+00   0.000000e+00   8.690790e+05   0.000000e+00   0.000000e+00   0.000000e+00
     3424000   3.423999e-05   1.609580e+01   4.427534e+01   1.508202e+01   4.671669e+05   7.273865e+05   8.923146e+04   0.000000e+00   0.000000e+00   0.000000e+00   8.690790e+05   0.000000e+00   0.000000e+00   0.000000e+00
     3432000   3.431999e-05   1.613317e+01   4.433353e+01   1.508916e+01   4.671669e+05   7.273865e+05   8.923146e+04   0.000000e+00   0.000000e+00   0.000000e+00   8.690790e+05   0.000000e+00   0.000000e+00   0.000000e+00
     3440000   3.439999e-05   1.617054e+01   4.439172e+01   1.509630e+01   4.671669e+05   7.273865e+05   8.923146e+04   0.000000e+00   0.000000e+00   0.000000e+00   8.690790e+05   0.000000e+00   0.000000e+00   0.000000e+00
     3448000   3.447999e-05   1.620792e+01   4.444991e+01   1.510344e+01   4.671669e+05   7.273865e+05   8.923146e+04   0.000000e+00   0.000000e+00   0.000000e+00   8.690790e+05   0.000000e+00   0.000000e+00   0.000000e+00
     3456000   3.455999e-05   1.624529e+01   4.450810e+01   1.511058e+01   4.671669e+05   7.273865e+05   8.923146e+04   0.000000e+00   0.000000e+00   0.000000e+00   8.690790e+05   0.000000e+00   0.000000e+00   0.000000e+00
     3464000   3.463999e-05   1.628266e+01   4.456629e+01   1.511771e+01   4.671669e+05   7.273865e+05   8.923146e+04   0.000000e+00   0.000000e+00   0.000000e+00   8.690790e+05   0.000000e+00   0.000000e+00   0.000000e+00
     3472000   3.471999e-05   1.632004e+01   4.462448e+01   1.512485e+01   4.671669e+05   7.273865e+05   8.923146e+04   0.000000e+00   0.000000e+00   0.000000e+00   8.690790e+05   0.000000e+00   0.000000e+00   0.000000e+00
     3480000   3.479999e-05   1.635741e+01   4.468267e+01   1.513199e+01   4.671669e+05   7.273865e+05   8.923146e+04   0.000000e+00   0.000000e+00   0.000000e+00   8.690790e+05   0.000000e+00   0.000000e+00   0.000000e+00
     3488000   3.487999e-05   1.639478e+01   4.474087e+01   1.513913e+01   4.671669e+05   7.273865e+05   8.923146e+04   0.000000e+00   0.000000e+00   0.000000e+00   8.690790e+05   0.000000e+00   0.000000e+00   0.000000e+00
     3496000   3.495999e-05   1.643216e+01   4.479906e+01   1.514627e+01   4.671669e+05   7.273865e+05   8.923146e+04   0.000000e+00   0.000000e+00   0.000000e+00   8.690790e+05   0.000000e+00   0.000000e+00   0.000000e+00
     3504000   3.503999e-05   1.646953e+01   4.485725e+01   1.515341e+01   4.671669e+05   7.273865e+05   8.923146e+04   0.000000e+00   0.000000e+00   0.000000e+00   8.690790e+05   0.000000e+00   0.000000e+00   0.000000e+00
     3512000   3.511999e-05   1.650690e+01   4.491544e+01   1.516054e+01   4.671669e+05   7.273865e+05   8.923146e+04   0.000000e+00   0.000000e+00   0.000000e+00   8.690790e+05   0.000000e+00   0.000000e+00   0.000000e+00
     3520000   3.519999e-05   1.654428e+01   4.497363e+01   1.516768e+01   4.671669e+05   7.273865e+05   8.923146e+04   0.000000e+00   0.000000e+00   0.000000e+00   8.690790e+05   0.000000e+00   0.000000e+00   0.000000e+00
     3528000   3.527999e-05   1.658165e+01   4.503182e+01   1.517482e+01   4.671669e+05   7.273865e+05   8.923146e+04   0.000000e+00   0.000000e+00   0.000000e+00   8.690790e+05   0.000000e+00   0.000000e+00   0.000000e+00
     3536000   3.535999e-05   1.661902e+01   4.509001e+01   1.518196e+01   4.671669e+05   7.273865e+05   8.923146e+04   0.000000e+00   0.000000e+00   0.000000e+00   8.690790e+05   0.000000e+00   0.000000e+00   0.000000e+00
     3544000   3.543999e-05   1.665640e+01   4.514820e+01   1.518910e+01   4.671669e+05   7.273865e+05   8.923146e+04   0.000000e+00   0.000000e+00   0.000000e+00   8.690790e+05   0.000000e+00   0.000000e+00   0.000000e+00
     3552000   3.551999e-05   1.669377e+01   4.520639e+01   1.519624e+01   4.671669e+05   7.273865e+05   8.923146e+04   0.000000e+00   0.000000e+00   0.000000e+00   8.690790e+05   0.000000e+00   0.000000e+00   0.000000e+00
     3560000   3.559999e-05   1.673114e+01   4.526458e+01   1.520338e+01   4.671669e+05   7.273865e+05   8.923146e+04   0.000000e+00   0.000000e+00   0.000000e+00   8.690790e+05   0.000000e+00   0.000000e+00   0.000000e+00
     3568000   3.567999e-05   1.676852e+01   4.532277e+01   1.521051e+01   4.671669e+05   7.273865e+05   8.923146e+04   0.000000e+00   0.000000e+00   0.000000e+00   8.690790e+05   0.000000e+00   0.000000e+00   0.000000e+00
     3576000   3.575999e-05   1.680589e+01   4.538097e+01   1.521765e+01   4.671669e+05   7.273865e+05   8.923146e+04   0.000000e+00   0.000000e+00   0.000000e+00   8.690790e+05   0.000000e+00   0.000000e+00   0.000000e+00
     3584000   3.583999e-05   1.684326e+01   4.543916e+01   1.522479e+01   4.671669e+05   7.273865e+05   8.923146e+04   0.000000e+00   0.000000e+00   0.000000e+00   8.690790e+05   0.000000e+00   0.000000e+00   0.000000e+00
     3592000   3.591999e-05   1.688064e+01   4.549735e+01   1.523193e+01   4.671669e+05   7.273865e+05   8.923146e+04   0.000000e+00   0.000000e+00   0.000000e+00   8.690790e+05   0.000000e+00   0.000000e+00   0.000000e+00
     3600000   3.599999e-05   1.691801e+01   4.555554e+01   1.523907e+01   4.671669e+05   7.273865e+05   8.923146e+04   0.000000e+00   0.000000e+00   0.000000e+00   8.690790e+05   0.000000e+00   0.000000e+00   0.000000e+00
     3608000   3.607999e-05   1.695538e+01   4.561373e+01   1.524621e+01   4.671669e+05   7.273865e+05   8.923146e+04   0.000000e+00   0.000000e+00   0.000000e+00   8.690790e+05   0.000000e+00   0.000000e+00   0.000000e+00
     3616000   3.615999e-05   1.699276e+01   4.567192e+01   1.525335e+01   4.671669e+05   7.273865e+05   8.923146e+04   0.000000e+00   0.000000e+00   0.000000e+00   8.690790e+05   0.000000e+00   0.000000e+00   0.000000e+00
     3624000   3.623999e-05   1.703013e+01   4.573011e+01   1.526048e+01   4.671669e+05   7.273865e+05   8.923146e+04   0.000000e+00   0.000000e+00   0.000000e+00   8.690790e+05   0.000000e+00   0.000000e+00   0.000000e+00
     3632000   3.631999e-05   1.706750e+01   4.578830e+01   1.526762e+01   4.671669e+05   7.273865e+05   8.923146e+04   0.000000e+00   0.000000e+00   0.000000e+00   8.690790e+05   0.000000e+00   0.000000e+00   0.000000e+00
     3640000   3.639999e-05   1.710488e+01   4.584649e+01   1.527476e+01   4.671669e+05   7.273865e+05   8.923146e+04   0.000000e+00   0.000000e+00   0.000000e+00   8.690790e+05   0.000000e+00   0.000000e+00   0.000000e+00
     3648000   3.647999e-05   1.714225e+01   4.590468e+01   1.528190e+01   4.671669e+05   7.273865e+05   8.923146e+04   0.000000e+00   0.000000e+00   0.000000e+00   8.690790e+05   0.000000e+00   0.000000e+00   0.000000e+00
     3656000   3.655999e-05   1.717962e+01   4.596287e+01   1.528904e+01   4.671669e+05   7.273865e+05   8.923146e+04   0.000000e+00   0.000000e+00   0.000000e+00   8.690790e+05   0.000000e+00   0.000000e+00   0.000000e+00
     3664000   3.663999e-05   1.721700e+01   4.602107e+01   1.529618e+01   4.671669e+05   7.273865e+05   8.923146e+04   0.000000e+00   0.000000e+00   0.000000e+00   8.690790e+05   0.000000e+00   0.000000e+00   0.000000e+00
     3672000   3.671999e-05   1.725437e+01   4.607926e+01   1.530332e+01   4.671669e+05   7.273865e+05   8.923146e+04   0.000000e+00   0.000000e+00   0.000000e+00   8.690790e+05   0.000000e+00   0.000000e+00   0.000000e+00
     3680000   3.679999e-05   1.729174e+01   4.613745e+01   1.531045e+01   4.671669e+05   7.273865e+05   8.923146e+04   0.000000e+00   0.000000e+00   0.000000e+00   8.690790e+05   0.000000e+00   0.000000e+00   0.000000e+00
     3688000   3.687999e-05   1.732912e+01   4.619564e+01   1.531759e+01   4.671669e+05   7.273865e+05   8.923146e+04   0.000000e+00   0.000000e+00   0.000000e+00   8.690790e+05   0.000000e+00   0.000000e+00   0.000000e+00
     3696000   3.695999e-05   1.736649e+01   4.625383e+01   1.532473e+01   4.671669e+05   7.273865e+05   8.923146e+04   0.000000e+00   0.000000e+00   0.000000e+00   8.690790e+05   0.000000e+00   0.000000e+00   0.000000e+00
     3704000   3.703999e-05   1.740386e+01   4.631202e+01   1.533187e+01   4.671669e+05   7.273865e+05   8.923146e+04   0.000000e+00   0.000000e+00   0.000000e+00   8.690790e+05   0.000000e+00   0.000000e+00   0.000000e+00
     3712000   3.711999e-05   1.744124e+01   4.637021e+01   1.533901e+01   4.671669e+05   7.273865e+05   8.923146e+04   0.000000e+00   0.000000e+00   0.000000e+00   8.690790e+05   0.000000e+00   0.000000e+00   0.000000e+00
     3720000   3.719999e-05   1.747861e+01   4.642840e+01   1.534615e+01   4.671669e+05   7.273865e+05   8.923146e+04   0.000000e+00   0.000000e+00   0.000000e+00   8.690790e+05   0.000000e+00   0.000000e+00   0.000000e+00
     3728000   3.727999e-05   1.751598e+01   4.648659e+01   1.535328e+01   4.671669e+05   7.273865e+05   8.923146e+04   0.000000e+00   0.000000e+00   0.000000e+00   8.690790e+05   0.000000e+00   0.000000e+00   0.000000e+00
     3736000   3.735999e-05   1.755336e+01   4.654478e+01   1.536042e+01   4.671669e+05   7.273865e+05   8.923146e+04   0.000000e+00   0.000000e+00   0.000000e+00   8.690790e+05   0.000000e+00   0.000000e+00   0.000000e+00
     3744000   3.743999e-05   1.759073e+01   4.660297e+01   1.536756e+01   4.671669e+05   7.273865e+05   8.923146e+04   0.000000e+00   0.000000e+00   0.000000e+00   8.690790e+05   0.000000e+00   0.000000e+00   0.000000e+00
     3752000   3.751999e-05   1.762810e+01   4.666117e+01   1.537470e+01   4.671669e+05   7.273865e+05   8.923146e+04   0.000000e+00   0.000000e+00   0.000000e+00   8.690790e+05   0.000000e+00   0.000000e+00   0.000000e+00
     3760000   3.759999e-05   1.766548e+01   4.671936e+01   1.538184e+01   4.671669e+05   7.273865e+05   8.923146e+04   0.000000e+00   0.000000e+00   0.000000e+00   8.690790e+05   0.000000e+00   0.000000e+00   0.000000e+00
     3768000   3.767999e-05   1.770285e+01   4.677755e+01   1.538898e+01   4.671669e+05   7.273865e+05   8.923146e+04   0.000000e+00   0.000000e+00   0.000000e+00   8.690790e+05   0.000000e+00   0.000000e+00   0.000000e+00
     3776000   3.775999e-05   1.774022e+01   4.683574e+01   1.539612e+01   4.671669e+05   7.273865e+05   8.923146e+04   0.000000e+00   0.000000e+00   0.000000e+00   8.690790e+05   0.000000e+00   0.000000e+00   0.000000e+00
     3784000   3.783999e-05   1.777760e+01   4.689393e+01   1.540325e+01   4.671669e+05   7.273865e+05   8.923146e+04   0.000000e+00   0.000000e+00   0.000000e+00   8.690790e+05   0.000000e+00   0.000000e+00   0.000000e+00
     3792000   3.791999e-05   1.781497e+01   4.695212e+01   1.541039e+01   4.671669e+05   7.273865e+05   8.923146e+04   0.000000e+00   0.000000e+00   0.000000e+00   8.690790e+05   0.000000e+00   0.000000e+00   0.000000e+00
     3800000   3.799999e-05   1.785234e+01   4.701031e+01   1.541753e+01   4.671669e+05   7.273865e+05   8.923146e+04   0.000000e+00   0.000000e+00   0.000000e+00   8.690790e+05   0.000000e+00   0.000000e+00   0.000000e+00
     3808000   3.807999e-05   1.788972e+01   4.706850e+01   1.542467e+01   4.671669e+05   7.273865e+05   8.923146e+04   0.000000e+00   0.000000e+00   0.000000e+00   8.690790e+05   0.000000e+00   0.000000e+00   0.000000e+00
     3816000   3.815999e-05   1.792709e+01   4.712669e+01   1.543181e+01   4.671669e+05   7.273865e+05   8.923146e+04   0.000000e+00   0.000000e+00   0.000000e+00   8.690790e+05   0.000000e+00   0.000000e+00   0.000000e+00
     3824000   3.823999e-05   1.796446e+01   4.718488e+01   1.543895e+01   4.671669e+05   7.273865e+05   8.923146e+04   0.000000e+00   0.000000e+00   0.000000e+00   8.690790e+05   0.000000e+00   0.000000e+00   0.000000e+00
     3832000   3.831999e-05   1.800184e+01   4.724307e+01   1.544609e+01   4.671669e+05   7.273865e+05   8.923146e+04   0.000000e+00   0.000000e+00   0.000000e+00   8.690790e+05   0.000000e+00   0.000000e+00   0.000000e+00
     3840000   3.839999e-05   1.803921e+01   4.730127e+01   1.545322e+01   4.671669e+05   7.273865e+05   8.923146e+04   0.000000e+00   0.000000e+00   0.000000e+00   8.690790e+05   0.000000e+00   0.000000e+00   0.000000e+00
     3848000   3.847999e-05   1.807658e+01   4.735946e+01   1.546036e+01   4.671669e+05   7.273865e+05   8.923146e+04   0.000000e+00   0.000000e+00   0.000000e+00   8.690790e+05   0.000000e+00   0.000000e+00   0.000000e+00
     3856000   3.855999e-05   1.811396e+01   4.741765e+01   1.546750e+01   4.671669e+05   7.273865e+05   8.923146e+04   0.000000e+00   0.000000e+00   0.000000e+00   8.690790e+05   0.000000e+00   0.000000e+00   0.000000e+00
     3864000   3.863999e-05   1.815133e+01   4.747584e+01   1.547464e+01   4.671669e+05   7.273865e+05   8.923146e+04   0.000000e+00   0.000000e+00   0.000000e+00   8.690790e+05   0.000000e+00   0.000000e+00   0.000000e+00
     3872000   3.871999e-05   1.818870e+01   4.753403e+01   1.548178e+01   4.671669e+05   7.273865e+05   8.923146e+04   0.000000e+00   0.000000e+00   0.000000e+00   8.690790e+05   0.000000e+00   0.000000e+00   0.000000e+00
     3880000   3.879999e-05   1.822608e+01   4.759222e+01   1.548892e+01   4.671669e+05   7.273865e+05   8.923146e+04   0.000000e+00   0.000000e+00   0.000000e+00   8.690790e+05   0.000000e+00   0.000000e+00   0.000000e+00
     3888000   3.887999e-05   1.826345e+01   4.765041e+01   1.549606e+01   4.671669e+05   7.273865e+05   8.923146e+04   0.000000e+00   0.000000e+00   0.000000e+00   8.690790e+05   0.000000e+00   0.000000e+00   0.000000e+00
     3896000   3.895999e-05   1.830082e+01   4.770860e+01   1.550319e+01   4.671669e+05   7.273865e+05   8.923146e+04   0.000000e+00   0.000000e+00   0.000000e+00   8.690790e+05   0.000000e+00   0.000000e+00   0.000000e+00
     3904000   3.903999e-05   1.833820e+01   4.776679e+01   1.551033e+01   4.671669e+05   7.273865e+05   8.923146e+04   0.000000e+00   0.000000e+00   0.000000e+00   8.690790e+05   0.000000e+00   0.000000e+00   0.000000e+00
     3912000   3.911999e-05   1.837557e+01   4.782498e+01   1.551747e+01   4.671669e+05   7.273865e+05   8.923146e+04   0.000000e+00   0.000000e+00   0.000000e+00   8.690790e+05   0.000000e+00   0.000000e+00   0.000000e+00
     3920000   3.919999e-05   1.841294e+01   4.788318e+01   1.552461e+01   4.671669e+05   7.273865e+05   8.923146e+04   0.000000e+00   0.000000e+00   0.000000e+00   8.690790e+05   0.000000e+00   0.000000e+00   0.000000e+00
     3928000   3.927999e-05   1.845032e+01   4.794137e+01   1.553175e+01   4.671669e+05   7.273865e+05   8.923146e+04   0.000000e+00   0.000000e+00   0.000000e+00   8.690790e+05   0.000000e+00   0.000000e+00   0.000000e+00
     3936000   3.935999e-05   1.848769e+01   4.799956e+01   1.553889e+01   4.671669e+05   7.273865e+05   8.923146e+04   0.000000e+00   0.000000e+00   0.000000e+00   8.690790e+05   0.000000e+00   0.000000e+00   0.000000e+00
     3944000   3.943999e-05   1.852506e+01   4.805775e+01   1.554602e+01   4.671669e+05   7.273865e+05   8.923146e+04   0.000000e+00   0.000000e+00   0.000000e+00   8.690790e+05   0.000000e+00   0.000000e+00   0.000000e+00
     3952000   3.951999e-05   1.856244e+01   4.811594e+01   1.555316e+01   4.671669e+05   7.273865e+05   8.923146e+04   0.000000e+00   0.000000e+00   0.000000e+00   8.690790e+05   0.000000e+00   0.000000e+00   0.000000e+00
     3960000   3.959999e-05   1.859981e+01   4.817413e+01   1.556030e+01   4.671669e+05   7.273865e+05   8.923146e+04   0.000000e+00   0.000000e+00   0.000000e+00   8.690790e+05   0.000000e+00   0.000000e+00   0.000000e+00
     3968000   3.967999e-05   1.863718e+01   4.823232e+01   1.556744e+01   4.671669e+05   7.273865e+05   8.923146e+04   0.000000e+00   0.000000e+00   0.000000e+00   8.690790e+05   0.000000e+00   0.000000e+00   0.000000e+00
     3976000   3.975999e-05   1.867456e+01   4.829051e+01   1.557458e+01   4.671669e+05   7.273865e+05   8.923146e+04   0.000000e+00   0.000000e+00   0.000000e+00   8.690790e+05   0.000000e+00   0.000000e+00   0.000000e+00
     3984000   3.983999e-05   1.871193e+01   4.834870e+01   1.558172e+01   4.671669e+05   7.273865e+05   8.923146e+04   0.000000e+00   0.000000e+00   0.000000e+00   8.690790e+05   0.000000e+00   0.000000e+00   0.000000e+00
     3992000   3.991999e-05   1.874930e+01   4.840689e+01   1.558886e+01   4.671669e+05   7.273865e+05   8.923146e+04   0.000000e+00   0.000000e+00   0.000000e+00   8.690790e+05   0.000000e+00   0.000000e+00   0.000000e+00
     4000000   3.999999e-05   1.878668e+01   4.846508e+01   1.559599e+01   4.671669e+05   7.273865e+05   8.923146e+04   0.000000e+00   0.000000e+00   0.000000e+00   8.690790e+05   0.000000e+00   0.000000e+00   0.000000e+00
     4008000   4.007999e-05   1.882405e+01   4.852328e+01   1.560313e+01   4.671669e+05   7.273865e+05   8.923146e+04   0.000000e+00   0.000000e+00   0.000000e+00   8.690790e+05   0.000000e+00   0.000000e+00   0.000000e+00
     4016000   4.015999e-05   1.886142e+01   4.858147e+01   1.561027e+01   4.671669e+05   7.273865e+05   8.923146e+04   0.000000e+00   0.000000e+00   0.000000e+00   8.690790e+05   0.000000e+00   0.000000e+00   0.000000e+00
     4024000   4.023999e-05   1.889880e+01   4.863966e+01   1.561741e+01   4.671669e+05   7.273865e+05   8.923146e+04   0.000000e+00   0.000000e+00   0.000000e+00   8.690790e+05   0.000000e+00   0.000000e+00   0.000000e+00
     4032000   4.031999e-05   1.893617e+01   4.869785e+01   1.562455e+01   4.671669e+05   7.273865e+05   8.923146e+04   0.000000e+00   0.000000e+00   0.000000e+00   8.690790e+05   0.000000e+00   0.000000e+00   0.000000e+00
     4040000   4.039999e-05   1.897354e+01   4.875604e+01   1.563169e+01   4.671669e+05   7.273865e+05   8.923146e+04   0.000000e+00   0.000000e+00   0.000000e+00   8.690790e+05   0.000000e+00   0.000000e+00   0.000000e+00
     4048000   4.047999e-05   1.901092e+01   4.881423e+01   1.563883e+01   4.671669e+05   7.273865e+05   8.923146e+04   0.000000e+00   0.000000e+00   0.000000e+00   8.690790e+05   0.000000e+00   0.000000e+00   0.000000e+00
     4056000   4.055999e-05   1.904829e+01   4.887242e+01   1.564596e+01   4.671669e+05   7.273865e+05   8.923146e+04   0.000000e+00   0.000000e+00   0.000000e+00   8.690790e+05   0.000000e+00   0.000000e+00   0.000000e+00
     4064000   4.063999e-05   1.908566e+01   4.893061e+01   1.565310e+01   4.671669e+05   7.273865e+05   8.923146e+04   0.000000e+00   0.000000e+00   0.000000e+00   8.690790e+05   0.000000e+00   0.000000e+00   0.000000e+00
     4072000   4.071999e-05   1.912304e+01   4.898880e+01   1.566024e+01   4.671669e+05   7.273865e+05   8.923146e+04   0.000000e+00   0.000000e+00   0.000000e+00   8.690790e+05   0.000000e+00   0.000000e+00   0.000000e+00
     4080000   4.079999e-05   1.916041e+01   4.904699e+01   1.566738e+01   4.671669e+05   7.273865e+05   8.923146e+04   0.000000e+00   0.000000e+00   0.000000e+00   8.690790e+05   0.000000e+00   0.000000e+00   0.000000e+00
     4088000   4.087999e-05   1.919778e+01   4.910518e+01   1.567452e+01   4.671669e+05   7.273865e+05   8.923146e+04   0.000000e+00   0.000000e+00   0.000000e+00   8.690790e+05   0.000000e+00   0.000000e+00   0.000000e+00
     4096000   4.095999e-05   1.923516e+01   4.916338e+01   1.568166e+01   4.671669e+05   7.273865e+05   8.923146e+04   0.000000e+00   0.000000e+00   0.000000e+00   8.690790e+05   0.000000e+00   0.000000e+00   0.000000e+00
     4104000   4.103999e-05   1.927253e+01   4.922157e+01   1.568880e+01   4.671669e+05   7.273865e+05   8.923146e+04   0.000000e+00   0.000000e+00   0.000000e+00   8.690790e+05   0.000000e+00   0.000000e+00   0.000000e+00
     4112000   4.111999e-05   1.930990e+01   4.927976e+01   1.569593e+01   4.671669e+05   7.273865e+05   8.923146e+04   0.000000e+00   0.000000e+00   0.000000e+00   8.690790e+05   0.000000e+00   0.000000e+00   0.000000e+00
     4120000   4.119999e-05   1.934728e+01   4.933795e+01   1.570307e+01   4.671669e+05   7.273865e+05   8.923146e+04   0.000000e+00   0.000000e+00   0.000000e+00   8.690790e+05   0.000000e+00   0.000000e+00   0.000000e+00
     4128000   4.127999e-05   1.938465e+01   4.939614e+01   1.571021e+01   4.671669e+05   7.273865e+05   8.923146e+04   0.000000e+00   0.000000e+00   0.000000e+00   8.690790e+05   0.000000e+00   0.000000e+00   0.000000e+00
     4136000   4.135999e-05   1.942202e+01   4.945433e+01   1.571735e+01   4.671669e+05   7.273865e+05   8.923146e+04   0.000000e+00   0.000000e+00   0.000000e+00   8.690790e+05   0.000000e+00   0.000000e+00   0.000000e+00
     4144000   4.143999e-05   1.945940e+01   4.951252e+01   1.572449e+01   4.671669e+05   7.273865e+05   8.923146e+04   0.000000e+00   0.000000e+00   0.000000e+00   8.690790e+05   0.000000e+00   0.000000e+00   0.000000e+00
     4152000   4.151999e-05   1.949677e+01   4.957071e+01   1.573163e+01   4.671669e+05   7.273865e+05   8.923146e+04   0.000000e+00   0.000000e+00   0.000000e+00   8.690790e+05   0.000000e+00   0.000000e+00   0.000000e+00
     4160000   4.159999e-05   1.953414e+01   4.962890e+01   1.573876e+01   4.671669e+05   7.273865e+05   8.923146e+04   0.000000e+00   0.000000e+00   0.000000e+00   8.690790e+05   0.000000e+00   0.000000e+00   0.000000e+00
     4168000   4.167999e-05   1.957152e+01   4.968709e+01   1.574590e+01   4.671669e+05   7.273865e+05   8.923146e+04   0.000000e+00   0.000000e+00   0.000000e+00   8.690790e+05   0.000000e+00   0.000000e+00   0.000000e+00
     4176000   4.175999e-05   1.960889e+01   4.974528e+01   1.575304e+01   4.671669e+05   7.273865e+05   8.923146e+04   0.000000e+00   0.000000e+00   0.000000e+00   8.690790e+05   0.000000e+00   0.000000e+00   0.000000e+00
     4184000   4.183999e-05   1.964626e+01   4.980348e+01   1.576018e+01   4.671669e+05   7.273865e+05   8.923146e+04   0.000000e+00   0.000000e+00   0.000000e+00   8.690790e+05   0.000000e+00   0.000000e+00   0.000000e+00
     4192000   4.191999e-05   1.968364e+01   4.986167e+01   1.576732e+01   4.671669e+05   7.273865e+05   8.923146e+04   0.000000e+00   0.000000e+00   0.000000e+00   8.690790e+05   0.000000e+00   0.000000e+00   0.000000e+00
     4200000   4.199999e-05   1.972101e+01   4.991986e+01   1.577446e+01   4.671669e+05   7.273865e+05   8.923146e+04   0.000000e+00   0.000000e+00   0.000000e+00   8.690790e+05   0.000000e+00   0.000000e+00   0.000000e+00
     4208000   4.207999e-05   1.975838e+01   4.997805e+01   1.578160e+01   4.671669e+05   7.273865e+05   8.923146e+04   0.000000e+00   0.000000e+00   0.000000e+00   8.690790e+05   0.000000e+00   0.000000e+00   0.000000e+00
