     timestep     time              x             y              z              vx             vy             vz             ax             ay             az         v_magnitude      ELoss        Electronic      Nuclear
           0   0.000000e+00   1.000000e-01   1.194993e+01   1.230493e+01   8.576836e+05   8.255674e+04   1.134088e+05   0.000000e+00   0.000000e+00   0.000000e+00   8.690790e+05   0.000000e+00   0.000000e+00   0.000000e+00
        8000   7.999000e-08   1.686147e-01   1.195654e+01   1.231400e+01   8.576836e+05   8.255674e+04   1.134088e+05   0.000000e+00   0.000000e+00   0.000000e+00   8.690790e+05   0.000000e+00   0.000000e+00   0.000000e+00
       16000   1.599900e-07   2.372294e-01   1.196314e+01   1.232308e+01   8.576836e+05   8.255674e+04   1.134088e+05   0.000000e+00   0.000000e+00   0.000000e+00   8.690790e+05   0.000000e+00   0.000000e+00   0.000000e+00
       24000   2.399900e-07   3.058441e-01   1.196975e+01   1.233215e+01   8.576836e+05   8.255674e+04   1.134088e+05   0.000000e+00   0.000000e+00   0.000000e+00   8.690790e+05   0.000000e+00   0.000000e+00   0.000000e+00
       32000   3.199900e-07   3.744587e-01   1.197635e+01   1.234122e+01   8.576836e+05   8.255674e+04   1.134088e+05   0.000000e+00   0.000000e+00   0.000000e+00   8.690790e+05   0.000000e+00   0.000000e+00   0.000000e+00
       40000   3.999900e-07   4.430734e-01   1.198296e+01   1.235029e+01   8.576836e+05   8.255674e+04   1.134088e+05   0.000000e+00   0.000000e+00   0.000000e+00   8.690790e+05   0.000000e+00   0.000000e+00   0.000000e+00
       48000   4.799900e-07   5.116881e-01   1.198956e+01   1.235937e+01   8.576836e+05   8.255674e+04   1.134088e+05   0.000000e+00   0.000000e+00   0.000000e+00   8.690790e+05   0.000000e+00   0.000000e+00   0.000000e+00
       56000   5.599900e-07   5.803028e-01   1.199617e+01   1.236844e+01   8.576836e+05   8.255674e+04   1.134088e+05   0.000000e+00   0.000000e+00   0.000000e+00   8.690790e+05   0.000000e+00   0.000000e+00   0.000000e+00
       64000   6.399900e-07   6.489175e-01   1.200277e+01   1.237751e+01   8.576836e+05   8.255674e+04   1.134088e+05   0.000000e+00   0.000000e+00   0.000000e+00   8.690790e+05   0.000000e+00   0.000000e+00   0.000000e+00
       72000   7.199900e-07   7.175322e-01   1.200937e+01   1.238658e+01   8.576836e+05   8.255674e+04   1.134088e+05   0.000000e+00   0.000000e+00   0.000000e+00   8.690790e+05   0.000000e+00   0.000000e+00   0.000000e+00
       80000   7.999900e-07   7.861469e-01   1.201598e+01   1.239566e+01   8.576836e+05   8.255674e+04   1.134088e+05   0.000000e+00   0.000000e+00   0.000000e+00   8.690790e+05   0.000000e+00   0.000000e+00   0.000000e+00
       88000   8.799900e-07   8.547615e-01   1.202258e+01   1.240473e+01   8.576836e+05   8.255674e+04   1.134088e+05   0.000000e+00   0.000000e+00   0.000000e+00   8.690790e+05   0.000000e+00   0.000000e+00   0.000000e+00
       96000   9.599900e-07   9.233762e-01   1.202919e+01   1.241380e+01   8.576836e+05   8.255674e+04   1.134088e+05   0.000000e+00   0.000000e+00   0.000000e+00   8.690790e+05   0.000000e+00   0.000000e+00   0.000000e+00
      104000   1.039990e-06   9.919909e-01   1.203579e+01   1.242288e+01   8.576836e+05   8.255674e+04   1.134088e+05   0.000000e+00   0.000000e+00   0.000000e+00   8.690790e+05   0.000000e+00   0.000000e+00   0.000000e+00
      112000   1.119990e-06   1.060606e+00   1.204240e+01   1.243195e+01   8.576836e+05   8.255674e+04   1.134088e+05   0.000000e+00   0.000000e+00   0.000000e+00   8.690790e+05   0.000000e+00   0.000000e+00   0.000000e+00
      120000   1.199990e-06   1.129220e+00   1.204900e+01   1.244102e+01   8.576836e+05   8.255674e+04   1.134088e+05   0.000000e+00   0.000000e+00   0.000000e+00   8.690790e+05   0.000000e+00   0.000000e+00   0.000000e+00
      128000   1.279990e-06   1.197835e+00   1.205561e+01   1.245009e+01   8.576836e+05   8.255674e+04   1.134088e+05   0.000000e+00   0.000000e+00   0.000000e+00   8.690790e+05   0.000000e+00   0.000000e+00   0.000000e+00
      136000   1.359990e-06   1.266450e+00   1.206221e+01   1.245917e+01   8.576836e+05   8.255674e+04   1.134088e+05   0.000000e+00   0.000000e+00   0.000000e+00   8.690790e+05   0.000000e+00   0.000000e+00   0.000000e+00
      144000   1.439990e-06   1.335064e+00   1.206882e+01   1.246824e+01   8.576836e+05   8.255674e+04   1.134088e+05   0.000000e+00   0.000000e+00   0.000000e+00   8.690790e+05   0.000000e+00   0.000000e+00   0.000000e+00
      152000   1.519990e-06   1.403679e+00   1.207542e+01   1.247731e+01   8.576836e+05   8.255674e+04   1.134088e+05   0.000000e+00   0.000000e+00   0.000000e+00   8.690790e+05   0.000000e+00   0.000000e+00   0.000000e+00
      160000   1.599990e-06   1.472294e+00   1.208202e+01   1.248638e+01   8.576836e+05   8.255674e+04   1.134088e+05   0.000000e+00   0.000000e+00   0.000000e+00   8.690790e+05   0.000000e+00   0.000000e+00   0.000000e+00
      168000   1.679990e-06   1.540908e+00   1.208863e+01   1.249546e+01   8.576836e+05   8.255674e+04   1.134088e+05   0.000000e+00   0.000000e+00   0.000000e+00   8.690790e+05   0.000000e+00   0.000000e+00   0.000000e+00
      176000   1.759990e-06   1.609523e+00   1.209523e+01   1.250453e+01   8.576836e+05   8.255674e+04   1.134088e+05   0.000000e+00   0.000000e+00   0.000000e+00   8.690790e+05   0.000000e+00   0.000000e+00   0.000000e+00
      184000   1.839990e-06   1.678138e+00   1.210184e+01   1.251360e+01   8.576836e+05   8.255674e+04   1.134088e+05   0.000000e+00   0.000000e+00   0.000000e+00   8.690790e+05   0.000000e+00   0.000000e+00   0.000000e+00
      192000   1.919990e-06   1.746752e+00   1.210844e+01   1.252267e+01   8.576836e+05   8.255674e+04   1.134088e+05   0.000000e+00   0.000000e+00   0.000000e+00   8.690790e+05   0.000000e+00   0.000000e+00   0.000000e+00
      200000   1.999990e-06   1.815367e+00   1.211505e+01   1.253175e+01   8.576836e+05   8.255674e+04   1.134088e+05   0.000000e+00   0.000000e+00   0.000000e+00   8.690790e+05   0.000000e+00   0.000000e+00   0.000000e+00
      208000   2.079990e-06   1.883982e+00   1.212165e+01   1.254082e+01   8.576836e+05   8.255674e+04   1.134088e+05   0.000000e+00   0.000000e+00   0.000000e+00   8.690790e+05   0.000000e+00   0.000000e+00   0.000000e+00
      216000   2.159990e-06   1.952597e+00   1.212826e+01   1.254989e+01   8.576836e+05   8.255674e+04   1.134088e+05   0.000000e+00   0.000000e+00   0.000000e+00   8.690790e+05   0.000000e+00   0.000000e+00   0.000000e+00
      224000   2.239990e-06   2.021211e+00   1.213486e+01   1.255897e+01   8.576836e+05   8.255674e+04   1.134088e+05   0.000000e+00   0.000000e+00   0.000000e+00   8.690790e+05   0.000000e+00   0.000000e+00   0.000000e+00
      232000   2.319990e-06   2.089826e+00   1.214147e+01   1.256804e+01   8.576836e+05   8.255674e+04   1.134088e+05   0.000000e+00   0.000000e+00   0.000000e+00   8.690790e+05   0.000000e+00   0.000000e+00   0.000000e+00
      240000   2.399990e-06   2.158441e+00   1.214807e+01   1.257711e+01   8.576836e+05   8.255674e+04   1.134088e+05   0.000000e+00   0.000000e+00   0.000000e+00   8.690790e+05   0.000000e+00   0.000000e+00   0.000000e+00
      248000   2.479990e-06   2.227055e+00   1.215467e+01   1.258618e+01   8.576836e+05   8.255674e+04   1.134088e+05   0.000000e+00   0.000000e+00   0.000000e+00   8.690790e+05   0.000000e+00   0.000000e+00   0.000000e+00
      256000   2.559990e-06   2.295670e+00   1.216128e+01   1.259526e+01   8.576836e+05   8.255674e+04   1.134088e+05   0.000000e+00   0.000000e+00   0.000000e+00   8.690790e+05   0.000000e+00   0.000000e+00   0.000000e+00
      264000   2.639990e-06   2.364285e+00   1.216788e+01   1.260433e+01   8.576836e+05   8.255674e+04   1.134088e+05   0.000000e+00   0.000000e+00   0.000000e+00   8.690790e+05   0.000000e+00   0.000000e+00   0.000000e+00
      272000   2.719990e-06   2.432899e+00   1.217449e+01   1.261340e+01   8.576836e+05   8.255674e+04   1.134088e+05   0.000000e+00   0.000000e+00   0.000000e+00   8.690790e+05   0.000000e+00   0.000000e+00   0.000000e+00
      280000   2.799990e-06   2.501514e+00   1.218109e+01   1.262247e+01   8.576836e+05   8.255674e+04   1.134088e+05   0.000000e+00   0.000000e+00   0.000000e+00   8.690790e+05   0.000000e+00   0.000000e+00   0.000000e+00
      288000   2.879990e-06   2.570129e+00   1.218770e+01   1.263155e+01   8.576836e+05   8.255674e+04   1.134088e+05   0.000000e+00   0.000000e+00   0.000000e+00   8.690790e+05   0.000000e+00   0.000000e+00   0.000000e+00
      296000   2.959990e-06   2.638743e+00   1.219430e+01   1.264062e+01   8.576836e+05   8.255674e+04   1.134088e+05   0.000000e+00   0.000000e+00   0.000000e+00   8.690790e+05   0.000000e+00   0.000000e+00   0.000000e+00
      304000   3.039990e-06   2.707358e+00   1.220091e+01   1.264969e+01   8.576836e+05   8.255674e+04   1.134088e+05   0.000000e+00   0.000000e+00   0.000000e+00   8.690790e+05   0.000000e+00   0.000000e+00   0.000000e+00
      312000   3.119990e-06   2.775973e+00   1.220751e+01   1.265877e+01   8.576836e+05   8.255674e+04   1.134088e+05   0.000000e+00   0.000000e+00   0.000000e+00   8.690790e+05   0.000000e+00   0.000000e+00   0.000000e+00
      320000   3.199990e-06   2.844587e+00   1.221412e+01   1.266784e+01   8.576836e+05   8.255674e+04   1.134088e+05   0.000000e+00   0.000000e+00   0.000000e+00   8.690790e+05   0.000000e+00   0.000000e+00   0.000000e+00
      328000   3.279990e-06   2.913202e+00   1.222072e+01   1.267691e+01   8.576836e+05   8.255674e+04   1.134088e+05   0.000000e+00   0.000000e+00   0.000000e+00   8.690790e+05   0.000000e+00   0.000000e+00   0.000000e+00
      336000   3.359990e-06   2.981817e+00   1.222732e+01   1.268598e+01   8.576836e+05   8.255674e+04   1.134088e+05   0.000000e+00   0.000000e+00   0.000000e+00   8.690790e+05   0.000000e+00   0.000000e+00   0.000000e+00
      344000   3.439990e-06   3.050432e+00   1.223393e+01   1.269506e+01   8.576836e+05   8.255674e+04   1.134088e+05   0.000000e+00   0.000000e+00   0.000000e+00   8.690790e+05   0.000000e+00   0.000000e+00   0.000000e+00
      352000   3.519990e-06   3.119046e+00   1.224053e+01   1.270413e+01   8.576836e+05   8.255674e+04   1.134088e+05   0.000000e+00   0.000000e+00   0.000000e+00   8.690790e+05   0.000000e+00   0.000000e+00   0.000000e+00
      360000   3.599990e-06   3.187661e+00   1.224714e+01   1.271320e+01   8.576836e+05   8.255674e+04   1.134088e+05   0.000000e+00   0.000000e+00   0.000000e+00   8.690790e+05   0.000000e+00   0.000000e+00   0.000000e+00
      368000   3.679990e-06   3.256276e+00   1.225374e+01   1.272227e+01   8.576836e+05   8.255674e+04   1.134088e+05   0.000000e+00   0.000000e+00   0.000000e+00   8.690790e+05   0.000000e+00   0.000000e+00   0.000000e+00
      376000   3.759990e-06   3.324890e+00   1.226035e+01   1.273135e+01   8.576836e+05   8.255674e+04   1.134088e+05   0.000000e+00   0.000000e+00   0.000000e+00   8.690790e+05   0.000000e+00   0.000000e+00   0.000000e+00
      384000   3.839990e-06   3.393505e+00   1.226695e+01   1.274042e+01   8.576836e+05   8.255674e+04   1.134088e+05   0.000000e+00   0.000000e+00   0.000000e+00   8.690790e+05   0.000000e+00   0.000000e+00   0.000000e+00
      392000   3.919990e-06   3.462120e+00   1.227356e+01   1.274949e+01   8.576836e+05   8.255674e+04   1.134088e+05   0.000000e+00   0.000000e+00   0.000000e+00   8.690790e+05   0.000000e+00   0.000000e+00   0.000000e+00
      400000   3.999990e-06   3.530734e+00   1.228016e+01   1.275857e+01   8.576836e+05   8.255674e+04   1.134088e+05   0.000000e+00   0.000000e+00   0.000000e+00   8.690790e+05   0.000000e+00   0.000000e+00   0.000000e+00
      408000   4.079990e-06   3.599349e+00   1.228677e+01   1.276764e+01   8.576836e+05   8.255674e+04   1.134088e+05   0.000000e+00   0.000000e+00   0.000000e+00   8.690790e+05   0.000000e+00   0.000000e+00   0.000000e+00
      416000   4.159990e-06   3.667964e+00   1.229337e+01   1.277671e+01   8.576836e+05   8.255674e+04   1.134088e+05   0.000000e+00   0.000000e+00   0.000000e+00   8.690790e+05   0.000000e+00   0.000000e+00   0.000000e+00
      424000   4.239990e-06   3.736578e+00   1.229997e+01   1.278578e+01   8.576836e+05   8.255674e+04   1.134088e+05   0.000000e+00   0.000000e+00   0.000000e+00   8.690790e+05   0.000000e+00   0.000000e+00   0.000000e+00
      432000   4.319990e-06   3.805193e+00   1.230658e+01   1.279486e+01   8.576836e+05   8.255674e+04   1.134088e+05   0.000000e+00   0.000000e+00   0.000000e+00   8.690790e+05   0.000000e+00   0.000000e+00   0.000000e+00
      440000   4.399990e-06   3.873808e+00   1.231318e+01   1.280393e+01   8.576836e+05   8.255674e+04   1.134088e+05   0.000000e+00   0.000000e+00   0.000000e+00   8.690790e+05   0.000000e+00   0.000000e+00   0.000000e+00
      448000   4.479990e-06   3.942422e+00   1.231979e+01   1.281300e+01   8.576836e+05   8.255674e+04   1.134088e+05   0.000000e+00   0.000000e+00   0.000000e+00   8.690790e+05   0.000000e+00   0.000000e+00   0.000000e+00
      456000   4.559990e-06   4.011037e+00   1.232639e+01   1.282207e+01   8.576836e+05   8.255674e+04   1.134088e+05   0.000000e+00   0.000000e+00   0.000000e+00   8.690790e+05   0.000000e+00   0.000000e+00   0.000000e+00
      464000   4.639990e-06   4.079652e+00   1.233300e+01   1.283115e+01   8.576836e+05   8.255674e+04   1.134088e+05   0.000000e+00   0.000000e+00   0.000000e+00   8.690790e+05   0.000000e+00   0.000000e+00   0.000000e+00
      472000   4.719990e-06   4.148266e+00   1.233960e+01   1.284022e+01   8.576836e+05   8.255674e+04   1.134088e+05   0.000000e+00   0.000000e+00   0.000000e+00   8.690790e+05   0.000000e+00   0.000000e+00   0.000000e+00
      480000   4.799990e-06   4.216881e+00   1.234621e+01   1.284929e+01   8.576836e+05   8.255674e+04   1.134088e+05   0.000000e+00   0.000000e+00   0.000000e+00   8.690790e+05   0.000000e+00   0.000000e+00   0.000000e+00
      488000   4.879990e-06   4.285496e+00   1.235281e+01   1.285836e+01   8.576836e+05   8.255674e+04   1.134088e+05   0.000000e+00   0.000000e+00   0.000000e+00   8.690790e+05   0.000000e+00   0.000000e+00   0.000000e+00
      496000   4.959990e-06   4.354111e+00   1.235942e+01   1.286744e+01   8.576836e+05   8.255674e+04   1.134088e+05   0.000000e+00   0.000000e+00   0.000000e+00   8.690790e+05   0.000000e+00   0.000000e+00   0.000000e+00
      504000   5.039990e-06   4.422725e+00   1.236602e+01   1.287651e+01   8.576836e+05   8.255674e+04   1.134088e+05   0.000000e+00   0.000000e+00   0.000000e+00   8.690790e+05   0.000000e+00   0.000000e+00   0.000000e+00
      512000   5.119990e-06   4.491340e+00   1.237262e+01   1.288558e+01   8.576836e+05   8.255674e+04   1.134088e+05   0.000000e+00   0.000000e+00   0.000000e+00   8.690790e+05   0.000000e+00   0.000000e+00   0.000000e+00
      520000   5.199990e-06   4.559955e+00   1.237923e+01   1.289466e+01   8.576836e+05   8.255674e+04   1.134088e+05   0.000000e+00   0.000000e+00   0.000000e+00   8.690790e+05   0.000000e+00   0.000000e+00   0.000000e+00
      528000   5.279990e-06   4.628569e+00   1.238583e+01   1.290373e+01   8.576836e+05   8.255674e+04   1.134088e+05   0.000000e+00   0.000000e+00   0.000000e+00   8.690790e+05   0.000000e+00   0.000000e+00   0.000000e+00
      536000   5.359990e-06   4.697184e+00   1.239244e+01   1.291280e+01   8.576836e+05   8.255674e+04   1.134088e+05   0.000000e+00   0.000000e+00   0.000000e+00   8.690790e+05   0.000000e+00   0.000000e+00   0.000000e+00
      544000   5.439990e-06   4.765799e+00   1.239904e+01   1.292187e+01   8.576836e+05   8.255674e+04   1.134088e+05   0.000000e+00   0.000000e+00   0.000000e+00   8.690790e+05   0.000000e+00   0.000000e+00   0.000000e+00
      552000   5.519990e-06   4.834413e+00   1.240565e+01   1.293095e+01   8.576836e+05   8.255674e+04   1.134088e+05   0.000000e+00   0.000000e+00   0.000000e+00   8.690790e+05   0.000000e+00   0.000000e+00   0.000000e+00
      560000   5.599990e-06   4.903028e+00   1.241225e+01   1.294002e+01   8.576836e+05   8.255674e+04   1.134088e+05   0.000000e+00   0.000000e+00   0.000000e+00   8.690790e+05   0.000000e+00   0.000000e+00   0.000000e+00
      568000   5.679990e-06   4.971643e+00   1.241886e+01   1.294909e+01   8.576836e+05   8.255674e+04   1.134088e+05   0.000000e+00   0.000000e+00   0.000000e+00   8.690790e+05   0.000000e+00   0.000000e+00   0.000000e+00
      576000   5.759990e-06   5.040257e+00   1.242546e+01   1.295816e+01   8.576836e+05   8.255674e+04   1.134088e+05   0.000000e+00   0.000000e+00   0.000000e+00   8.690790e+05   0.000000e+00   0.000000e+00   0.000000e+00
      584000   5.839990e-06   5.108872e+00   1.243207e+01   1.296724e+01   8.576836e+05   8.255674e+04   1.134088e+05   0.000000e+00   0.000000e+00   0.000000e+00   8.690790e+05   0.000000e+00   0.000000e+00   0.000000e+00
      592000   5.919990e-06   5.177487e+00   1.243867e+01   1.297631e+01   8.576836e+05   8.255674e+04   1.134088e+05   0.000000e+00   0.000000e+00   0.000000e+00   8.690790e+05   0.000000e+00   0.000000e+00   0.000000e+00
      600000   5.999990e-06   5.246101e+00   1.244527e+01   1.298538e+01   8.576836e+05   8.255674e+04   1.134088e+05   0.000000e+00   0.000000e+00   0.000000e+00   8.690790e+05   0.000000e+00   0.000000e+00   0.000000e+00
      608000   6.079990e-06   5.314716e+00   1.245188e+01   1.299446e+01   8.576836e+05   8.255674e+04   1.134088e+05   0.000000e+00   0.000000e+00   0.000000e+00   8.690790e+05   0.000000e+00   0.000000e+00   0.000000e+00
      616000   6.159990e-06   5.383331e+00   1.245848e+01   1.300353e+01   8.576836e+05   8.255674e+04   1.134088e+05   0.000000e+00   0.000000e+00   0.000000e+00   8.690790e+05   0.000000e+00   0.000000e+00   0.000000e+00
      624000   6.239990e-06   5.451946e+00   1.246509e+01   1.301260e+01   8.576836e+05   8.255674e+04   1.134088e+05   0.000000e+00   0.000000e+00   0.000000e+00   8.690790e+05   0.000000e+00   0.000000e+00   0.000000e+00
      632000   6.319990e-06   5.520560e+00   1.247169e+01   1.302167e+01   8.576836e+05   8.255674e+04   1.134088e+05   0.000000e+00   0.000000e+00   0.000000e+00   8.690790e+05   0.000000e+00   0.000000e+00   0.000000e+00
      640000   6.399990e-06   5.589175e+00   1.247830e+01   1.303075e+01   8.576836e+05   8.255674e+04   1.134088e+05   0.000000e+00   0.000000e+00   0.000000e+00   8.690790e+05   0.000000e+00   0.000000e+00   0.000000e+00
      648000   6.479990e-06   5.657790e+00   1.248490e+01   1.303982e+01   8.576836e+05   8.255674e+04   1.134088e+05   0.000000e+00   0.000000e+00   0.000000e+00   8.690790e+05   0.000000e+00   0.000000e+00   0.000000e+00
      656000   6.559990e-06   5.726404e+00   1.249151e+01   1.304889e+01   8.576836e+05   8.255674e+04   1.134088e+05   0.000000e+00   0.000000e+00   0.000000e+00   8.690790e+05   0.000000e+00   0.000000e+00   0.000000e+00
      664000   6.639990e-06   5.795019e+00   1.249811e+01   1.305796e+01   8.576836e+05   8.255674e+04   1.134088e+05   0.000000e+00   0.000000e+00   0.000000e+00   8.690790e+05   0.000000e+00   0.000000e+00   0.000000e+00
      672000   6.719990e-06   5.863634e+00   1.250472e+01   1.306704e+01   8.576836e+05   8.255674e+04   1.134088e+05   0.000000e+00   0.000000e+00   0.000000e+00   8.690790e+05   0.000000e+00   0.000000e+00   0.000000e+00
      680000   6.799990e-06   5.932248e+00   1.251132e+01   1.307611e+01   8.576836e+05   8.255674e+04   1.134088e+05   0.000000e+00   0.000000e+00   0.000000e+00   8.690790e+05   0.000000e+00   0.000000e+00   0.000000e+00
      688000   6.879990e-06   6.000863e+00   1.251792e+01   1.308518e+01   8.576836e+05   8.255674e+04   1.134088e+05   0.000000e+00   0.000000e+00   0.000000e+00   8.690790e+05   0.000000e+00   0.000000e+00   0.000000e+00
      696000   6.959990e-06   6.069478e+00   1.252453e+01   1.309425e+01   8.576836e+05   8.255674e+04   1.134088e+05   0.000000e+00   0.000000e+00   0.000000e+00   8.690790e+05   0.000000e+00   0.000000e+00   0.000000e+00
      704000   7.039990e-06   6.138092e+00   1.253113e+01   1.310333e+01   8.576836e+05   8.255674e+04   1.134088e+05   0.000000e+00   0.000000e+00   0.000000e+00   8.690790e+05   0.000000e+00   0.000000e+00   0.000000e+00
      712000   7.119990e-06   6.206707e+00   1.253774e+01   1.311240e+01   8.576836e+05   8.255674e+04   1.134088e+05   0.000000e+00   0.000000e+00   0.000000e+00   8.690790e+05   0.000000e+00   0.000000e+00   0.000000e+00
      720000   7.199990e-06   6.275322e+00   1.254434e+01   1.312147e+01   8.576836e+05   8.255674e+04   1.134088e+05   0.000000e+00   0.000000e+00   0.000000e+00   8.690790e+05   0.000000e+00   0.000000e+00   0.000000e+00
      728000   7.279990e-06   6.343936e+00   1.255095e+01   1.313055e+01   8.576836e+05   8.255674e+04   1.134088e+05   0.000000e+00   0.000000e+00   0.000000e+00   8.690790e+05   0.000000e+00   0.000000e+00   0.000000e+00
      736000   7.359990e-06   6.412551e+00   1.255755e+01   1.313962e+01   8.576836e+05   8.255674e+04   1.134088e+05   0.000000e+00   0.000000e+00   0.000000e+00   8.690790e+05   0.000000e+00   0.000000e+00   0.000000e+00
      744000   7.439990e-06   6.481166e+00   1.256416e+01   1.314869e+01   8.576836e+05   8.255674e+04   1.134088e+05   0.000000e+00   0.000000e+00   0.000000e+00   8.690790e+05   0.000000e+00   0.000000e+00   0.000000e+00
      752000   7.519990e-06   6.549780e+00   1.257076e+01   1.315776e+01   8.576836e+05   8.255674e+04   1.134088e+05   0.000000e+00   0.000000e+00   0.000000e+00   8.690790e+05   0.000000e+00   0.000000e+00   0.000000e+00
      760000   7.599990e-06   6.618395e+00   1.257737e+01   1.316684e+01   8.576836e+05   8.255674e+04   1.134088e+05   0.000000e+00   0.000000e+00   0.000000e+00   8.690790e+05   0.000000e+00   0.000000e+00   0.000000e+00
      768000   7.679990e-06   6.687010e+00   1.258397e+01   1.317591e+01   8.576836e+05   8.255674e+04   1.134088e+05   0.000000e+00   0.000000e+00   0.000000e+00   8.690790e+05   0.000000e+00   0.000000e+00   0.000000e+00
      776000   7.759990e-06   6.755625e+00   1.259057e+01   1.318498e+01   8.576836e+05   8.255674e+04   1.134088e+05   0.000000e+00   0.000000e+00   0.000000e+00   8.690790e+05   0.000000e+00   0.000000e+00   0.000000e+00
      784000   7.839990e-06   6.824239e+00   1.259718e+01   1.319405e+01   8.576836e+05   8.255674e+04   1.134088e+05   0.000000e+00   0.000000e+00   0.000000e+00   8.690790e+05   0.000000e+00   0.000000e+00   0.000000e+00
      792000   7.919990e-06   6.892854e+00   1.260378e+01   1.320313e+01   8.576836e+05   8.255674e+04   1.134088e+05   0.000000e+00   0.000000e+00   0.000000e+00   8.690790e+05   0.000000e+00   0.000000e+00   0.000000e+00
      800000   7.999990e-06   6.961469e+00   1.261039e+01   1.321220e+01   8.576836e+05   8.255674e+04   1.134088e+05   0.000000e+00   0.000000e+00   0.000000e+00   8.690790e+05   0.000000e+00   0.000000e+00   0.000000e+00
      808000   8.079990e-06   7.030083e+00   1.261699e+01   1.322127e+01   8.576836e+05   8.255674e+04   1.134088e+05   0.000000e+00   0.000000e+00   0.000000e+00   8.690790e+05   0.000000e+00   0.000000e+00   0.000000e+00
      816000   8.159990e-06   7.098698e+00   1.262360e+01   1.323035e+01   8.576836e+05   8.255674e+04   1.134088e+05   0.000000e+00   0.000000e+00   0.000000e+00   8.690790e+05   0.000000e+00   0.000000e+00   0.000000e+00
      824000   8.239990e-06   7.167313e+00   1.263020e+01   1.323942e+01   8.576836e+05   8.255674e+04   1.134088e+05   0.000000e+00   0.000000e+00   0.000000e+00   8.690790e+05   0.000000e+00   0.000000e+00   0.000000e+00
      832000   8.319990e-06   7.235927e+00   1.263681e+01   1.324849e+01   8.576836e+05   8.255674e+04   1.134088e+05   0.000000e+00   0.000000e+00   0.000000e+00   8.690790e+05   0.000000e+00   0.000000e+00   0.000000e+00
      840000   8.399990e-06   7.304542e+00   1.264341e+01   1.325756e+01   8.576836e+05   8.255674e+04   1.134088e+05   0.000000e+00   0.000000e+00   0.000000e+00   8.690790e+05   0.000000e+00   0.000000e+00   0.000000e+00
      848000   8.479990e-06   7.373157e+00   1.265002e+01   1.326664e+01   8.576836e+05   8.255674e+04   1.134088e+05   0.000000e+00   0.000000e+00   0.000000e+00   8.690790e+05   0.000000e+00   0.000000e+00   0.000000e+00
      856000   8.559990e-06   7.441771e+00   1.265662e+01   1.327571e+01   8.576836e+05   8.255674e+04   1.134088e+05   0.000000e+00   0.000000e+00   0.000000e+00   8.690790e+05   0.000000e+00   0.000000e+00   0.000000e+00
      864000   8.639990e-06   7.510386e+00   1.266322e+01   1.328478e+01   8.576836e+05   8.255674e+04   1.134088e+05   0.000000e+00   0.000000e+00   0.000000e+00   8.690790e+05   0.000000e+00   0.000000e+00   0.000000e+00
      872000   8.719990e-06   7.579001e+00   1.266983e+01   1.329385e+01   8.576836e+05   8.255674e+04   1.134088e+05   0.000000e+00   0.000000e+00   0.000000e+00   8.690790e+05   0.000000e+00   0.000000e+00   0.000000e+00
      880000   8.799990e-06   7.647615e+00   1.267643e+01   1.330293e+01   8.576836e+05   8.255674e+04   1.134088e+05   0.000000e+00   0.000000e+00   0.000000e+00   8.690790e+05   0.000000e+00   0.000000e+00   0.000000e+00
      888000   8.879990e-06   7.716230e+00   1.268304e+01   1.331200e+01   8.576836e+05   8.255674e+04   1.134088e+05   0.000000e+00   0.000000e+00   0.000000e+00   8.690790e+05   0.000000e+00   0.000000e+00   0.000000e+00
      896000   8.959990e-06   7.784845e+00   1.268964e+01   1.332107e+01   8.576836e+05   8.255674e+04   1.134088e+05   0.000000e+00   0.000000e+00   0.000000e+00   8.690790e+05   0.000000e+00   0.000000e+00   0.000000e+00
      904000   9.039990e-06   7.853460e+00   1.269625e+01   1.333015e+01   8.576836e+05   8.255674e+04   1.134088e+05   0.000000e+00   0.000000e+00   0.000000e+00   8.690790e+05   0.000000e+00   0.000000e+00   0.000000e+00
      912000   9.119990e-06   7.922074e+00   1.270285e+01   1.333922e+01   8.576836e+05   8.255674e+04   1.134088e+05   0.000000e+00   0.000000e+00   0.000000e+00   8.690790e+05   0.000000e+00   0.000000e+00   0.000000e+00
      920000   9.199990e-06   7.990689e+00   1.270946e+01   1.334829e+01   8.576836e+05   8.255674e+04   1.134088e+05   0.000000e+00   0.000000e+00   0.000000e+00   8.690790e+05   0.000000e+00   0.000000e+00   0.000000e+00
      928000   9.279990e-06   8.059304e+00   1.271606e+01   1.335736e+01   8.576836e+05   8.255674e+04   1.134088e+05   0.000000e+00   0.000000e+00   0.000000e+00   8.690790e+05   0.000000e+00   0.000000e+00   0.000000e+00
      936000   9.359990e-06   8.127918e+00   1.272267e+01   1.336644e+01   8.576836e+05   8.255674e+04   1.134088e+05   0.000000e+00   0.000000e+00   0.000000e+00   8.690790e+05   0.000000e+00   0.000000e+00   0.000000e+00
      944000   9.439990e-06   8.196533e+00   1.272927e+01   1.337551e+01   8.576836e+05   8.255674e+04   1.134088e+05   0.000000e+00   0.000000e+00   0.000000e+00   8.690790e+05   0.000000e+00   0.000000e+00   0.000000e+00
      952000   9.519990e-06   8.265148e+00   1.273587e+01   1.338458e+01   8.576836e+05   8.255674e+04   1.134088e+05   0.000000e+00   0.000000e+00   0.000000e+00   8.690790e+05   0.000000e+00   0.000000e+00   0.000000e+00
      960000   9.599990e-06   8.333762e+00   1.274248e+01   1.339365e+01   8.576836e+05   8.255674e+04   1.134088e+05   0.000000e+00   0.000000e+00   0.000000e+00   8.690790e+05   0.000000e+00   0.000000e+00   0.000000e+00
      968000   9.679990e-06   8.402377e+00   1.274908e+01   1.340273e+01   8.576836e+05   8.255674e+04   1.134088e+05   0.000000e+00   0.000000e+00   0.000000e+00   8.690790e+05   0.000000e+00   0.000000e+00   0.000000e+00
      976000   9.759990e-06   8.470992e+00   1.275569e+01   1.341180e+01   8.576836e+05   8.255674e+04   1.134088e+05   0.000000e+00   0.000000e+00   0.000000e+00   8.690790e+05   0.000000e+00   0.000000e+00   0.000000e+00
      984000   9.839990e-06   8.539606e+00   1.276229e+01   1.342087e+01   8.576836e+05   8.255674e+04   1.134088e+05   0.000000e+00   0.000000e+00   0.000000e+00   8.690790e+05   0.000000e+00   0.000000e+00   0.000000e+00
      992000   9.919990e-06   8.608221e+00   1.276890e+01   1.342994e+01   8.576836e+05   8.255674e+04   1.134088e+05   0.000000e+00   0.000000e+00   0.000000e+00   8.690790e+05   0.000000e+00   0.000000e+00   0.000000e+00
     1000000   9.999990e-06   8.676836e+00   1.277550e+01   1.343902e+01   8.576836e+05   8.255674e+04   1.134088e+05   0.000000e+00   0.000000e+00   0.000000e+00   8.690790e+05   0.000000e+00   0.000000e+00   0.000000e+00
     1008000   1.007999e-05   8.745450e+00   1.278211e+01   1.344809e+01   8.576836e+05   8.255674e+04   1.134088e+05   0.000000e+00   0.000000e+00   0.000000e+00   8.690790e+05   0.000000e+00   0.000000e+00   0.000000e+00
     1016000   1.015999e-05   8.814065e+00   1.278871e+01   1.345716e+01   8.576836e+05   8.255674e+04   1.134088e+05   0.000000e+00   0.000000e+00   0.000000e+00   8.690790e+05   0.000000e+00   0.000000e+00   0.000000e+00
     1024000   1.023999e-05   8.882680e+00   1.279531e+01   1.346624e+01   8.576836e+05   8.255674e+04   1.134088e+05   0.000000e+00   0.000000e+00   0.000000e+00   8.690790e+05   0.000000e+00   0.000000e+00   0.000000e+00
     1032000   1.031999e-05   8.951295e+00   1.280192e+01   1.347531e+01   8.576836e+05   8.255674e+04   1.134088e+05   0.000000e+00   0.000000e+00   0.000000e+00   8.690790e+05   0.000000e+00   0.000000e+00   0.000000e+00
     1040000   1.039999e-05   9.019909e+00   1.280852e+01   1.348438e+01   8.576836e+05   8.255674e+04   1.134088e+05   0.000000e+00   0.000000e+00   0.000000e+00   8.690790e+05   0.000000e+00   0.000000e+00   0.000000e+00
     1048000   1.047999e-05   9.088524e+00   1.281513e+01   1.349345e+01   8.576836e+05   8.255674e+04   1.134088e+05   0.000000e+00   0.000000e+00   0.000000e+00   8.690790e+05   0.000000e+00   0.000000e+00   0.000000e+00
     1056000   1.055999e-05   9.157139e+00   1.282173e+01   1.350253e+01   8.576836e+05   8.255674e+04   1.134088e+05   0.000000e+00   0.000000e+00   0.000000e+00   8.690790e+05   0.000000e+00   0.000000e+00   0.000000e+00
     1064000   1.063999e-05   9.225753e+00   1.282834e+01   1.351160e+01   8.576836e+05   8.255674e+04   1.134088e+05   0.000000e+00   0.000000e+00   0.000000e+00   8.690790e+05   0.000000e+00   0.000000e+00   0.000000e+00
     1072000   1.071999e-05   9.294368e+00   1.283494e+01   1.352067e+01   8.576836e+05   8.255674e+04   1.134088e+05   0.000000e+00   0.000000e+00   0.000000e+00   8.690790e+05   0.000000e+00   0.000000e+00   0.000000e+00
     1080000   1.079999e-05   9.362983e+00   1.284155e+01   1.352974e+01   8.576836e+05   8.255674e+04   1.134088e+05   0.000000e+00   0.000000e+00   0.000000e+00   8.690790e+05   0.000000e+00   0.000000e+00   0.000000e+00
     1088000   1.087999e-05   9.431597e+00   1.284815e+01   1.353882e+01   8.576836e+05   8.255674e+04   1.134088e+05   0.000000e+00   0.000000e+00   0.000000e+00   8.690790e+05   0.000000e+00   0.000000e+00   0.000000e+00
     1096000   1.095999e-05   9.500212e+00   1.285476e+01   1.354789e+01   8.576836e+05   8.255674e+04   1.134088e+05   0.000000e+00   0.000000e+00   0.000000e+00   8.690790e+05   0.000000e+00   0.000000e+00   0.000000e+00
     1104000   1.103999e-05   9.568827e+00   1.286136e+01   1.355696e+01   8.576836e+05   8.255674e+04   1.134088e+05   0.000000e+00   0.000000e+00   0.000000e+00   8.690790e+05   0.000000e+00   0.000000e+00   0.000000e+00
     1112000   1.111999e-05   9.637441e+00   1.286796e+01   1.356604e+01   8.576836e+05   8.255674e+04   1.134088e+05   0.000000e+00   0.000000e+00   0.000000e+00   8.690790e+05   0.000000e+00   0.000000e+00   0.000000e+00
     1120000   1.119999e-05   9.706056e+00   1.287457e+01   1.357511e+01   8.576836e+05   8.255674e+04   1.134088e+05   0.000000e+00   0.000000e+00   0.000000e+00   8.690790e+05   0.000000e+00   0.000000e+00   0.000000e+00
     1128000   1.127999e-05   9.774671e+00   1.288117e+01   1.358418e+01   8.576836e+05   8.255674e+04   1.134088e+05   0.000000e+00   0.000000e+00   0.000000e+00   8.690790e+05   0.000000e+00   0.000000e+00   0.000000e+00
     1136000   1.135999e-05   9.843285e+00   1.288778e+01   1.359325e+01   8.576836e+05   8.255674e+04   1.134088e+05   0.000000e+00   0.000000e+00   0.000000e+00   8.690790e+05   0.000000e+00   0.000000e+00   0.000000e+00
     1144000   1.143999e-05   9.911900e+00   1.289438e+01   1.360233e+01   8.576836e+05   8.255674e+04   1.134088e+05   0.000000e+00   0.000000e+00   0.000000e+00   8.690790e+05   0.000000e+00   0.000000e+00   0.000000e+00
     1152000   1.151999e-05   9.980515e+00   1.290099e+01   1.361140e+01   8.576836e+05   8.255674e+04   1.134088e+05   0.000000e+00   0.000000e+00   0.000000e+00   8.690790e+05   0.000000e+00   0.000000e+00   0.000000e+00
     1160000   1.159999e-05   1.004913e+01   1.290759e+01   1.362047e+01   8.576836e+05   8.255674e+04   1.134088e+05   0.000000e+00   0.000000e+00   0.000000e+00   8.690790e+05   0.000000e+00   0.000000e+00   0.000000e+00
     1168000   1.167999e-05   1.011774e+01   1.291420e+01   1.362954e+01   8.576836e+05   8.255674e+04   1.134088e+05   0.000000e+00   0.000000e+00   0.000000e+00   8.690790e+05   0.000000e+00   0.000000e+00   0.000000e+00
     1176000   1.175999e-05   1.018636e+01   1.292080e+01   1.363862e+01   8.576836e+05   8.255674e+04   1.134088e+05   0.000000e+00   0.000000e+00   0.000000e+00   8.690790e+05   0.000000e+00   0.000000e+00   0.000000e+00
     1184000   1.183999e-05   1.025497e+01   1.292741e+01   1.364769e+01   8.576836e+05   8.255674e+04   1.134088e+05   0.000000e+00   0.000000e+00   0.000000e+00   8.690790e+05   0.000000e+00   0.000000e+00   0.000000e+00
     1192000   1.191999e-05   1.032359e+01   1.293401e+01   1.365676e+01   8.576836e+05   8.255674e+04   1.134088e+05   0.000000e+00   0.000000e+00   0.000000e+00   8.690790e+05   0.000000e+00   0.000000e+00   0.000000e+00
     1200000   1.199999e-05   1.039220e+01   1.294061e+01   1.366584e+01   8.576836e+05   8.255674e+04   1.134088e+05   0.000000e+00   0.000000e+00   0.000000e+00   8.690790e+05   0.000000e+00   0.000000e+00   0.000000e+00
     1208000   1.207999e-05   1.046082e+01   1.294722e+01   1.367491e+01   8.576836e+05   8.255674e+04   1.134088e+05   0.000000e+00   0.000000e+00   0.000000e+00   8.690790e+05   0.000000e+00   0.000000e+00   0.000000e+00
     1216000   1.215999e-05   1.052943e+01   1.295382e+01   1.368398e+01   8.576836e+05   8.255674e+04   1.134088e+05   0.000000e+00   0.000000e+00   0.000000e+00   8.690790e+05   0.000000e+00   0.000000e+00   0.000000e+00
     1224000   1.223999e-05   1.059805e+01   1.296043e+01   1.369305e+01   8.576836e+05   8.255674e+04   1.134088e+05   0.000000e+00   0.000000e+00   0.000000e+00   8.690790e+05   0.000000e+00   0.000000e+00   0.000000e+00
     1232000   1.231999e-05   1.066666e+01   1.296703e+01   1.370213e+01   8.576836e+05   8.255674e+04   1.134088e+05   0.000000e+00   0.000000e+00   0.000000e+00   8.690790e+05   0.000000e+00   0.000000e+00   0.000000e+00
     1240000   1.239999e-05   1.073528e+01   1.297364e+01   1.371120e+01   8.576836e+05   8.255674e+04   1.134088e+05   0.000000e+00   0.000000e+00   0.000000e+00   8.690790e+05   0.000000e+00   0.000000e+00   0.000000e+00
     1248000   1.247999e-05   1.080389e+01   1.298024e+01   1.372027e+01   8.576836e+05   8.255674e+04   1.134088e+05   0.000000e+00   0.000000e+00   0.000000e+00   8.690790e+05   0.000000e+00   0.000000e+00   0.000000e+00
     1256000   1.255999e-05   1.087251e+01   1.298685e+01   1.372934e+01   8.576836e+05   8.255674e+04   1.134088e+05   0.000000e+00   0.000000e+00   0.000000e+00   8.690790e+05   0.000000e+00   0.000000e+00   0.000000e+00
     1264000   1.263999e-05   1.094112e+01   1.299345e+01   1.373842e+01   8.576836e+05   8.255674e+04   1.134088e+05   0.000000e+00   0.000000e+00   0.000000e+00   8.690790e+05   0.000000e+00   0.000000e+00   0.000000e+00
     1272000   1.271999e-05   1.100974e+01   1.300006e+01   1.374749e+01   8.576836e+05   8.255674e+04   1.134088e+05   0.000000e+00   0.000000e+00   0.000000e+00   8.690790e+05   0.000000e+00   0.000000e+00   0.000000e+00
     1280000   1.279999e-05   1.107835e+01   1.300666e+01   1.375656e+01   8.576836e+05   8.255674e+04   1.134088e+05   0.000000e+00   0.000000e+00   0.000000e+00   8.690790e+05   0.000000e+00   0.000000e+00   0.000000e+00
     1288000   1.287999e-05   1.114696e+01   1.301326e+01   1.376563e+01   8.576836e+05   8.255674e+04   1.134088e+05   0.000000e+00   0.000000e+00   0.000000e+00   8.690790e+05   0.000000e+00   0.000000e+00   0.000000e+00
     1296000   1.295999e-05   1.121558e+01   1.301987e+01   1.377471e+01   8.576836e+05   8.255674e+04   1.134088e+05   0.000000e+00   0.000000e+00   0.000000e+00   8.690790e+05   0.000000e+00   0.000000e+00   0.000000e+00
     1304000   1.303999e-05   1.128419e+01   1.302647e+01   1.378378e+01   8.576836e+05   8.255674e+04   1.134088e+05   0.000000e+00   0.000000e+00   0.000000e+00   8.690790e+05   0.000000e+00   0.000000e+00   0.000000e+00
     1312000   1.311999e-05   1.135281e+01   1.303308e+01   1.379285e+01   8.576836e+05   8.255674e+04   1.134088e+05   0.000000e+00   0.000000e+00   0.000000e+00   8.690790e+05   0.000000e+00   0.000000e+00   0.000000e+00
     1320000   1.319999e-05   1.142142e+01   1.303968e+01   1.380193e+01   8.576836e+05   8.255674e+04   1.134088e+05   0.000000e+00   0.000000e+00   0.000000e+00   8.690790e+05   0.000000e+00   0.000000e+00   0.000000e+00
     1328000   1.327999e-05   1.149004e+01   1.304629e+01   1.381100e+01   8.576836e+05   8.255674e+04   1.134088e+05   0.000000e+00   0.000000e+00   0.000000e+00   8.690790e+05   0.000000e+00   0.000000e+00   0.000000e+00
     1336000   1.335999e-05   1.155865e+01   1.305289e+01   1.382007e+01   8.576836e+05   8.255674e+04   1.134088e+05   0.000000e+00   0.000000e+00   0.000000e+00   8.690790e+05   0.000000e+00   0.000000e+00   0.000000e+00
     1344000   1.343999e-05   1.162727e+01   1.305950e+01   1.382914e+01   8.576836e+05   8.255674e+04   1.134088e+05   0.000000e+00   0.000000e+00   0.000000e+00   8.690790e+05   0.000000e+00   0.000000e+00   0.000000e+00
     1352000   1.351999e-05   1.169588e+01   1.306610e+01   1.383822e+01   8.576836e+05   8.255674e+04   1.134088e+05   0.000000e+00   0.000000e+00   0.000000e+00   8.690790e+05   0.000000e+00   0.000000e+00   0.000000e+00
     1360000   1.359999e-05   1.176450e+01   1.307271e+01   1.384729e+01   8.576836e+05   8.255674e+04   1.134088e+05   0.000000e+00   0.000000e+00   0.000000e+00   8.690790e+05   0.000000e+00   0.000000e+00   0.000000e+00
     1368000   1.367999e-05   1.183311e+01   1.307931e+01   1.385636e+01   8.576836e+05   8.255674e+04   1.134088e+05   0.000000e+00   0.000000e+00   0.000000e+00   8.690790e+05   0.000000e+00   0.000000e+00   0.000000e+00
     1376000   1.375999e-05   1.190173e+01   1.308591e+01   1.386543e+01   8.576836e+05   8.255674e+04   1.134088e+05   0.000000e+00   0.000000e+00   0.000000e+00   8.690790e+05   0.000000e+00   0.000000e+00   0.000000e+00
     1384000   1.383999e-05   1.197034e+01   1.309252e+01   1.387451e+01   8.576836e+05   8.255674e+04   1.134088e+05   0.000000e+00   0.000000e+00   0.000000e+00   8.690790e+05   0.000000e+00   0.000000e+00   0.000000e+00
     1392000   1.391999e-05   1.203896e+01   1.309912e+01   1.388358e+01   8.576836e+05   8.255674e+04   1.134088e+05   0.000000e+00   0.000000e+00   0.000000e+00   8.690790e+05   0.000000e+00   0.000000e+00   0.000000e+00
     1400000   1.399999e-05   1.210757e+01   1.310573e+01   1.389265e+01   8.576836e+05   8.255674e+04   1.134088e+05   0.000000e+00   0.000000e+00   0.000000e+00   8.690790e+05   0.000000e+00   0.000000e+00   0.000000e+00
     1408000   1.407999e-05   1.217618e+01   1.311233e+01   1.390173e+01   8.576836e+05   8.255674e+04   1.134088e+05   0.000000e+00   0.000000e+00   0.000000e+00   8.690790e+05   0.000000e+00   0.000000e+00   0.000000e+00
     1416000   1.415999e-05   1.224480e+01   1.311894e+01   1.391080e+01   8.576836e+05   8.255674e+04   1.134088e+05   0.000000e+00   0.000000e+00   0.000000e+00   8.690790e+05   0.000000e+00   0.000000e+00   0.000000e+00
     1424000   1.423999e-05   1.231341e+01   1.312554e+01   1.391987e+01   8.576836e+05   8.255674e+04   1.134088e+05   0.000000e+00   0.000000e+00   0.000000e+00   8.690790e+05   0.000000e+00   0.000000e+00   0.000000e+00
     1432000   1.431999e-05   1.238203e+01   1.313215e+01   1.392894e+01   8.576836e+05   8.255674e+04   1.134088e+05   0.000000e+00   0.000000e+00   0.000000e+00   8.690790e+05   0.000000e+00   0.000000e+00   0.000000e+00
     1440000   1.439999e-05   1.245064e+01   1.313875e+01   1.393802e+01   8.576836e+05   8.255674e+04   1.134088e+05   0.000000e+00   0.000000e+00   0.000000e+00   8.690790e+05   0.000000e+00   0.000000e+00   0.000000e+00
     1448000   1.447999e-05   1.251926e+01   1.314536e+01   1.394709e+01   8.576836e+05   8.255674e+04   1.134088e+05   0.000000e+00   0.000000e+00   0.000000e+00   8.690790e+05   0.000000e+00   0.000000e+00   0.000000e+00
     1456000   1.455999e-05   1.258787e+01   1.315196e+01   1.395616e+01   8.576836e+05   8.255674e+04   1.134088e+05   0.000000e+00   0.000000e+00   0.000000e+00   8.690790e+05   0.000000e+00   0.000000e+00   0.000000e+00
     1464000   1.463999e-05   1.265649e+01   1.315856e+01   1.396523e+01   8.576836e+05   8.255674e+04   1.134088e+05   0.000000e+00   0.000000e+00   0.000000e+00   8.690790e+05   0.000000e+00   0.000000e+00   0.000000e+00
     1472000   1.471999e-05   1.272510e+01   1.316517e+01   1.397431e+01   8.576836e+05   8.255674e+04   1.134088e+05   0.000000e+00   0.000000e+00   0.000000e+00   8.690790e+05   0.000000e+00   0.000000e+00   0.000000e+00
     1480000   1.479999e-05   1.279372e+01   1.317177e+01   1.398338e+01   8.576836e+05   8.255674e+04   1.134088e+05   0.000000e+00   0.000000e+00   0.000000e+00   8.690790e+05   0.000000e+00   0.000000e+00   0.000000e+00
     1488000   1.487999e-05   1.286233e+01   1.317838e+01   1.399245e+01   8.576836e+05   8.255674e+04   1.134088e+05   0.000000e+00   0.000000e+00   0.000000e+00   8.690790e+05   0.000000e+00   0.000000e+00   0.000000e+00
     1496000   1.495999e-05   1.293095e+01   1.318498e+01   1.400153e+01   8.576836e+05   8.255674e+04   1.134088e+05   0.000000e+00   0.000000e+00   0.000000e+00   8.690790e+05   0.000000e+00   0.000000e+00   0.000000e+00
     1504000   1.503999e-05   1.299956e+01   1.319159e+01   1.401060e+01   8.576836e+05   8.255674e+04   1.134088e+05   0.000000e+00   0.000000e+00   0.000000e+00   8.690790e+05   0.000000e+00   0.000000e+00   0.000000e+00
     1512000   1.511999e-05   1.306818e+01   1.319819e+01   1.401967e+01   8.576836e+05   8.255674e+04   1.134088e+05   0.000000e+00   0.000000e+00   0.000000e+00   8.690790e+05   0.000000e+00   0.000000e+00   0.000000e+00
     1520000   1.519999e-05   1.313679e+01   1.320480e+01   1.402874e+01   8.576836e+05   8.255674e+04   1.134088e+05   0.000000e+00   0.000000e+00   0.000000e+00   8.690790e+05   0.000000e+00   0.000000e+00   0.000000e+00
     1528000   1.527999e-05   1.320541e+01   1.321140e+01   1.403782e+01   8.576836e+05   8.255674e+04   1.134088e+05   0.000000e+00   0.000000e+00   0.000000e+00   8.690790e+05   0.000000e+00   0.000000e+00   0.000000e+00
     1536000   1.535999e-05   1.327402e+01   1.321801e+01   1.404689e+01   8.576836e+05   8.255674e+04   1.134088e+05   0.000000e+00   0.000000e+00   0.000000e+00   8.690790e+05   0.000000e+00   0.000000e+00   0.000000e+00
     1544000   1.543999e-05   1.334263e+01   1.322461e+01   1.405596e+01   8.576836e+05   8.255674e+04   1.134088e+05   0.000000e+00   0.000000e+00   0.000000e+00   8.690790e+05   0.000000e+00   0.000000e+00   0.000000e+00
     1552000   1.551999e-05   1.341125e+01   1.323121e+01   1.406503e+01   8.576836e+05   8.255674e+04   1.134088e+05   0.000000e+00   0.000000e+00   0.000000e+00   8.690790e+05   0.000000e+00   0.000000e+00   0.000000e+00
     1560000   1.559999e-05   1.347986e+01   1.323782e+01   1.407411e+01   8.576836e+05   8.255674e+04   1.134088e+05   0.000000e+00   0.000000e+00   0.000000e+00   8.690790e+05   0.000000e+00   0.000000e+00   0.000000e+00
     1568000   1.567999e-05   1.354848e+01   1.324442e+01   1.408318e+01   8.576836e+05   8.255674e+04   1.134088e+05   0.000000e+00   0.000000e+00   0.000000e+00   8.690790e+05   0.000000e+00   0.000000e+00   0.000000e+00
     1576000   1.575999e-05   1.361709e+01   1.325103e+01   1.409225e+01   8.576836e+05   8.255674e+04   1.134088e+05   0.000000e+00   0.000000e+00   0.000000e+00   8.690790e+05   0.000000e+00   0.000000e+00   0.000000e+00
     1584000   1.583999e-05   1.368571e+01   1.325763e+01   1.410132e+01   8.576836e+05   8.255674e+04   1.134088e+05   0.000000e+00   0.000000e+00   0.000000e+00   8.690790e+05   0.000000e+00   0.000000e+00   0.000000e+00
     1592000   1.591999e-05   1.375432e+01   1.326424e+01   1.411040e+01   8.576836e+05   8.255674e+04   1.134088e+05   0.000000e+00   0.000000e+00   0.000000e+00   8.690790e+05   0.000000e+00   0.000000e+00   0.000000e+00
     1600000   1.599999e-05   1.382294e+01   1.327084e+01   1.411947e+01   8.576836e+05   8.255674e+04   1.134088e+05   0.000000e+00   0.000000e+00   0.000000e+00   8.690790e+05   0.000000e+00   0.000000e+00   0.000000e+00
     1608000   1.607999e-05   1.389155e+01   1.327745e+01   1.412854e+01   8.576836e+05   8.255674e+04   1.134088e+05   0.000000e+00   0.000000e+00   0.000000e+00   8.690790e+05   0.000000e+00   0.000000e+00   0.000000e+00
     1616000   1.615999e-05   1.396017e+01   1.328405e+01   1.413762e+01   8.576836e+05   8.255674e+04   1.134088e+05   0.000000e+00   0.000000e+00   0.000000e+00   8.690790e+05   0.000000e+00   0.000000e+00   0.000000e+00
     1624000   1.623999e-05   1.402878e+01   1.329066e+01   1.414669e+01   8.576836e+05   8.255674e+04   1.134088e+05   0.000000e+00   0.000000e+00   0.000000e+00   8.690790e+05   0.000000e+00   0.000000e+00   0.000000e+00
     1632000   1.631999e-05   1.409740e+01   1.329726e+01   1.415576e+01   8.576836e+05   8.255674e+04   1.134088e+05   0.000000e+00   0.000000e+00   0.000000e+00   8.690790e+05   0.000000e+00   0.000000e+00   0.000000e+00
     1640000   1.639999e-05   1.416601e+01   1.330386e+01   1.416483e+01   8.576836e+05   8.255674e+04   1.134088e+05   0.000000e+00   0.000000e+00   0.000000e+00   8.690790e+05   0.000000e+00   0.000000e+00   0.000000e+00
     1648000   1.647999e-05   1.423463e+01   1.331047e+01   1.417391e+01   8.576836e+05   8.255674e+04   1.134088e+05   0.000000e+00   0.000000e+00   0.000000e+00   8.690790e+05   0.000000e+00   0.000000e+00   0.000000e+00
     1656000   1.655999e-05   1.430324e+01   1.331707e+01   1.418298e+01   8.576836e+05   8.255674e+04   1.134088e+05   0.000000e+00   0.000000e+00   0.000000e+00   8.690790e+05   0.000000e+00   0.000000e+00   0.000000e+00
     1664000   1.663999e-05   1.437185e+01   1.332368e+01   1.419205e+01   8.576836e+05   8.255674e+04   1.134088e+05   0.000000e+00   0.000000e+00   0.000000e+00   8.690790e+05   0.000000e+00   0.000000e+00   0.000000e+00
     1672000   1.671999e-05   1.444047e+01   1.333028e+01   1.420112e+01   8.576836e+05   8.255674e+04   1.134088e+05   0.000000e+00   0.000000e+00   0.000000e+00   8.690790e+05   0.000000e+00   0.000000e+00   0.000000e+00
     1680000   1.679999e-05   1.450908e+01   1.333689e+01   1.421020e+01   8.576836e+05   8.255674e+04   1.134088e+05   0.000000e+00   0.000000e+00   0.000000e+00   8.690790e+05   0.000000e+00   0.000000e+00   0.000000e+00
     1688000   1.687999e-05   1.457770e+01   1.334349e+01   1.421927e+01   8.576836e+05   8.255674e+04   1.134088e+05   0.000000e+00   0.000000e+00   0.000000e+00   8.690790e+05   0.000000e+00   0.000000e+00   0.000000e+00
     1696000   1.695999e-05   1.464631e+01   1.335010e+01   1.422834e+01   8.576836e+05   8.255674e+04   1.134088e+05   0.000000e+00   0.000000e+00   0.000000e+00   8.690790e+05   0.000000e+00   0.000000e+00   0.000000e+00
     1704000   1.703999e-05   1.471493e+01   1.335670e+01   1.423742e+01   8.576836e+05   8.255674e+04   1.134088e+05   0.000000e+00   0.000000e+00   0.000000e+00   8.690790e+05   0.000000e+00   0.000000e+00   0.000000e+00
     1712000   1.711999e-05   1.478354e+01   1.336331e+01   1.424649e+01   8.576836e+05   8.255674e+04   1.134088e+05   0.000000e+00   0.000000e+00   0.000000e+00   8.690790e+05   0.000000e+00   0.000000e+00   0.000000e+00
     1720000   1.719999e-05   1.485216e+01   1.336991e+01   1.425556e+01   8.576836e+05   8.255674e+04   1.134088e+05   0.000000e+00   0.000000e+00   0.000000e+00   8.690790e+05   0.000000e+00   0.000000e+00   0.000000e+00
     1728000   1.727999e-05   1.492077e+01   1.337651e+01   1.426463e+01   8.576836e+05   8.255674e+04   1.134088e+05   0.000000e+00   0.000000e+00   0.000000e+00   8.690790e+05   0.000000e+00   0.000000e+00   0.000000e+00
     1736000   1.735999e-05   1.498939e+01   1.338312e+01   1.427371e+01   8.576836e+05   8.255674e+04   1.134088e+05   0.000000e+00   0.000000e+00   0.000000e+00   8.690790e+05   0.000000e+00   0.000000e+00   0.000000e+00
     1744000   1.743999e-05   1.505800e+01   1.338972e+01   1.428278e+01   8.576836e+05   8.255674e+04   1.134088e+05   0.000000e+00   0.000000e+00   0.000000e+00   8.690790e+05   0.000000e+00   0.000000e+00   0.000000e+00
     1752000   1.751999e-05   1.512662e+01   1.339633e+01   1.429185e+01   8.576836e+05   8.255674e+04   1.134088e+05   0.000000e+00   0.000000e+00   0.000000e+00   8.690790e+05   0.000000e+00   0.000000e+00   0.000000e+00
     1760000   1.759999e-05   1.519523e+01   1.340293e+01   1.430092e+01   8.576836e+05   8.255674e+04   1.134088e+05   0.000000e+00   0.000000e+00   0.000000e+00   8.690790e+05   0.000000e+00   0.000000e+00   0.000000e+00
     1768000   1.767999e-05   1.526385e+01   1.340954e+01   1.431000e+01   8.576836e+05   8.255674e+04   1.134088e+05   0.000000e+00   0.000000e+00   0.000000e+00   8.690790e+05   0.000000e+00   0.000000e+00   0.000000e+00
     1776000   1.775999e-05   1.533246e+01   1.341614e+01   1.431907e+01   8.576836e+05   8.255674e+04   1.134088e+05   0.000000e+00   0.000000e+00   0.000000e+00   8.690790e+05   0.000000e+00   0.000000e+00   0.000000e+00
     1784000   1.783999e-05   1.540108e+01   1.342275e+01   1.432814e+01   8.576836e+05   8.255674e+04   1.134088e+05   0.000000e+00   0.000000e+00   0.000000e+00   8.690790e+05   0.000000e+00   0.000000e+00   0.000000e+00
     1792000   1.791999e-05   1.546969e+01   1.342935e+01   1.433721e+01   8.576836e+05   8.255674e+04   1.134088e+05   0.000000e+00   0.000000e+00   0.000000e+00   8.690790e+05   0.000000e+00   0.000000e+00   0.000000e+00
     1800000   1.799999e-05   1.553830e+01   1.343596e+01   1.434629e+01   8.576836e+05   8.255674e+04   1.134088e+05   0.000000e+00   0.000000e+00   0.000000e+00   8.690790e+05   0.000000e+00   0.000000e+00   0.000000e+00
     1808000   1.807999e-05   1.560692e+01   1.344256e+01   1.435536e+01   8.576836e+05   8.255674e+04   1.134088e+05   0.000000e+00   0.000000e+00   0.000000e+00   8.690790e+05   0.000000e+00   0.000000e+00   0.000000e+00
     1816000   1.815999e-05   1.567553e+01   1.344916e+01   1.436443e+01   8.576836e+05   8.255674e+04   1.134088e+05   0.000000e+00   0.000000e+00   0.000000e+00   8.690790e+05   0.000000e+00   0.000000e+00   0.000000e+00
     1824000   1.823999e-05   1.574415e+01   1.345577e+01   1.437351e+01   8.576836e+05   8.255674e+04   1.134088e+05   0.000000e+00   0.000000e+00   0.000000e+00   8.690790e+05   0.000000e+00   0.000000e+00   0.000000e+00
     1832000   1.831999e-05   1.581276e+01   1.346237e+01   1.438258e+01   8.576836e+05   8.255674e+04   1.134088e+05   0.000000e+00   0.000000e+00   0.000000e+00   8.690790e+05   0.000000e+00   0.000000e+00   0.000000e+00
     1840000   1.839999e-05   1.588138e+01   1.346898e+01   1.439165e+01   8.576836e+05   8.255674e+04   1.134088e+05   0.000000e+00   0.000000e+00   0.000000e+00   8.690790e+05   0.000000e+00   0.000000e+00   0.000000e+00
     1848000   1.847999e-05   1.594999e+01   1.347558e+01   1.440072e+01   8.576836e+05   8.255674e+04   1.134088e+05   0.000000e+00   0.000000e+00   0.000000e+00   8.690790e+05   0.000000e+00   0.000000e+00   0.000000e+00
     1856000   1.855999e-05   1.601861e+01   1.348219e+01   1.440980e+01   8.576836e+05   8.255674e+04   1.134088e+05   0.000000e+00   0.000000e+00   0.000000e+00   8.690790e+05   0.000000e+00   0.000000e+00   0.000000e+00
     1864000   1.863999e-05   1.608722e+01   1.348879e+01   1.441887e+01   8.576836e+05   8.255674e+04   1.134088e+05   0.000000e+00   0.000000e+00   0.000000e+00   8.690790e+05   0.000000e+00   0.000000e+00   0.000000e+00
     1872000   1.871999e-05   1.615584e+01   1.349540e+01   1.442794e+01   8.576836e+05   8.255674e+04   1.134088e+05   0.000000e+00   0.000000e+00   0.000000e+00   8.690790e+05   0.000000e+00   0.000000e+00   0.000000e+00
     1880000   1.879999e-05   1.622445e+01   1.350200e+01   1.443701e+01   8.576836e+05   8.255674e+04   1.134088e+05   0.000000e+00   0.000000e+00   0.000000e+00   8.690790e+05   0.000000e+00   0.000000e+00   0.000000e+00
     1888000   1.887999e-05   1.629307e+01   1.350861e+01   1.444609e+01   8.576836e+05   8.255674e+04   1.134088e+05   0.000000e+00   0.000000e+00   0.000000e+00   8.690790e+05   0.000000e+00   0.000000e+00   0.000000e+00
     1896000   1.895999e-05   1.636168e+01   1.351521e+01   1.445516e+01   8.576836e+05   8.255674e+04   1.134088e+05   0.000000e+00   0.000000e+00   0.000000e+00   8.690790e+05   0.000000e+00   0.000000e+00   0.000000e+00
     1904000   1.903999e-05   1.643030e+01   1.352181e+01   1.446423e+01   8.576836e+05   8.255674e+04   1.134088e+05   0.000000e+00   0.000000e+00   0.000000e+00   8.690790e+05   0.000000e+00   0.000000e+00   0.000000e+00
     1912000   1.911999e-05   1.649891e+01   1.352842e+01   1.447331e+01   8.576836e+05   8.255674e+04   1.134088e+05   0.000000e+00   0.000000e+00   0.000000e+00   8.690790e+05   0.000000e+00   0.000000e+00   0.000000e+00
     1920000   1.919999e-05   1.656752e+01   1.353502e+01   1.448238e+01   8.576836e+05   8.255674e+04   1.134088e+05   0.000000e+00   0.000000e+00   0.000000e+00   8.690790e+05   0.000000e+00   0.000000e+00   0.000000e+00
     1928000   1.927999e-05   1.663614e+01   1.354163e+01   1.449145e+01   8.576836e+05   8.255674e+04   1.134088e+05   0.000000e+00   0.000000e+00   0.000000e+00   8.690790e+05   0.000000e+00   0.000000e+00   0.000000e+00
     1936000   1.935999e-05   1.670475e+01   1.354823e+01   1.450052e+01   8.576836e+05   8.255674e+04   1.134088e+05   0.000000e+00   0.000000e+00   0.000000e+00   8.690790e+05   0.000000e+00   0.000000e+00   0.000000e+00
     1944000   1.943999e-05   1.677337e+01   1.355484e+01   1.450960e+01   8.576836e+05   8.255674e+04   1.134088e+05   0.000000e+00   0.000000e+00   0.000000e+00   8.690790e+05   0.000000e+00   0.000000e+00   0.000000e+00
     1952000   1.951999e-05   1.684198e+01   1.356144e+01   1.451867e+01   8.576836e+05   8.255674e+04   1.134088e+05   0.000000e+00   0.000000e+00   0.000000e+00   8.690790e+05   0.000000e+00   0.000000e+00   0.000000e+00
     1960000   1.959999e-05   1.691060e+01   1.356805e+01   1.452774e+01   8.576836e+05   8.255674e+04   1.134088e+05   0.000000e+00   0.000000e+00   0.000000e+00   8.690790e+05   0.000000e+00   0.000000e+00   0.000000e+00
     1968000   1.967999e-05   1.697921e+01   1.357465e+01   1.453681e+01   8.576836e+05   8.255674e+04   1.134088e+05   0.000000e+00   0.000000e+00   0.000000e+00   8.690790e+05   0.000000e+00   0.000000e+00   0.000000e+00
     1976000   1.975999e-05   1.704783e+01   1.358126e+01   1.454589e+01   8.576836e+05   8.255674e+04   1.134088e+05   0.000000e+00   0.000000e+00   0.000000e+00   8.690790e+05   0.000000e+00   0.000000e+00   0.000000e+00
     1984000   1.983999e-05   1.711644e+01   1.358786e+01   1.455496e+01   8.576836e+05   8.255674e+04   1.134088e+05   0.000000e+00   0.000000e+00   0.000000e+00   8.690790e+05   0.000000e+00   0.000000e+00   0.000000e+00
     1992000   1.991999e-05   1.718506e+01   1.359446e+01   1.456403e+01   8.576836e+05   8.255674e+04   1.134088e+05   0.000000e+00   0.000000e+00   0.000000e+00   8.690790e+05   0.000000e+00   0.000000e+00   0.000000e+00
     2000000   1.999999e-05   1.725367e+01   1.360107e+01   1.457311e+01   8.576836e+05   8.255674e+04   1.134088e+05   0.000000e+00   0.000000e+00   0.000000e+00   8.690790e+05   0.000000e+00   0.000000e+00   0.000000e+00
     2008000   2.007999e-05   1.732229e+01   1.360767e+01   1.458218e+01   8.576836e+05   8.255674e+04   1.134088e+05   0.000000e+00   0.000000e+00   0.000000e+00   8.690790e+05   0.000000e+00   0.000000e+00   0.000000e+00
     2016000   2.015999e-05   1.739090e+01   1.361428e+01   1.459125e+01   8.576836e+05   8.255674e+04   1.134088e+05   0.000000e+00   0.000000e+00   0.000000e+00   8.690790e+05   0.000000e+00   0.000000e+00   0.000000e+00
     2024000   2.023999e-05   1.745952e+01   1.362088e+01   1.460032e+01   8.576836e+05   8.255674e+04   1.134088e+05   0.000000e+00   0.000000e+00   0.000000e+00   8.690790e+05   0.000000e+00   0.000000e+00   0.000000e+00
     2032000   2.031999e-05   1.752813e+01   1.362749e+01   1.460940e+01   8.576836e+05   8.255674e+04   1.134088e+05   0.000000e+00   0.000000e+00   0.000000e+00   8.690790e+05   0.000000e+00   0.000000e+00   0.000000e+00
     2040000   2.039999e-05   1.759674e+01   1.363409e+01   1.461847e+01   8.576836e+05   8.255674e+04   1.134088e+05   0.000000e+00   0.000000e+00   0.000000e+00   8.690790e+05   0.000000e+00   0.000000e+00   0.000000e+00
     2048000   2.047999e-05   1.766536e+01   1.364070e+01   1.462754e+01   8.576836e+05   8.255674e+04   1.134088e+05   0.000000e+00   0.000000e+00   0.000000e+00   8.690790e+05   0.000000e+00   0.000000e+00   0.000000e+00
     2056000   2.055999e-05   1.773397e+01   1.364730e+01   1.463661e+01   8.576836e+05   8.255674e+04   1.134088e+05   0.000000e+00   0.000000e+00   0.000000e+00   8.690790e+05   0.000000e+00   0.000000e+00   0.000000e+00
     2064000   2.063999e-05   1.780259e+01   1.365391e+01   1.464569e+01   8.576836e+05   8.255674e+04   1.134088e+05   0.000000e+00   0.000000e+00   0.000000e+00   8.690790e+05   0.000000e+00   0.000000e+00   0.000000e+00
     2072000   2.071999e-05   1.787120e+01   1.366051e+01   1.465476e+01   8.576836e+05   8.255674e+04   1.134088e+05   0.000000e+00   0.000000e+00   0.000000e+00   8.690790e+05   0.000000e+00   0.000000e+00   0.000000e+00
     2080000   2.079999e-05   1.793982e+01   1.366711e+01   1.466383e+01   8.576836e+05   8.255674e+04   1.134088e+05   0.000000e+00   0.000000e+00   0.000000e+00   8.690790e+05   0.000000e+00   0.000000e+00   0.000000e+00
     2088000   2.087999e-05   1.800843e+01   1.367372e+01   1.467290e+01   8.576836e+05   8.255674e+04   1.134088e+05   0.000000e+00   0.000000e+00   0.000000e+00   8.690790e+05   0.000000e+00   0.000000e+00   0.000000e+00
     2096000   2.095999e-05   1.807705e+01   1.368032e+01   1.468198e+01   8.576836e+05   8.255674e+04   1.134088e+05   0.000000e+00   0.000000e+00   0.000000e+00   8.690790e+05   0.000000e+00   0.000000e+00   0.000000e+00
     2104000   2.103999e-05   1.814566e+01   1.368693e+01   1.469105e+01   8.576836e+05   8.255674e+04   1.134088e+05   0.000000e+00   0.000000e+00   0.000000e+00   8.690790e+05   0.000000e+00   0.000000e+00   0.000000e+00
     2112000   2.111999e-05   1.821428e+01   1.369353e+01   1.470012e+01   8.576836e+05   8.255674e+04   1.134088e+05   0.000000e+00   0.000000e+00   0.000000e+00   8.690790e+05   0.000000e+00   0.000000e+00   0.000000e+00
     2120000   2.119999e-05   1.828289e+01   1.370014e+01   1.470920e+01   8.576836e+05   8.255674e+04   1.134088e+05   0.000000e+00   0.000000e+00   0.000000e+00   8.690790e+05   0.000000e+00   0.000000e+00   0.000000e+00
     2128000   2.127999e-05   1.835151e+01   1.370674e+01   1.471827e+01   8.576836e+05   8.255674e+04   1.134088e+05   0.000000e+00   0.000000e+00   0.000000e+00   8.690790e+05   0.000000e+00   0.000000e+00   0.000000e+00
     2136000   2.135999e-05   1.842012e+01   1.371335e+01   1.472734e+01   8.576836e+05   8.255674e+04   1.134088e+05   0.000000e+00   0.000000e+00   0.000000e+00   8.690790e+05   0.000000e+00   0.000000e+00   0.000000e+00
     2144000   2.143999e-05   1.848874e+01   1.371995e+01   1.473641e+01   8.576836e+05   8.255674e+04   1.134088e+05   0.000000e+00   0.000000e+00   0.000000e+00   8.690790e+05   0.000000e+00   0.000000e+00   0.000000e+00
     2152000   2.151999e-05   1.855735e+01   1.372655e+01   1.474549e+01   8.576836e+05   8.255674e+04   1.134088e+05   0.000000e+00   0.000000e+00   0.000000e+00   8.690790e+05   0.000000e+00   0.000000e+00   0.000000e+00
     2160000   2.159999e-05   1.862597e+01   1.373316e+01   1.475456e+01   8.576836e+05   8.255674e+04   1.134088e+05   0.000000e+00   0.000000e+00   0.000000e+00   8.690790e+05   0.000000e+00   0.000000e+00   0.000000e+00
     2168000   2.167999e-05   1.869458e+01   1.373976e+01   1.476363e+01   8.576836e+05   8.255674e+04   1.134088e+05   0.000000e+00   0.000000e+00   0.000000e+00   8.690790e+05   0.000000e+00   0.000000e+00   0.000000e+00
     2176000   2.175999e-05   1.876319e+01   1.374637e+01   1.477270e+01   8.576836e+05   8.255674e+04   1.134088e+05   0.000000e+00   0.000000e+00   0.000000e+00   8.690790e+05   0.000000e+00   0.000000e+00   0.000000e+00
     2184000   2.183999e-05   1.883181e+01   1.375297e+01   1.478178e+01   8.576836e+05   8.255674e+04   1.134088e+05   0.000000e+00   0.000000e+00   0.000000e+00   8.690790e+05   0.000000e+00   0.000000e+00   0.000000e+00
     2192000   2.191999e-05   1.890042e+01   1.375958e+01   1.479085e+01   8.576836e+05   8.255674e+04   1.134088e+05   0.000000e+00   0.000000e+00   0.000000e+00   8.690790e+05   0.000000e+00   0.000000e+00   0.000000e+00
     2200000   2.199999e-05   1.896904e+01   1.376618e+01   1.479992e+01   8.576836e+05   8.255674e+04   1.134088e+05   0.000000e+00   0.000000e+00   0.000000e+00   8.690790e+05   0.000000e+00   0.000000e+00   0.000000e+00
     2208000   2.207999e-05   1.903765e+01   1.377279e+01   1.480900e+01   8.576836e+05   8.255674e+04   1.134088e+05   0.000000e+00   0.000000e+00   0.000000e+00   8.690790e+05   0.000000e+00   0.000000e+00   0.000000e+00
     2216000   2.215999e-05   1.910627e+01   1.377939e+01   1.481807e+01   8.576836e+05   8.255674e+04   1.134088e+05   0.000000e+00   0.000000e+00   0.000000e+00   8.690790e+05   0.000000e+00   0.000000e+00   0.000000e+00
     2224000   2.223999e-05   1.917488e+01   1.378600e+01   1.482714e+01   8.576836e+05   8.255674e+04   1.134088e+05   0.000000e+00   0.000000e+00   0.000000e+00   8.690790e+05   0.000000e+00   0.000000e+00   0.000000e+00
     2232000   2.231999e-05   1.924350e+01   1.379260e+01   1.483621e+01   8.576836e+05   8.255674e+04   1.134088e+05   0.000000e+00   0.000000e+00   0.000000e+00   8.690790e+05   0.000000e+00   0.000000e+00   0.000000e+00
     2240000   2.239999e-05   1.931211e+01   1.379920e+01   1.484529e+01   8.576836e+05   8.255674e+04   1.134088e+05   0.000000e+00   0.000000e+00   0.000000e+00   8.690790e+05   0.000000e+00   0.000000e+00   0.000000e+00
     2248000   2.247999e-05   1.938073e+01   1.380581e+01   1.485436e+01   8.576836e+05   8.255674e+04   1.134088e+05   0.000000e+00   0.000000e+00   0.000000e+00   8.690790e+05   0.000000e+00   0.000000e+00   0.000000e+00
     2256000   2.255999e-05   1.944934e+01   1.381241e+01   1.486343e+01   8.576836e+05   8.255674e+04   1.134088e+05   0.000000e+00   0.000000e+00   0.000000e+00   8.690790e+05   0.000000e+00   0.000000e+00   0.000000e+00
     2264000   2.263999e-05   1.951796e+01   1.381902e+01   1.487250e+01   8.576836e+05   8.255674e+04   1.134088e+05   0.000000e+00   0.000000e+00   0.000000e+00   8.690790e+05   0.000000e+00   0.000000e+00   0.000000e+00
     2272000   2.271999e-05   1.958657e+01   1.382562e+01   1.488158e+01   8.576836e+05   8.255674e+04   1.134088e+05   0.000000e+00   0.000000e+00   0.000000e+00   8.690790e+05   0.000000e+00   0.000000e+00   0.000000e+00
     2280000   2.279999e-05   1.965519e+01   1.383223e+01   1.489065e+01   8.576836e+05   8.255674e+04   1.134088e+05   0.000000e+00   0.000000e+00   0.000000e+00   8.690790e+05   0.000000e+00   0.000000e+00   0.000000e+00
     2288000   2.287999e-05   1.972380e+01   1.383883e+01   1.489972e+01   8.576836e+05   8.255674e+04   1.134088e+05   0.000000e+00   0.000000e+00   0.000000e+00   8.690790e+05   0.000000e+00   0.000000e+00   0.000000e+00
     2296000   2.295999e-05   1.979241e+01   1.384544e+01   1.490880e+01   8.576836e+05   8.255674e+04   1.134088e+05   0.000000e+00   0.000000e+00   0.000000e+00   8.690790e+05   0.000000e+00   0.000000e+00   0.000000e+00
     2304000   2.303999e-05   1.986103e+01   1.385204e+01   1.491787e+01   8.576836e+05   8.255674e+04   1.134088e+05   0.000000e+00   0.000000e+00   0.000000e+00   8.690790e+05   0.000000e+00   0.000000e+00   0.000000e+00
     2312000   2.311999e-05   1.992964e+01   1.385865e+01   1.492694e+01   8.576836e+05   8.255674e+04   1.134088e+05   0.000000e+00   0.000000e+00   0.000000e+00   8.690790e+05   0.000000e+00   0.000000e+00   0.000000e+00
     2320000   2.319999e-05   1.999826e+01   1.386525e+01   1.493601e+01   8.576836e+05   8.255674e+04   1.134088e+05   0.000000e+00   0.000000e+00   0.000000e+00   8.690790e+05   0.000000e+00   0.000000e+00   0.000000e+00
     2328000   2.327999e-05   2.006687e+01   1.387185e+01   1.494509e+01   8.576836e+05   8.255674e+04   1.134088e+05   0.000000e+00   0.000000e+00   0.000000e+00   8.690790e+05   0.000000e+00   0.000000e+00   0.000000e+00
     2336000   2.335999e-05   2.013549e+01   1.387846e+01   1.495416e+01   8.576836e+05   8.255674e+04   1.134088e+05   0.000000e+00   0.000000e+00   0.000000e+00   8.690790e+05   0.000000e+00   0.000000e+00   0.000000e+00
     2344000   2.343999e-05   2.020410e+01   1.388506e+01   1.496323e+01   8.576836e+05   8.255674e+04   1.134088e+05   0.000000e+00   0.000000e+00   0.000000e+00   8.690790e+05   0.000000e+00   0.000000e+00   0.000000e+00
     2352000   2.351999e-05   2.027272e+01   1.389167e+01   1.497230e+01   8.576836e+05   8.255674e+04   1.134088e+05   0.000000e+00   0.000000e+00   0.000000e+00   8.690790e+05   0.000000e+00   0.000000e+00   0.000000e+00
     2360000   2.359999e-05   2.034133e+01   1.389827e+01   1.498138e+01   8.576836e+05   8.255674e+04   1.134088e+05   0.000000e+00   0.000000e+00   0.000000e+00   8.690790e+05   0.000000e+00   0.000000e+00   0.000000e+00
     2368000   2.367999e-05   2.040995e+01   1.390488e+01   1.499045e+01   8.576836e+05   8.255674e+04   1.134088e+05   0.000000e+00   0.000000e+00   0.000000e+00   8.690790e+05   0.000000e+00   0.000000e+00   0.000000e+00
     2376000   2.375999e-05   2.047856e+01   1.391148e+01   1.499952e+01   8.576836e+05   8.255674e+04   1.134088e+05   0.000000e+00   0.000000e+00   0.000000e+00   8.690790e+05   0.000000e+00   0.000000e+00   0.000000e+00
     2384000   2.383999e-05   2.054718e+01   1.391809e+01   1.500859e+01   8.576836e+05   8.255674e+04   1.134088e+05   0.000000e+00   0.000000e+00   0.000000e+00   8.690790e+05   0.000000e+00   0.000000e+00   0.000000e+00
     2392000   2.391999e-05   2.061579e+01   1.392469e+01   1.501767e+01   8.576836e+05   8.255674e+04   1.134088e+05   0.000000e+00   0.000000e+00   0.000000e+00   8.690790e+05   0.000000e+00   0.000000e+00   0.000000e+00
     2400000   2.399999e-05   2.068441e+01   1.393130e+01   1.502674e+01   8.576836e+05   8.255674e+04   1.134088e+05   0.000000e+00   0.000000e+00   0.000000e+00   8.690790e+05   0.000000e+00   0.000000e+00   0.000000e+00
     2408000   2.407999e-05   2.075302e+01   1.393790e+01   1.503581e+01   8.576836e+05   8.255674e+04   1.134088e+05   0.000000e+00   0.000000e+00   0.000000e+00   8.690790e+05   0.000000e+00   0.000000e+00   0.000000e+00
     2416000   2.415999e-05   2.082164e+01   1.394450e+01   1.504489e+01   8.576836e+05   8.255674e+04   1.134088e+05   0.000000e+00   0.000000e+00   0.000000e+00   8.690790e+05   0.000000e+00   0.000000e+00   0.000000e+00
     2424000   2.423999e-05   2.089025e+01   1.395111e+01   1.505396e+01   8.576836e+05   8.255674e+04   1.134088e+05   0.000000e+00   0.000000e+00   0.000000e+00   8.690790e+05   0.000000e+00   0.000000e+00   0.000000e+00
     2432000   2.431999e-05   2.095886e+01   1.395771e+01   1.506303e+01   8.576836e+05   8.255674e+04   1.134088e+05   0.000000e+00   0.000000e+00   0.000000e+00   8.690790e+05   0.000000e+00   0.000000e+00   0.000000e+00
     2440000   2.439999e-05   2.102748e+01   1.396432e+01   1.507210e+01   8.576836e+05   8.255674e+04   1.134088e+05   0.000000e+00   0.000000e+00   0.000000e+00   8.690790e+05   0.000000e+00   0.000000e+00   0.000000e+00
     2448000   2.447999e-05   2.109609e+01   1.397092e+01   1.508118e+01   8.576836e+05   8.255674e+04   1.134088e+05   0.000000e+00   0.000000e+00   0.000000e+00   8.690790e+05   0.000000e+00   0.000000e+00   0.000000e+00
     2456000   2.455999e-05   2.116471e+01   1.397753e+01   1.509025e+01   8.576836e+05   8.255674e+04   1.134088e+05   0.000000e+00   0.000000e+00   0.000000e+00   8.690790e+05   0.000000e+00   0.000000e+00   0.000000e+00
     2464000   2.463999e-05   2.123332e+01   1.398413e+01   1.509932e+01   8.576836e+05   8.255674e+04   1.134088e+05   0.000000e+00   0.000000e+00   0.000000e+00   8.690790e+05   0.000000e+00   0.000000e+00   0.000000e+00
     2472000   2.471999e-05   2.130194e+01   1.399074e+01   1.510839e+01   8.576836e+05   8.255674e+04   1.134088e+05   0.000000e+00   0.000000e+00   0.000000e+00   8.690790e+05   0.000000e+00   0.000000e+00   0.000000e+00
     2480000   2.479999e-05   2.137055e+01   1.399734e+01   1.511747e+01   8.576836e+05   8.255674e+04   1.134088e+05   0.000000e+00   0.000000e+00   0.000000e+00   8.690790e+05   0.000000e+00   0.000000e+00   0.000000e+00
     2488000   2.487999e-05   2.143917e+01   1.400395e+01   1.512654e+01   8.576836e+05   8.255674e+04   1.134088e+05   0.000000e+00   0.000000e+00   0.000000e+00   8.690790e+05   0.000000e+00   0.000000e+00   0.000000e+00
     2496000   2.495999e-05   2.150778e+01   1.401055e+01   1.513561e+01   8.576836e+05   8.255674e+04   1.134088e+05   0.000000e+00   0.000000e+00   0.000000e+00   8.690790e+05   0.000000e+00   0.000000e+00   0.000000e+00
     2504000   2.503999e-05   2.157640e+01   1.401715e+01   1.514469e+01   8.576836e+05   8.255674e+04   1.134088e+05   0.000000e+00   0.000000e+00   0.000000e+00   8.690790e+05   0.000000e+00   0.000000e+00   0.000000e+00
     2512000   2.511999e-05   2.164501e+01   1.402376e+01   1.515376e+01   8.576836e+05   8.255674e+04   1.134088e+05   0.000000e+00   0.000000e+00   0.000000e+00   8.690790e+05   0.000000e+00   0.000000e+00   0.000000e+00
     2520000   2.519999e-05   2.171363e+01   1.403036e+01   1.516283e+01   8.576836e+05   8.255674e+04   1.134088e+05   0.000000e+00   0.000000e+00   0.000000e+00   8.690790e+05   0.000000e+00   0.000000e+00   0.000000e+00
     2528000   2.527999e-05   2.178224e+01   1.403697e+01   1.517190e+01   8.576836e+05   8.255674e+04   1.134088e+05   0.000000e+00   0.000000e+00   0.000000e+00   8.690790e+05   0.000000e+00   0.000000e+00   0.000000e+00
     2536000   2.535999e-05   2.185086e+01   1.404357e+01   1.518098e+01   8.576836e+05   8.255674e+04   1.134088e+05   0.000000e+00   0.000000e+00   0.000000e+00   8.690790e+05   0.000000e+00   0.000000e+00   0.000000e+00
     2544000   2.543999e-05   2.191947e+01   1.405018e+01   1.519005e+01   8.576836e+05   8.255674e+04   1.134088e+05   0.000000e+00   0.000000e+00   0.000000e+00   8.690790e+05   0.000000e+00   0.000000e+00   0.000000e+00
     2552000   2.551999e-05   2.198808e+01   1.405678e+01   1.519912e+01   8.576836e+05   8.255674e+04   1.134088e+05   0.000000e+00   0.000000e+00   0.000000e+00   8.690790e+05   0.000000e+00   0.000000e+00   0.000000e+00
     2560000   2.559999e-05   2.205670e+01   1.406339e+01   1.520819e+01   8.576836e+05   8.255674e+04   1.134088e+05   0.000000e+00   0.000000e+00   0.000000e+00   8.690790e+05   0.000000e+00   0.000000e+00   0.000000e+00
     2568000   2.567999e-05   2.212531e+01   1.406999e+01   1.521727e+01   8.576836e+05   8.255674e+04   1.134088e+05   0.000000e+00   0.000000e+00   0.000000e+00   8.690790e+05   0.000000e+00   0.000000e+00   0.000000e+00
     2576000   2.575999e-05   2.219393e+01   1.407660e+01   1.522634e+01   8.576836e+05   8.255674e+04   1.134088e+05   0.000000e+00   0.000000e+00   0.000000e+00   8.690790e+05   0.000000e+00   0.000000e+00   0.000000e+00
     2584000   2.583999e-05   2.226254e+01   1.408320e+01   1.523541e+01   8.576836e+05   8.255674e+04   1.134088e+05   0.000000e+00   0.000000e+00   0.000000e+00   8.690790e+05   0.000000e+00   0.000000e+00   0.000000e+00
     2592000   2.591999e-05   2.233116e+01   1.408980e+01   1.524449e+01   8.576836e+05   8.255674e+04   1.134088e+05   0.000000e+00   0.000000e+00   0.000000e+00   8.690790e+05   0.000000e+00   0.000000e+00   0.000000e+00
     2600000   2.599999e-05   2.239977e+01   1.409641e+01   1.525356e+01   8.576836e+05   8.255674e+04   1.134088e+05   0.000000e+00   0.000000e+00   0.000000e+00   8.690790e+05   0.000000e+00   0.000000e+00   0.000000e+00
     2608000   2.607999e-05   2.246839e+01   1.410301e+01   1.526263e+01   8.576836e+05   8.255674e+04   1.134088e+05   0.000000e+00   0.000000e+00   0.000000e+00   8.690790e+05   0.000000e+00   0.000000e+00   0.000000e+00
     2616000   2.615999e-05   2.253700e+01   1.410962e+01   1.527170e+01   8.576836e+05   8.255674e+04   1.134088e+05   0.000000e+00   0.000000e+00   0.000000e+00   8.690790e+05   0.000000e+00   0.000000e+00   0.000000e+00
     2624000   2.623999e-05   2.260562e+01   1.411622e+01   1.528078e+01   8.576836e+05   8.255674e+04   1.134088e+05   0.000000e+00   0.000000e+00   0.000000e+00   8.690790e+05   0.000000e+00   0.000000e+00   0.000000e+00
     2632000   2.631999e-05   2.267423e+01   1.412283e+01   1.528985e+01   8.576836e+05   8.255674e+04   1.134088e+05   0.000000e+00   0.000000e+00   0.000000e+00   8.690790e+05   0.000000e+00   0.000000e+00   0.000000e+00
     2640000   2.639999e-05   2.274285e+01   1.412943e+01   1.529892e+01   8.576836e+05   8.255674e+04   1.134088e+05   0.000000e+00   0.000000e+00   0.000000e+00   8.690790e+05   0.000000e+00   0.000000e+00   0.000000e+00
     2648000   2.647999e-05   2.281146e+01   1.413604e+01   1.530799e+01   8.576836e+05   8.255674e+04   1.134088e+05   0.000000e+00   0.000000e+00   0.000000e+00   8.690790e+05   0.000000e+00   0.000000e+00   0.000000e+00
     2656000   2.655999e-05   2.288008e+01   1.414264e+01   1.531707e+01   8.576836e+05   8.255674e+04   1.134088e+05   0.000000e+00   0.000000e+00   0.000000e+00   8.690790e+05   0.000000e+00   0.000000e+00   0.000000e+00
     2664000   2.663999e-05   2.294869e+01   1.414925e+01   1.532614e+01   8.576836e+05   8.255674e+04   1.134088e+05   0.000000e+00   0.000000e+00   0.000000e+00   8.690790e+05   0.000000e+00   0.000000e+00   0.000000e+00
     2672000   2.671999e-05   2.301731e+01   1.415585e+01   1.533521e+01   8.576836e+05   8.255674e+04   1.134088e+05   0.000000e+00   0.000000e+00   0.000000e+00   8.690790e+05   0.000000e+00   0.000000e+00   0.000000e+00
     2680000   2.679999e-05   2.308592e+01   1.416245e+01   1.534428e+01   8.576836e+05   8.255674e+04   1.134088e+05   0.000000e+00   0.000000e+00   0.000000e+00   8.690790e+05   0.000000e+00   0.000000e+00   0.000000e+00
     2688000   2.687999e-05   2.315453e+01   1.416906e+01   1.535336e+01   8.576836e+05   8.255674e+04   1.134088e+05   0.000000e+00   0.000000e+00   0.000000e+00   8.690790e+05   0.000000e+00   0.000000e+00   0.000000e+00
     2696000   2.695999e-05   2.322315e+01   1.417566e+01   1.536243e+01   8.576836e+05   8.255674e+04   1.134088e+05   0.000000e+00   0.000000e+00   0.000000e+00   8.690790e+05   0.000000e+00   0.000000e+00   0.000000e+00
     2704000   2.703999e-05   2.329176e+01   1.418227e+01   1.537150e+01   8.576836e+05   8.255674e+04   1.134088e+05   0.000000e+00   0.000000e+00   0.000000e+00   8.690790e+05   0.000000e+00   0.000000e+00   0.000000e+00
     2712000   2.711999e-05   2.336038e+01   1.418887e+01   1.538058e+01   8.576836e+05   8.255674e+04   1.134088e+05   0.000000e+00   0.000000e+00   0.000000e+00   8.690790e+05   0.000000e+00   0.000000e+00   0.000000e+00
     2720000   2.719999e-05   2.342899e+01   1.419548e+01   1.538965e+01   8.576836e+05   8.255674e+04   1.134088e+05   0.000000e+00   0.000000e+00   0.000000e+00   8.690790e+05   0.000000e+00   0.000000e+00   0.000000e+00
     2728000   2.727999e-05   2.349761e+01   1.420208e+01   1.539872e+01   8.576836e+05   8.255674e+04   1.134088e+05   0.000000e+00   0.000000e+00   0.000000e+00   8.690790e+05   0.000000e+00   0.000000e+00   0.000000e+00
     2736000   2.735999e-05   2.356622e+01   1.420869e+01   1.540779e+01   8.576836e+05   8.255674e+04   1.134088e+05   0.000000e+00   0.000000e+00   0.000000e+00   8.690790e+05   0.000000e+00   0.000000e+00   0.000000e+00
     2744000   2.743999e-05   2.363484e+01   1.421529e+01   1.541687e+01   8.576836e+05   8.255674e+04   1.134088e+05   0.000000e+00   0.000000e+00   0.000000e+00   8.690790e+05   0.000000e+00   0.000000e+00   0.000000e+00
     2752000   2.751999e-05   2.370345e+01   1.422190e+01   1.542594e+01   8.576836e+05   8.255674e+04   1.134088e+05   0.000000e+00   0.000000e+00   0.000000e+00   8.690790e+05   0.000000e+00   0.000000e+00   0.000000e+00
     2760000   2.759999e-05   2.377207e+01   1.422850e+01   1.543501e+01   8.576836e+05   8.255674e+04   1.134088e+05   0.000000e+00   0.000000e+00   0.000000e+00   8.690790e+05   0.000000e+00   0.000000e+00   0.000000e+00
     2768000   2.767999e-05   2.384068e+01   1.423510e+01   1.544408e+01   8.576836e+05   8.255674e+04   1.134088e+05   0.000000e+00   0.000000e+00   0.000000e+00   8.690790e+05   0.000000e+00   0.000000e+00   0.000000e+00
     2776000   2.775999e-05   2.390930e+01   1.424171e+01   1.545316e+01   8.576836e+05   8.255674e+04   1.134088e+05   0.000000e+00   0.000000e+00   0.000000e+00   8.690790e+05   0.000000e+00   0.000000e+00   0.000000e+00
     2784000   2.783999e-05   2.397791e+01   1.424831e+01   1.546223e+01   8.576836e+05   8.255674e+04   1.134088e+05   0.000000e+00   0.000000e+00   0.000000e+00   8.690790e+05   0.000000e+00   0.000000e+00   0.000000e+00
     2792000   2.791999e-05   2.404653e+01   1.425492e+01   1.547130e+01   8.576836e+05   8.255674e+04   1.134088e+05   0.000000e+00   0.000000e+00   0.000000e+00   8.690790e+05   0.000000e+00   0.000000e+00   0.000000e+00
     2800000   2.799999e-05   2.411514e+01   1.426152e+01   1.548038e+01   8.576836e+05   8.255674e+04   1.134088e+05   0.000000e+00   0.000000e+00   0.000000e+00   8.690790e+05   0.000000e+00   0.000000e+00   0.000000e+00
     2808000   2.807999e-05   2.418375e+01   1.426813e+01   1.548945e+01   8.576836e+05   8.255674e+04   1.134088e+05   0.000000e+00   0.000000e+00   0.000000e+00   8.690790e+05   0.000000e+00   0.000000e+00   0.000000e+00
     2816000   2.815999e-05   2.425237e+01   1.427473e+01   1.549852e+01   8.576836e+05   8.255674e+04   1.134088e+05   0.000000e+00   0.000000e+00   0.000000e+00   8.690790e+05   0.000000e+00   0.000000e+00   0.000000e+00
     2824000   2.823999e-05   2.432098e+01   1.428134e+01   1.550759e+01   8.576836e+05   8.255674e+04   1.134088e+05   0.000000e+00   0.000000e+00   0.000000e+00   8.690790e+05   0.000000e+00   0.000000e+00   0.000000e+00
     2832000   2.831999e-05   2.438960e+01   1.428794e+01   1.551667e+01   8.576836e+05   8.255674e+04   1.134088e+05   0.000000e+00   0.000000e+00   0.000000e+00   8.690790e+05   0.000000e+00   0.000000e+00   0.000000e+00
     2840000   2.839999e-05   2.445821e+01   1.429455e+01   1.552574e+01   8.576836e+05   8.255674e+04   1.134088e+05   0.000000e+00   0.000000e+00   0.000000e+00   8.690790e+05   0.000000e+00   0.000000e+00   0.000000e+00
     2848000   2.847999e-05   2.452683e+01   1.430115e+01   1.553481e+01   8.576836e+05   8.255674e+04   1.134088e+05   0.000000e+00   0.000000e+00   0.000000e+00   8.690790e+05   0.000000e+00   0.000000e+00   0.000000e+00
     2856000   2.855999e-05   2.459544e+01   1.430775e+01   1.554388e+01   8.576836e+05   8.255674e+04   1.134088e+05   0.000000e+00   0.000000e+00   0.000000e+00   8.690790e+05   0.000000e+00   0.000000e+00   0.000000e+00
     2864000   2.863999e-05   2.466406e+01   1.431436e+01   1.555296e+01   8.576836e+05   8.255674e+04   1.134088e+05   0.000000e+00   0.000000e+00   0.000000e+00   8.690790e+05   0.000000e+00   0.000000e+00   0.000000e+00
     2872000   2.871999e-05   2.473267e+01   1.432096e+01   1.556203e+01   8.576836e+05   8.255674e+04   1.134088e+05   0.000000e+00   0.000000e+00   0.000000e+00   8.690790e+05   0.000000e+00   0.000000e+00   0.000000e+00
     2880000   2.879999e-05   2.480129e+01   1.432757e+01   1.557110e+01   8.576836e+05   8.255674e+04   1.134088e+05   0.000000e+00   0.000000e+00   0.000000e+00   8.690790e+05   0.000000e+00   0.000000e+00   0.000000e+00
     2888000   2.887999e-05   2.486990e+01   1.433417e+01   1.558017e+01   8.576836e+05   8.255674e+04   1.134088e+05   0.000000e+00   0.000000e+00   0.000000e+00   8.690790e+05   0.000000e+00   0.000000e+00   0.000000e+00
     2896000   2.895999e-05   2.493852e+01   1.434078e+01   1.558925e+01   8.576836e+05   8.255674e+04   1.134088e+05   0.000000e+00   0.000000e+00   0.000000e+00   8.690790e+05   0.000000e+00   0.000000e+00   0.000000e+00
     2904000   2.903999e-05   2.500713e+01   1.434738e+01   1.559832e+01   8.576836e+05   8.255674e+04   1.134088e+05   0.000000e+00   0.000000e+00   0.000000e+00   8.690790e+05   0.000000e+00   0.000000e+00   0.000000e+00
     2912000   2.911999e-05   2.507575e+01   1.435399e+01   1.560739e+01   8.576836e+05   8.255674e+04   1.134088e+05   0.000000e+00   0.000000e+00   0.000000e+00   8.690790e+05   0.000000e+00   0.000000e+00   0.000000e+00
     2920000   2.919999e-05   2.514436e+01   1.436059e+01   1.561647e+01   8.576836e+05   8.255674e+04   1.134088e+05   0.000000e+00   0.000000e+00   0.000000e+00   8.690790e+05   0.000000e+00   0.000000e+00   0.000000e+00
     2928000   2.927999e-05   2.521298e+01   1.436720e+01   1.562554e+01   8.576836e+05   8.255674e+04   1.134088e+05   0.000000e+00   0.000000e+00   0.000000e+00   8.690790e+05   0.000000e+00   0.000000e+00   0.000000e+00
     2936000   2.935999e-05   2.528159e+01   1.437380e+01   1.563461e+01   8.576836e+05   8.255674e+04   1.134088e+05   0.000000e+00   0.000000e+00   0.000000e+00   8.690790e+05   0.000000e+00   0.000000e+00   0.000000e+00
     2944000   2.943999e-05   2.535020e+01   1.438040e+01   1.564368e+01   8.576836e+05   8.255674e+04   1.134088e+05   0.000000e+00   0.000000e+00   0.000000e+00   8.690790e+05   0.000000e+00   0.000000e+00   0.000000e+00
     2952000   2.951999e-05   2.541882e+01   1.438701e+01   1.565276e+01   8.576836e+05   8.255674e+04   1.134088e+05   0.000000e+00   0.000000e+00   0.000000e+00   8.690790e+05   0.000000e+00   0.000000e+00   0.000000e+00
     2960000   2.959999e-05   2.548743e+01   1.439361e+01   1.566183e+01   8.576836e+05   8.255674e+04   1.134088e+05   0.000000e+00   0.000000e+00   0.000000e+00   8.690790e+05   0.000000e+00   0.000000e+00   0.000000e+00
     2968000   2.967999e-05   2.555605e+01   1.440022e+01   1.567090e+01   8.576836e+05   8.255674e+04   1.134088e+05   0.000000e+00   0.000000e+00   0.000000e+00   8.690790e+05   0.000000e+00   0.000000e+00   0.000000e+00
     2976000   2.975999e-05   2.562466e+01   1.440682e+01   1.567997e+01   8.576836e+05   8.255674e+04   1.134088e+05   0.000000e+00   0.000000e+00   0.000000e+00   8.690790e+05   0.000000e+00   0.000000e+00   0.000000e+00
     2984000   2.983999e-05   2.569328e+01   1.441343e+01   1.568905e+01   8.576836e+05   8.255674e+04   1.134088e+05   0.000000e+00   0.000000e+00   0.000000e+00   8.690790e+05   0.000000e+00   0.000000e+00   0.000000e+00
     2992000   2.991999e-05   2.576189e+01   1.442003e+01   1.569812e+01   8.576836e+05   8.255674e+04   1.134088e+05   0.000000e+00   0.000000e+00   0.000000e+00   8.690790e+05   0.000000e+00   0.000000e+00   0.000000e+00
     3000000   2.999999e-05   2.583051e+01   1.442664e+01   1.570719e+01   8.576836e+05   8.255674e+04   1.134088e+05   0.000000e+00   0.000000e+00   0.000000e+00   8.690790e+05   0.000000e+00   0.000000e+00   0.000000e+00
     3008000   3.007999e-05   2.589912e+01   1.443324e+01   1.571627e+01   8.576836e+05   8.255674e+04   1.134088e+05   0.000000e+00   0.000000e+00   0.000000e+00   8.690790e+05   0.000000e+00   0.000000e+00   0.000000e+00
     3016000   3.015999e-05   2.596774e+01   1.443985e+01   1.572534e+01   8.576836e+05   8.255674e+04   1.134088e+05   0.000000e+00   0.000000e+00   0.000000e+00   8.690790e+05   0.000000e+00   0.000000e+00   0.000000e+00
     3024000   3.023999e-05   2.603635e+01   1.444645e+01   1.573441e+01   8.576836e+05   8.255674e+04   1.134088e+05   0.000000e+00   0.000000e+00   0.000000e+00   8.690790e+05   0.000000e+00   0.000000e+00   0.000000e+00
     3032000   3.031999e-05   2.610497e+01   1.445305e+01   1.574348e+01   8.576836e+05   8.255674e+04   1.134088e+05   0.000000e+00   0.000000e+00   0.000000e+00   8.690790e+05   0.000000e+00   0.000000e+00   0.000000e+00
     3040000   3.039999e-05   2.617358e+01   1.445966e+01   1.575256e+01   8.576836e+05   8.255674e+04   1.134088e+05   0.000000e+00   0.000000e+00   0.000000e+00   8.690790e+05   0.000000e+00   0.000000e+00   0.000000e+00
     3048000   3.047999e-05   2.624220e+01   1.446626e+01   1.576163e+01   8.576836e+05   8.255674e+04   1.134088e+05   0.000000e+00   0.000000e+00   0.000000e+00   8.690790e+05   0.000000e+00   0.000000e+00   0.000000e+00
     3056000   3.055999e-05   2.631081e+01   1.447287e+01   1.577070e+01   8.576836e+05   8.255674e+04   1.134088e+05   0.000000e+00   0.000000e+00   0.000000e+00   8.690790e+05   0.000000e+00   0.000000e+00   0.000000e+00
     3064000   3.063999e-05   2.637942e+01   1.447947e+01   1.577977e+01   8.576836e+05   8.255674e+04   1.134088e+05   0.000000e+00   0.000000e+00   0.000000e+00   8.690790e+05   0.000000e+00   0.000000e+00   0.000000e+00
     3072000   3.071999e-05   2.644804e+01   1.448608e+01   1.578885e+01   8.576836e+05   8.255674e+04   1.134088e+05   0.000000e+00   0.000000e+00   0.000000e+00   8.690790e+05   0.000000e+00   0.000000e+00   0.000000e+00
     3080000   3.079999e-05   2.651665e+01   1.449268e+01   1.579792e+01   8.576836e+05   8.255674e+04   1.134088e+05   0.000000e+00   0.000000e+00   0.000000e+00   8.690790e+05   0.000000e+00   0.000000e+00   0.000000e+00
     3088000   3.087999e-05   2.658527e+01   1.449929e+01   1.580699e+01   8.576836e+05   8.255674e+04   1.134088e+05   0.000000e+00   0.000000e+00   0.000000e+00   8.690790e+05   0.000000e+00   0.000000e+00   0.000000e+00
     3096000   3.095999e-05   2.665388e+01   1.450589e+01   1.581607e+01   8.576836e+05   8.255674e+04   1.134088e+05   0.000000e+00   0.000000e+00   0.000000e+00   8.690790e+05   0.000000e+00   0.000000e+00   0.000000e+00
     3104000   3.103999e-05   2.672250e+01   1.451250e+01   1.582514e+01   8.576836e+05   8.255674e+04   1.134088e+05   0.000000e+00   0.000000e+00   0.000000e+00   8.690790e+05   0.000000e+00   0.000000e+00   0.000000e+00
     3112000   3.111999e-05   2.679111e+01   1.451910e+01   1.583421e+01   8.576836e+05   8.255674e+04   1.134088e+05   0.000000e+00   0.000000e+00   0.000000e+00   8.690790e+05   0.000000e+00   0.000000e+00   0.000000e+00
     3120000   3.119999e-05   2.685973e+01   1.452570e+01   1.584328e+01   8.576836e+05   8.255674e+04   1.134088e+05   0.000000e+00   0.000000e+00   0.000000e+00   8.690790e+05   0.000000e+00   0.000000e+00   0.000000e+00
     3128000   3.127999e-05   2.692834e+01   1.453231e+01   1.585236e+01   8.576836e+05   8.255674e+04   1.134088e+05   0.000000e+00   0.000000e+00   0.000000e+00   8.690790e+05   0.000000e+00   0.000000e+00   0.000000e+00
     3136000   3.135999e-05   2.699696e+01   1.453891e+01   1.586143e+01   8.576836e+05   8.255674e+04   1.134088e+05   0.000000e+00   0.000000e+00   0.000000e+00   8.690790e+05   0.000000e+00   0.000000e+00   0.000000e+00
     3144000   3.143999e-05   2.706557e+01   1.454552e+01   1.587050e+01   8.576836e+05   8.255674e+04   1.134088e+05   0.000000e+00   0.000000e+00   0.000000e+00   8.690790e+05   0.000000e+00   0.000000e+00   0.000000e+00
     3152000   3.151999e-05   2.713419e+01   1.455212e+01   1.587957e+01   8.576836e+05   8.255674e+04   1.134088e+05   0.000000e+00   0.000000e+00   0.000000e+00   8.690790e+05   0.000000e+00   0.000000e+00   0.000000e+00
     3160000   3.159999e-05   2.720280e+01   1.455873e+01   1.588865e+01   8.576836e+05   8.255674e+04   1.134088e+05   0.000000e+00   0.000000e+00   0.000000e+00   8.690790e+05   0.000000e+00   0.000000e+00   0.000000e+00
     3168000   3.167999e-05   2.727142e+01   1.456533e+01   1.589772e+01   8.576836e+05   8.255674e+04   1.134088e+05   0.000000e+00   0.000000e+00   0.000000e+00   8.690790e+05   0.000000e+00   0.000000e+00   0.000000e+00
     3176000   3.175999e-05   2.734003e+01   1.457194e+01   1.590679e+01   8.576836e+05   8.255674e+04   1.134088e+05   0.000000e+00   0.000000e+00   0.000000e+00   8.690790e+05   0.000000e+00   0.000000e+00   0.000000e+00
     3184000   3.183999e-05   2.740865e+01   1.457854e+01   1.591586e+01   8.576836e+05   8.255674e+04   1.134088e+05   0.000000e+00   0.000000e+00   0.000000e+00   8.690790e+05   0.000000e+00   0.000000e+00   0.000000e+00
     3192000   3.191999e-05   2.747726e+01   1.458515e+01   1.592494e+01   8.576836e+05   8.255674e+04   1.134088e+05   0.000000e+00   0.000000e+00   0.000000e+00   8.690790e+05   0.000000e+00   0.000000e+00   0.000000e+00
     3200000   3.199999e-05   2.754587e+01   1.459175e+01   1.593401e+01   8.576836e+05   8.255674e+04   1.134088e+05   0.000000e+00   0.000000e+00   0.000000e+00   8.690790e+05   0.000000e+00   0.000000e+00   0.000000e+00
     3208000   3.207999e-05   2.761449e+01   1.459835e+01   1.594308e+01   8.576836e+05   8.255674e+04   1.134088e+05   0.000000e+00   0.000000e+00   0.000000e+00   8.690790e+05   0.000000e+00   0.000000e+00   0.000000e+00
     3216000   3.215999e-05   2.768310e+01   1.460496e+01   1.595216e+01   8.576836e+05   8.255674e+04   1.134088e+05   0.000000e+00   0.000000e+00   0.000000e+00   8.690790e+05   0.000000e+00   0.000000e+00   0.000000e+00
     3224000   3.223999e-05   2.775172e+01   1.461156e+01   1.596123e+01   8.576836e+05   8.255674e+04   1.134088e+05   0.000000e+00   0.000000e+00   0.000000e+00   8.690790e+05   0.000000e+00   0.000000e+00   0.000000e+00
     3232000   3.231999e-05   2.782033e+01   1.461817e+01   1.597030e+01   8.576836e+05   8.255674e+04   1.134088e+05   0.000000e+00   0.000000e+00   0.000000e+00   8.690790e+05   0.000000e+00   0.000000e+00   0.000000e+00
     3240000   3.239999e-05   2.788895e+01   1.462477e+01   1.597937e+01   8.576836e+05   8.255674e+04   1.134088e+05   0.000000e+00   0.000000e+00   0.000000e+00   8.690790e+05   0.000000e+00   0.000000e+00   0.000000e+00
     3248000   3.247999e-05   2.795756e+01   1.463138e+01   1.598845e+01   8.576836e+05   8.255674e+04   1.134088e+05   0.000000e+00   0.000000e+00   0.000000e+00   8.690790e+05   0.000000e+00   0.000000e+00   0.000000e+00
     3256000   3.255999e-05   2.802618e+01   1.463798e+01   1.599752e+01   8.576836e+05   8.255674e+04   1.134088e+05   0.000000e+00   0.000000e+00   0.000000e+00   8.690790e+05   0.000000e+00   0.000000e+00   0.000000e+00
     3264000   3.263999e-05   2.809479e+01   1.464459e+01   1.600659e+01   8.576836e+05   8.255674e+04   1.134088e+05   0.000000e+00   0.000000e+00   0.000000e+00   8.690790e+05   0.000000e+00   0.000000e+00   0.000000e+00
     3272000   3.271999e-05   2.816341e+01   1.465119e+01   1.601566e+01   8.576836e+05   8.255674e+04   1.134088e+05   0.000000e+00   0.000000e+00   0.000000e+00   8.690790e+05   0.000000e+00   0.000000e+00   0.000000e+00
     3280000   3.279999e-05   2.823202e+01   1.465779e+01   1.602474e+01   8.576836e+05   8.255674e+04   1.134088e+05   0.000000e+00   0.000000e+00   0.000000e+00   8.690790e+05   0.000000e+00   0.000000e+00   0.000000e+00
     3288000   3.287999e-05   2.830064e+01   1.466440e+01   1.603381e+01   8.576836e+05   8.255674e+04   1.134088e+05   0.000000e+00   0.000000e+00   0.000000e+00   8.690790e+05   0.000000e+00   0.000000e+00   0.000000e+00
     3296000   3.295999e-05   2.836925e+01   1.467100e+01   1.604288e+01   8.576836e+05   8.255674e+04   1.134088e+05   0.000000e+00   0.000000e+00   0.000000e+00   8.690790e+05   0.000000e+00   0.000000e+00   0.000000e+00
     3304000   3.303999e-05   2.843787e+01   1.467761e+01   1.605196e+01   8.576836e+05   8.255674e+04   1.134088e+05   0.000000e+00   0.000000e+00   0.000000e+00   8.690790e+05   0.000000e+00   0.000000e+00   0.000000e+00
     3312000   3.311999e-05   2.850648e+01   1.468421e+01   1.606103e+01   8.576836e+05   8.255674e+04   1.134088e+05   0.000000e+00   0.000000e+00   0.000000e+00   8.690790e+05   0.000000e+00   0.000000e+00   0.000000e+00
     3320000   3.319999e-05   2.857509e+01   1.469082e+01   1.607010e+01   8.576836e+05   8.255674e+04   1.134088e+05   0.000000e+00   0.000000e+00   0.000000e+00   8.690790e+05   0.000000e+00   0.000000e+00   0.000000e+00
     3328000   3.327999e-05   2.864371e+01   1.469742e+01   1.607917e+01   8.576836e+05   8.255674e+04   1.134088e+05   0.000000e+00   0.000000e+00   0.000000e+00   8.690790e+05   0.000000e+00   0.000000e+00   0.000000e+00
     3336000   3.335999e-05   2.871232e+01   1.470403e+01   1.608825e+01   8.576836e+05   8.255674e+04   1.134088e+05   0.000000e+00   0.000000e+00   0.000000e+00   8.690790e+05   0.000000e+00   0.000000e+00   0.000000e+00
     3344000   3.343999e-05   2.878094e+01   1.471063e+01   1.609732e+01   8.576836e+05   8.255674e+04   1.134088e+05   0.000000e+00   0.000000e+00   0.000000e+00   8.690790e+05   0.000000e+00   0.000000e+00   0.000000e+00
     3352000   3.351999e-05   2.884955e+01   1.471724e+01   1.610639e+01   8.576836e+05   8.255674e+04   1.134088e+05   0.000000e+00   0.000000e+00   0.000000e+00   8.690790e+05   0.000000e+00   0.000000e+00   0.000000e+00
     3360000   3.359999e-05   2.891817e+01   1.472384e+01   1.611546e+01   8.576836e+05   8.255674e+04   1.134088e+05   0.000000e+00   0.000000e+00   0.000000e+00   8.690790e+05   0.000000e+00   0.000000e+00   0.000000e+00
     3368000   3.367999e-05   2.898678e+01   1.473044e+01   1.612454e+01   8.576836e+05   8.255674e+04   1.134088e+05   0.000000e+00   0.000000e+00   0.000000e+00   8.690790e+05   0.000000e+00   0.000000e+00   0.000000e+00
     3376000   3.375999e-05   2.905540e+01   1.473705e+01   1.613361e+01   8.576836e+05   8.255674e+04   1.134088e+05   0.000000e+00   0.000000e+00   0.000000e+00   8.690790e+05   0.000000e+00   0.000000e+00   0.000000e+00
     3384000   3.383999e-05   2.912401e+01   1.474365e+01   1.614268e+01   8.576836e+05   8.255674e+04   1.134088e+05   0.000000e+00   0.000000e+00   0.000000e+00   8.690790e+05   0.000000e+00   0.000000e+00   0.000000e+00
     3392000   3.391999e-05   2.919263e+01   1.475026e+01   1.615176e+01   8.576836e+05   8.255674e+04   1.134088e+05   0.000000e+00   0.000000e+00   0.000000e+00   8.690790e+05   0.000000e+00   0.000000e+00   0.000000e+00
     3400000   3.399999e-05   2.926124e+01   1.475686e+01   1.616083e+01   8.576836e+05   8.255674e+04   1.134088e+05   0.000000e+00   0.000000e+00   0.000000e+00   8.690790e+05   0.000000e+00   0.000000e+00   0.000000e+00
     3408000   3.407999e-05   2.932986e+01   1.476347e+01   1.616990e+01   8.576836e+05   8.255674e+04   1.134088e+05   0.000000e+00   0.000000e+00   0.000000e+00   8.690790e+05   0.000000e+00   0.000000e+00   0.000000e+00
     3416000   3.415999e-05   2.939847e+01   1.477007e+01   1.617897e+01   8.576836e+05   8.255674e+04   1.134088e+05   0.000000e+00   0.000000e+00   0.000000e+00   8.690790e+05   0.000000e+00   0.000000e+00   0.000000e+00
     3424000   3.423999e-05   2.946709e+01   1.477668e+01   1.618805e+01   8.576836e+05   8.255674e+04   1.134088e+05   0.000000e+00   0.000000e+00   0.000000e+00   8.690790e+05   0.000000e+00   0.000000e+00   0.000000e+00
     3432000   3.431999e-05   2.953570e+01   1.478328e+01   1.619712e+01   8.576836e+05   8.255674e+04   1.134088e+05   0.000000e+00   0.000000e+00   0.000000e+00   8.690790e+05   0.000000e+00   0.000000e+00   0.000000e+00
     3440000   3.439999e-05   2.960432e+01   1.478989e+01   1.620619e+01   8.576836e+05   8.255674e+04   1.134088e+05   0.000000e+00   0.000000e+00   0.000000e+00   8.690790e+05   0.000000e+00   0.000000e+00   0.000000e+00
     3448000   3.447999e-05   2.967293e+01   1.479649e+01   1.621526e+01   8.576836e+05   8.255674e+04   1.134088e+05   0.000000e+00   0.000000e+00   0.000000e+00   8.690790e+05   0.000000e+00   0.000000e+00   0.000000e+00
     3456000   3.455999e-05   2.974154e+01   1.480309e+01   1.622434e+01   8.576836e+05   8.255674e+04   1.134088e+05   0.000000e+00   0.000000e+00   0.000000e+00   8.690790e+05   0.000000e+00   0.000000e+00   0.000000e+00
     3464000   3.463999e-05   2.981016e+01   1.480970e+01   1.623341e+01   8.576836e+05   8.255674e+04   1.134088e+05   0.000000e+00   0.000000e+00   0.000000e+00   8.690790e+05   0.000000e+00   0.000000e+00   0.000000e+00
     3472000   3.471999e-05   2.987877e+01   1.481630e+01   1.624248e+01   8.576836e+05   8.255674e+04   1.134088e+05   0.000000e+00   0.000000e+00   0.000000e+00   8.690790e+05   0.000000e+00   0.000000e+00   0.000000e+00
     3480000   3.479999e-05   2.994739e+01   1.482291e+01   1.625155e+01   8.576836e+05   8.255674e+04   1.134088e+05   0.000000e+00   0.000000e+00   0.000000e+00   8.690790e+05   0.000000e+00   0.000000e+00   0.000000e+00
     3488000   3.487999e-05   3.001600e+01   1.482951e+01   1.626063e+01   8.576836e+05   8.255674e+04   1.134088e+05   0.000000e+00   0.000000e+00   0.000000e+00   8.690790e+05   0.000000e+00   0.000000e+00   0.000000e+00
     3496000   3.495999e-05   3.008462e+01   1.483612e+01   1.626970e+01   8.576836e+05   8.255674e+04   1.134088e+05   0.000000e+00   0.000000e+00   0.000000e+00   8.690790e+05   0.000000e+00   0.000000e+00   0.000000e+00
     3504000   3.503999e-05   3.015323e+01   1.484272e+01   1.627877e+01   8.576836e+05   8.255674e+04   1.134088e+05   0.000000e+00   0.000000e+00   0.000000e+00   8.690790e+05   0.000000e+00   0.000000e+00   0.000000e+00
     3512000   3.511999e-05   3.022185e+01   1.484933e+01   1.628785e+01   8.576836e+05   8.255674e+04   1.134088e+05   0.000000e+00   0.000000e+00   0.000000e+00   8.690790e+05   0.000000e+00   0.000000e+00   0.000000e+00
     3520000   3.519999e-05   3.029046e+01   1.485593e+01   1.629692e+01   8.576836e+05   8.255674e+04   1.134088e+05   0.000000e+00   0.000000e+00   0.000000e+00   8.690790e+05   0.000000e+00   0.000000e+00   0.000000e+00
     3528000   3.527999e-05   3.035908e+01   1.486254e+01   1.630599e+01   8.576836e+05   8.255674e+04   1.134088e+05   0.000000e+00   0.000000e+00   0.000000e+00   8.690790e+05   0.000000e+00   0.000000e+00   0.000000e+00
     3536000   3.535999e-05   3.042769e+01   1.486914e+01   1.631506e+01   8.576836e+05   8.255674e+04   1.134088e+05   0.000000e+00   0.000000e+00   0.000000e+00   8.690790e+05   0.000000e+00   0.000000e+00   0.000000e+00
     3544000   3.543999e-05   3.049631e+01   1.487574e+01   1.632414e+01   8.576836e+05   8.255674e+04   1.134088e+05   0.000000e+00   0.000000e+00   0.000000e+00   8.690790e+05   0.000000e+00   0.000000e+00   0.000000e+00
     3552000   3.551999e-05   3.056492e+01   1.488235e+01   1.633321e+01   8.576836e+05   8.255674e+04   1.134088e+05   0.000000e+00   0.000000e+00   0.000000e+00   8.690790e+05   0.000000e+00   0.000000e+00   0.000000e+00
     3560000   3.559999e-05   3.063354e+01   1.488895e+01   1.634228e+01   8.576836e+05   8.255674e+04   1.134088e+05   0.000000e+00   0.000000e+00   0.000000e+00   8.690790e+05   0.000000e+00   0.000000e+00   0.000000e+00
     3568000   3.567999e-05   3.070215e+01   1.489556e+01   1.635135e+01   8.576836e+05   8.255674e+04   1.134088e+05   0.000000e+00   0.000000e+00   0.000000e+00   8.690790e+05   0.000000e+00   0.000000e+00   0.000000e+00
     3576000   3.575999e-05   3.077076e+01   1.490216e+01   1.636043e+01   8.576836e+05   8.255674e+04   1.134088e+05   0.000000e+00   0.000000e+00   0.000000e+00   8.690790e+05   0.000000e+00   0.000000e+00   0.000000e+00
     3584000   3.583999e-05   3.083938e+01   1.490877e+01   1.636950e+01   8.576836e+05   8.255674e+04   1.134088e+05   0.000000e+00   0.000000e+00   0.000000e+00   8.690790e+05   0.000000e+00   0.000000e+00   0.000000e+00
     3592000   3.591999e-05   3.090799e+01   1.491537e+01   1.637857e+01   8.576836e+05   8.255674e+04   1.134088e+05   0.000000e+00   0.000000e+00   0.000000e+00   8.690790e+05   0.000000e+00   0.000000e+00   0.000000e+00
     3600000   3.599999e-05   3.097661e+01   1.492198e+01   1.638765e+01   8.576836e+05   8.255674e+04   1.134088e+05   0.000000e+00   0.000000e+00   0.000000e+00   8.690790e+05   0.000000e+00   0.000000e+00   0.000000e+00
     3608000   3.607999e-05   3.104522e+01   1.492858e+01   1.639672e+01   8.576836e+05   8.255674e+04   1.134088e+05   0.000000e+00   0.000000e+00   0.000000e+00   8.690790e+05   0.000000e+00   0.000000e+00   0.000000e+00
     3616000   3.615999e-05   3.111384e+01   1.493519e+01   1.640579e+01   8.576836e+05   8.255674e+04   1.134088e+05   0.000000e+00   0.000000e+00   0.000000e+00   8.690790e+05   0.000000e+00   0.000000e+00   0.000000e+00
     3624000   3.623999e-05   3.118245e+01   1.494179e+01   1.641486e+01   8.576836e+05   8.255674e+04   1.134088e+05   0.000000e+00   0.000000e+00   0.000000e+00   8.690790e+05   0.000000e+00   0.000000e+00   0.000000e+00
     3632000   3.631999e-05   3.125107e+01   1.494839e+01   1.642394e+01   8.576836e+05   8.255674e+04   1.134088e+05   0.000000e+00   0.000000e+00   0.000000e+00   8.690790e+05   0.000000e+00   0.000000e+00   0.000000e+00
     3640000   3.639999e-05   3.131968e+01   1.495500e+01   1.643301e+01   8.576836e+05   8.255674e+04   1.134088e+05   0.000000e+00   0.000000e+00   0.000000e+00   8.690790e+05   0.000000e+00   0.000000e+00   0.000000e+00
     3648000   3.647999e-05   3.138830e+01   1.496160e+01   1.644208e+01   8.576836e+05   8.255674e+04   1.134088e+05   0.000000e+00   0.000000e+00   0.000000e+00   8.690790e+05   0.000000e+00   0.000000e+00   0.000000e+00
     3656000   3.655999e-05   3.145691e+01   1.496821e+01   1.645115e+01   8.576836e+05   8.255674e+04   1.134088e+05   0.000000e+00   0.000000e+00   0.000000e+00   8.690790e+05   0.000000e+00   0.000000e+00   0.000000e+00
     3664000   3.663999e-05   3.152553e+01   1.497481e+01   1.646023e+01   8.576836e+05   8.255674e+04   1.134088e+05   0.000000e+00   0.000000e+00   0.000000e+00   8.690790e+05   0.000000e+00   0.000000e+00   0.000000e+00
     3672000   3.671999e-05   3.159414e+01   1.498142e+01   1.646930e+01   8.576836e+05   8.255674e+04   1.134088e+05   0.000000e+00   0.000000e+00   0.000000e+00   8.690790e+05   0.000000e+00   0.000000e+00   0.000000e+00
     3680000   3.679999e-05   3.166276e+01   1.498802e+01   1.647837e+01   8.576836e+05   8.255674e+04   1.134088e+05   0.000000e+00   0.000000e+00   0.000000e+00   8.690790e+05   0.000000e+00   0.000000e+00   0.000000e+00
     3688000   3.687999e-05   3.173137e+01   1.499463e+01   1.648744e+01   8.576836e+05   8.255674e+04   1.134088e+05   0.000000e+00   0.000000e+00   0.000000e+00   8.690790e+05   0.000000e+00   0.000000e+00   0.000000e+00
     3696000   3.695999e-05   3.179999e+01   1.500123e+01   1.649652e+01   8.576836e+05   8.255674e+04   1.134088e+05   0.000000e+00   0.000000e+00   0.000000e+00   8.690790e+05   0.000000e+00   0.000000e+00   0.000000e+00
     3704000   3.703999e-05   3.186860e+01   1.500784e+01   1.650559e+01   8.576836e+05   8.255674e+04   1.134088e+05   0.000000e+00   0.000000e+00   0.000000e+00   8.690790e+05   0.000000e+00   0.000000e+00   0.000000e+00
     3712000   3.711999e-05   3.193721e+01   1.501444e+01   1.651466e+01   8.576836e+05   8.255674e+04   1.134088e+05   0.000000e+00   0.000000e+00   0.000000e+00   8.690790e+05   0.000000e+00   0.000000e+00   0.000000e+00
     3720000   3.719999e-05   3.200583e+01   1.502104e+01   1.652374e+01   8.576836e+05   8.255674e+04   1.134088e+05   0.000000e+00   0.000000e+00   0.000000e+00   8.690790e+05   0.000000e+00   0.000000e+00   0.000000e+00
     3728000   3.727999e-05   3.207444e+01   1.502765e+01   1.653281e+01   8.576836e+05   8.255674e+04   1.134088e+05   0.000000e+00   0.000000e+00   0.000000e+00   8.690790e+05   0.000000e+00   0.000000e+00   0.000000e+00
     3736000   3.735999e-05   3.214306e+01   1.503425e+01   1.654188e+01   8.576836e+05   8.255674e+04   1.134088e+05   0.000000e+00   0.000000e+00   0.000000e+00   8.690790e+05   0.000000e+00   0.000000e+00   0.000000e+00
     3744000   3.743999e-05   3.221167e+01   1.504086e+01   1.655095e+01   8.576836e+05   8.255674e+04   1.134088e+05   0.000000e+00   0.000000e+00   0.000000e+00   8.690790e+05   0.000000e+00   0.000000e+00   0.000000e+00
     3752000   3.751999e-05   3.228029e+01   1.504746e+01   1.656003e+01   8.576836e+05   8.255674e+04   1.134088e+05   0.000000e+00   0.000000e+00   0.000000e+00   8.690790e+05   0.000000e+00   0.000000e+00   0.000000e+00
     3760000   3.759999e-05   3.234890e+01   1.505407e+01   1.656910e+01   8.576836e+05   8.255674e+04   1.134088e+05   0.000000e+00   0.000000e+00   0.000000e+00   8.690790e+05   0.000000e+00   0.000000e+00   0.000000e+00
     3768000   3.767999e-05   3.241752e+01   1.506067e+01   1.657817e+01   8.576836e+05   8.255674e+04   1.134088e+05   0.000000e+00   0.000000e+00   0.000000e+00   8.690790e+05   0.000000e+00   0.000000e+00   0.000000e+00
     3776000   3.775999e-05   3.248613e+01   1.506728e+01   1.658724e+01   8.576836e+05   8.255674e+04   1.134088e+05   0.000000e+00   0.000000e+00   0.000000e+00   8.690790e+05   0.000000e+00   0.000000e+00   0.000000e+00
     3784000   3.783999e-05   3.255475e+01   1.507388e+01   1.659632e+01   8.576836e+05   8.255674e+04   1.134088e+05   0.000000e+00   0.000000e+00   0.000000e+00   8.690790e+05   0.000000e+00   0.000000e+00   0.000000e+00
     3792000   3.791999e-05   3.262336e+01   1.508049e+01   1.660539e+01   8.576836e+05   8.255674e+04   1.134088e+05   0.000000e+00   0.000000e+00   0.000000e+00   8.690790e+05   0.000000e+00   0.000000e+00   0.000000e+00
     3800000   3.799999e-05   3.269198e+01   1.508709e+01   1.661446e+01   8.576836e+05   8.255674e+04   1.134088e+05   0.000000e+00   0.000000e+00   0.000000e+00   8.690790e+05   0.000000e+00   0.000000e+00   0.000000e+00
     3808000   3.807999e-05   3.276059e+01   1.509369e+01   1.662354e+01   8.576836e+05   8.255674e+04   1.134088e+05   0.000000e+00   0.000000e+00   0.000000e+00   8.690790e+05   0.000000e+00   0.000000e+00   0.000000e+00
     3816000   3.815999e-05   3.282921e+01   1.510030e+01   1.663261e+01   8.576836e+05   8.255674e+04   1.134088e+05   0.000000e+00   0.000000e+00   0.000000e+00   8.690790e+05   0.000000e+00   0.000000e+00   0.000000e+00
     3824000   3.823999e-05   3.289782e+01   1.510690e+01   1.664168e+01   8.576836e+05   8.255674e+04   1.134088e+05   0.000000e+00   0.000000e+00   0.000000e+00   8.690790e+05   0.000000e+00   0.000000e+00   0.000000e+00
     3832000   3.831999e-05   3.296643e+01   1.511351e+01   1.665075e+01   8.576836e+05   8.255674e+04   1.134088e+05   0.000000e+00   0.000000e+00   0.000000e+00   8.690790e+05   0.000000e+00   0.000000e+00   0.000000e+00
     3840000   3.839999e-05   3.303505e+01   1.512011e+01   1.665983e+01   8.576836e+05   8.255674e+04   1.134088e+05   0.000000e+00   0.000000e+00   0.000000e+00   8.690790e+05   0.000000e+00   0.000000e+00   0.000000e+00
     3848000   3.847999e-05   3.310366e+01   1.512672e+01   1.666890e+01   8.576836e+05   8.255674e+04   1.134088e+05   0.000000e+00   0.000000e+00   0.000000e+00   8.690790e+05   0.000000e+00   0.000000e+00   0.000000e+00
     3856000   3.855999e-05   3.317228e+01   1.513332e+01   1.667797e+01   8.576836e+05   8.255674e+04   1.134088e+05   0.000000e+00   0.000000e+00   0.000000e+00   8.690790e+05   0.000000e+00   0.000000e+00   0.000000e+00
     3864000   3.863999e-05   3.324089e+01   1.513993e+01   1.668704e+01   8.576836e+05   8.255674e+04   1.134088e+05   0.000000e+00   0.000000e+00   0.000000e+00   8.690790e+05   0.000000e+00   0.000000e+00   0.000000e+00
     3872000   3.871999e-05   3.330951e+01   1.514653e+01   1.669612e+01   8.576836e+05   8.255674e+04   1.134088e+05   0.000000e+00   0.000000e+00   0.000000e+00   8.690790e+05   0.000000e+00   0.000000e+00   0.000000e+00
     3880000   3.879999e-05   3.337812e+01   1.515314e+01   1.670519e+01   8.576836e+05   8.255674e+04   1.134088e+05   0.000000e+00   0.000000e+00   0.000000e+00   8.690790e+05   0.000000e+00   0.000000e+00   0.000000e+00
     3888000   3.887999e-05   3.344674e+01   1.515974e+01   1.671426e+01   8.576836e+05   8.255674e+04   1.134088e+05   0.000000e+00   0.000000e+00   0.000000e+00   8.690790e+05   0.000000e+00   0.000000e+00   0.000000e+00
     3896000   3.895999e-05   3.351535e+01   1.516634e+01   1.672334e+01   8.576836e+05   8.255674e+04   1.134088e+05   0.000000e+00   0.000000e+00   0.000000e+00   8.690790e+05   0.000000e+00   0.000000e+00   0.000000e+00
     3904000   3.903999e-05   3.358397e+01   1.517295e+01   1.673241e+01   8.576836e+05   8.255674e+04   1.134088e+05   0.000000e+00   0.000000e+00   0.000000e+00   8.690790e+05   0.000000e+00   0.000000e+00   0.000000e+00
     3912000   3.911999e-05   3.365258e+01   1.517955e+01   1.674148e+01   8.576836e+05   8.255674e+04   1.134088e+05   0.000000e+00   0.000000e+00   0.000000e+00   8.690790e+05   0.000000e+00   0.000000e+00   0.000000e+00
     3920000   3.919999e-05   3.372120e+01   1.518616e+01   1.675055e+01   8.576836e+05   8.255674e+04   1.134088e+05   0.000000e+00   0.000000e+00   0.000000e+00   8.690790e+05   0.000000e+00   0.000000e+00   0.000000e+00
     3928000   3.927999e-05   3.378981e+01   1.519276e+01   1.675963e+01   8.576836e+05   8.255674e+04   1.134088e+05   0.000000e+00   0.000000e+00   0.000000e+00   8.690790e+05   0.000000e+00   0.000000e+00   0.000000e+00
     3936000   3.935999e-05   3.385843e+01   1.519937e+01   1.676870e+01   8.576836e+05   8.255674e+04   1.134088e+05   0.000000e+00   0.000000e+00   0.000000e+00   8.690790e+05   0.000000e+00   0.000000e+00   0.000000e+00
     3944000   3.943999e-05   3.392704e+01   1.520597e+01   1.677777e+01   8.576836e+05   8.255674e+04   1.134088e+05   0.000000e+00   0.000000e+00   0.000000e+00   8.690790e+05   0.000000e+00   0.000000e+00   0.000000e+00
     3952000   3.951999e-05   3.399565e+01   1.521258e+01   1.678684e+01   8.576836e+05   8.255674e+04   1.134088e+05   0.000000e+00   0.000000e+00   0.000000e+00   8.690790e+05   0.000000e+00   0.000000e+00   0.000000e+00
     3960000   3.959999e-05   3.406427e+01   1.521918e+01   1.679592e+01   8.576836e+05   8.255674e+04   1.134088e+05   0.000000e+00   0.000000e+00   0.000000e+00   8.690790e+05   0.000000e+00   0.000000e+00   0.000000e+00
     3968000   3.967999e-05   3.413288e+01   1.522579e+01   1.680499e+01   8.576836e+05   8.255674e+04   1.134088e+05   0.000000e+00   0.000000e+00   0.000000e+00   8.690790e+05   0.000000e+00   0.000000e+00   0.000000e+00
     3976000   3.975999e-05   3.420150e+01   1.523239e+01   1.681406e+01   8.576836e+05   8.255674e+04   1.134088e+05   0.000000e+00   0.000000e+00   0.000000e+00   8.690790e+05   0.000000e+00   0.000000e+00   0.000000e+00
     3984000   3.983999e-05   3.427011e+01   1.523899e+01   1.682313e+01   8.576836e+05   8.255674e+04   1.134088e+05   0.000000e+00   0.000000e+00   0.000000e+00   8.690790e+05   0.000000e+00   0.000000e+00   0.000000e+00
     3992000   3.991999e-05   3.433873e+01   1.524560e+01   1.683221e+01   8.576836e+05   8.255674e+04   1.134088e+05   0.000000e+00   0.000000e+00   0.000000e+00   8.690790e+05   0.000000e+00   0.000000e+00   0.000000e+00
     4000000   3.999999e-05   3.440734e+01   1.525220e+01   1.684128e+01   8.576836e+05   8.255674e+04   1.134088e+05   0.000000e+00   0.000000e+00   0.000000e+00   8.690790e+05   0.000000e+00   0.000000e+00   0.000000e+00
     4008000   4.007999e-05   3.447596e+01   1.525881e+01   1.685035e+01   8.576836e+05   8.255674e+04   1.134088e+05   0.000000e+00   0.000000e+00   0.000000e+00   8.690790e+05   0.000000e+00   0.000000e+00   0.000000e+00
     4016000   4.015999e-05   3.454457e+01   1.526541e+01   1.685943e+01   8.576836e+05   8.255674e+04   1.134088e+05   0.000000e+00   0.000000e+00   0.000000e+00   8.690790e+05   0.000000e+00   0.000000e+00   0.000000e+00
     4024000   4.023999e-05   3.461319e+01   1.527202e+01   1.686850e+01   8.576836e+05   8.255674e+04   1.134088e+05   0.000000e+00   0.000000e+00   0.000000e+00   8.690790e+05   0.000000e+00   0.000000e+00   0.000000e+00
     4032000   4.031999e-05   3.468180e+01   1.527862e+01   1.687757e+01   8.576836e+05   8.255674e+04   1.134088e+05   0.000000e+00   0.000000e+00   0.000000e+00   8.690790e+05   0.000000e+00   0.000000e+00   0.000000e+00
     4040000   4.039999e-05   3.475042e+01   1.528523e+01   1.688664e+01   8.576836e+05   8.255674e+04   1.134088e+05   0.000000e+00   0.000000e+00   0.000000e+00   8.690790e+05   0.000000e+00   0.000000e+00   0.000000e+00
     4048000   4.047999e-05   3.481903e+01   1.529183e+01   1.689572e+01   8.576836e+05   8.255674e+04   1.134088e+05   0.000000e+00   0.000000e+00   0.000000e+00   8.690790e+05   0.000000e+00   0.000000e+00   0.000000e+00
     4056000   4.055999e-05   3.488765e+01   1.529844e+01   1.690479e+01   8.576836e+05   8.255674e+04   1.134088e+05   0.000000e+00   0.000000e+00   0.000000e+00   8.690790e+05   0.000000e+00   0.000000e+00   0.000000e+00
     4064000   4.063999e-05   3.495626e+01   1.530504e+01   1.691386e+01   8.576836e+05   8.255674e+04   1.134088e+05   0.000000e+00   0.000000e+00   0.000000e+00   8.690790e+05   0.000000e+00   0.000000e+00   0.000000e+00
     4072000   4.071999e-05   3.502488e+01   1.531164e+01   1.692293e+01   8.576836e+05   8.255674e+04   1.134088e+05   0.000000e+00   0.000000e+00   0.000000e+00   8.690790e+05   0.000000e+00   0.000000e+00   0.000000e+00
     4080000   4.079999e-05   3.509349e+01   1.531825e+01   1.693201e+01   8.576836e+05   8.255674e+04   1.134088e+05   0.000000e+00   0.000000e+00   0.000000e+00   8.690790e+05   0.000000e+00   0.000000e+00   0.000000e+00
     4088000   4.087999e-05   3.516210e+01   1.532485e+01   1.694108e+01   8.576836e+05   8.255674e+04   1.134088e+05   0.000000e+00   0.000000e+00   0.000000e+00   8.690790e+05   0.000000e+00   0.000000e+00   0.000000e+00
     4096000   4.095999e-05   3.523072e+01   1.533146e+01   1.695015e+01   8.576836e+05   8.255674e+04   1.134088e+05   0.000000e+00   0.000000e+00   0.000000e+00   8.690790e+05   0.000000e+00   0.000000e+00   0.000000e+00
     4104000   4.103999e-05   3.529933e+01   1.533806e+01   1.695923e+01   8.576836e+05   8.255674e+04   1.134088e+05   0.000000e+00   0.000000e+00   0.000000e+00   8.690790e+05   0.000000e+00   0.000000e+00   0.000000e+00
     4112000   4.111999e-05   3.536795e+01   1.534467e+01   1.696830e+01   8.576836e+05   8.255674e+04   1.134088e+05   0.000000e+00   0.000000e+00   0.000000e+00   8.690790e+05   0.000000e+00   0.000000e+00   0.000000e+00
     4120000   4.119999e-05   3.543656e+01   1.535127e+01   1.697737e+01   8.576836e+05   8.255674e+04   1.134088e+05   0.000000e+00   0.000000e+00   0.000000e+00   8.690790e+05   0.000000e+00   0.000000e+00   0.000000e+00
     4128000   4.127999e-05   3.550518e+01   1.535788e+01   1.698644e+01   8.576836e+05   8.255674e+04   1.134088e+05   0.000000e+00   0.000000e+00   0.000000e+00   8.690790e+05   0.000000e+00   0.000000e+00   0.000000e+00
     4136000   4.135999e-05   3.557379e+01   1.536448e+01   1.699552e+01   8.576836e+05   8.255674e+04   1.134088e+05   0.000000e+00   0.000000e+00   0.000000e+00   8.690790e+05   0.000000e+00   0.000000e+00   0.000000e+00
     4144000   4.143999e-05   3.564241e+01   1.537109e+01   1.700459e+01   8.576836e+05   8.255674e+04   1.134088e+05   0.000000e+00   0.000000e+00   0.000000e+00   8.690790e+05   0.000000e+00   0.000000e+00   0.000000e+00
     4152000   4.151999e-05   3.571102e+01   1.537769e+01   1.701366e+01   8.576836e+05   8.255674e+04   1.134088e+05   0.000000e+00   0.000000e+00   0.000000e+00   8.690790e+05   0.000000e+00   0.000000e+00   0.000000e+00
     4160000   4.159999e-05   3.577964e+01   1.538429e+01   1.702273e+01   8.576836e+05   8.255674e+04   1.134088e+05   0.000000e+00   0.000000e+00   0.000000e+00   8.690790e+05   0.000000e+00   0.000000e+00   0.000000e+00
     4168000   4.167999e-05   3.584825e+01   1.539090e+01   1.703181e+01   8.576836e+05   8.255674e+04   1.134088e+05   0.000000e+00   0.000000e+00   0.000000e+00   8.690790e+05   0.000000e+00   0.000000e+00   0.000000e+00
     4176000   4.175999e-05   3.591687e+01   1.539750e+01   1.704088e+01   8.576836e+05   8.255674e+04   1.134088e+05   0.000000e+00   0.000000e+00   0.000000e+00   8.690790e+05   0.000000e+00   0.000000e+00   0.000000e+00
     4184000   4.183999e-05   3.598548e+01   1.540411e+01   1.704995e+01   8.576836e+05   8.255674e+04   1.134088e+05   0.000000e+00   0.000000e+00   0.000000e+00   8.690790e+05   0.000000e+00   0.000000e+00   0.000000e+00
     4192000   4.191999e-05   3.605410e+01   1.541071e+01   1.705903e+01   8.576836e+05   8.255674e+04   1.134088e+05   0.000000e+00   0.000000e+00   0.000000e+00   8.690790e+05   0.000000e+00   0.000000e+00   0.000000e+00
     4200000   4.199999e-05   3.612271e+01   1.541732e+01   1.706810e+01   8.576836e+05   8.255674e+04   1.134088e+05   0.000000e+00   0.000000e+00   0.000000e+00   8.690790e+05   0.000000e+00   0.000000e+00   0.000000e+00
     4208000   4.207999e-05   3.619132e+01   1.542392e+01   1.707717e+01   8.576836e+05   8.255674e+04   1.134088e+05   0.000000e+00   0.000000e+00   0.000000e+00   8.690790e+05   0.000000e+00   0.000000e+00   0.000000e+00
     4216000   4.215999e-05   3.625994e+01   1.543053e+01   1.708624e+01   8.576836e+05   8.255674e+04   1.134088e+05   0.000000e+00   0.000000e+00   0.000000e+00   8.690790e+05   0.000000e+00   0.000000e+00   0.000000e+00
     4224000   4.223999e-05   3.632855e+01   1.543713e+01   1.709532e+01   8.576836e+05   8.255674e+04   1.134088e+05   0.000000e+00   0.000000e+00   0.000000e+00   8.690790e+05   0.000000e+00   0.000000e+00   0.000000e+00
     4232000   4.231999e-05   3.639717e+01   1.544374e+01   1.710439e+01   8.576836e+05   8.255674e+04   1.134088e+05   0.000000e+00   0.000000e+00   0.000000e+00   8.690790e+05   0.000000e+00   0.000000e+00   0.000000e+00
     4240000   4.239999e-05   3.646578e+01   1.545034e+01   1.711346e+01   8.576836e+05   8.255674e+04   1.134088e+05   0.000000e+00   0.000000e+00   0.000000e+00   8.690790e+05   0.000000e+00   0.000000e+00   0.000000e+00
     4248000   4.247999e-05   3.653440e+01   1.545694e+01   1.712253e+01   8.576836e+05   8.255674e+04   1.134088e+05   0.000000e+00   0.000000e+00   0.000000e+00   8.690790e+05   0.000000e+00   0.000000e+00   0.000000e+00
     4256000   4.255999e-05   3.660301e+01   1.546355e+01   1.713161e+01   8.576836e+05   8.255674e+04   1.134088e+05   0.000000e+00   0.000000e+00   0.000000e+00   8.690790e+05   0.000000e+00   0.000000e+00   0.000000e+00
     4264000   4.263999e-05   3.667163e+01   1.547015e+01   1.714068e+01   8.576836e+05   8.255674e+04   1.134088e+05   0.000000e+00   0.000000e+00   0.000000e+00   8.690790e+05   0.000000e+00   0.000000e+00   0.000000e+00
     4272000   4.271999e-05   3.674024e+01   1.547676e+01   1.714975e+01   8.576836e+05   8.255674e+04   1.134088e+05   0.000000e+00   0.000000e+00   0.000000e+00   8.690790e+05   0.000000e+00   0.000000e+00   0.000000e+00
     4280000   4.279999e-05   3.680886e+01   1.548336e+01   1.715882e+01   8.576836e+05   8.255674e+04   1.134088e+05   0.000000e+00   0.000000e+00   0.000000e+00   8.690790e+05   0.000000e+00   0.000000e+00   0.000000e+00
     4288000   4.287999e-05   3.687747e+01   1.548997e+01   1.716790e+01   8.576836e+05   8.255674e+04   1.134088e+05   0.000000e+00   0.000000e+00   0.000000e+00   8.690790e+05   0.000000e+00   0.000000e+00   0.000000e+00
