     timestep     time              x             y              z              vx             vy             vz             ax             ay             az         v_magnitude      ELoss        Electronic      Nuclear
           0   0.000000e+00   1.000000e-01   1.110121e+01   1.794496e+01   1.890306e+06   2.659303e+04   1.824802e+06   0.000000e+00   0.000000e+00   0.000000e+00   2.627521e+06   0.000000e+00   0.000000e+00   0.000000e+00
        8000   7.999000e-08   2.512245e-01   1.110334e+01   1.809094e+01   1.890306e+06   2.659303e+04   1.824802e+06   0.000000e+00   0.000000e+00   0.000000e+00   2.627521e+06   0.000000e+00   0.000000e+00   0.000000e+00
       16000   1.599900e-07   4.024489e-01   1.110546e+01   1.823693e+01   1.890306e+06   2.659303e+04   1.824802e+06   0.000000e+00   0.000000e+00   0.000000e+00   2.627521e+06   0.000000e+00   0.000000e+00   0.000000e+00
       24000   2.399900e-07   5.536734e-01   1.110759e+01   1.838291e+01   1.890306e+06   2.659303e+04   1.824802e+06   0.000000e+00   0.000000e+00   0.000000e+00   2.627521e+06   0.000000e+00   0.000000e+00   0.000000e+00
       32000   3.199900e-07   7.048979e-01   1.110972e+01   1.852889e+01   1.890306e+06   2.659303e+04   1.824802e+06   0.000000e+00   0.000000e+00   0.000000e+00   2.627521e+06   0.000000e+00   0.000000e+00   0.000000e+00
       40000   3.999900e-07   8.561223e-01   1.111185e+01   1.867488e+01   1.890306e+06   2.659303e+04   1.824802e+06   0.000000e+00   0.000000e+00   0.000000e+00   2.627521e+06   0.000000e+00   0.000000e+00   0.000000e+00
       48000   4.799900e-07   1.007347e+00   1.111397e+01   1.882086e+01   1.890306e+06   2.659303e+04   1.824802e+06   0.000000e+00   0.000000e+00   0.000000e+00   2.627521e+06   0.000000e+00   0.000000e+00   0.000000e+00
       56000   5.599900e-07   1.158571e+00   1.111610e+01   1.896685e+01   1.890306e+06   2.659303e+04   1.824802e+06   0.000000e+00   0.000000e+00   0.000000e+00   2.627521e+06   0.000000e+00   0.000000e+00   0.000000e+00
       64000   6.399900e-07   1.309796e+00   1.111823e+01   1.911283e+01   1.890306e+06   2.659303e+04   1.824802e+06   0.000000e+00   0.000000e+00   0.000000e+00   2.627521e+06   0.000000e+00   0.000000e+00   0.000000e+00
       72000   7.199900e-07   1.461020e+00   1.112036e+01   1.925881e+01   1.890306e+06   2.659303e+04   1.824802e+06   0.000000e+00   0.000000e+00   0.000000e+00   2.627521e+06   0.000000e+00   0.000000e+00   0.000000e+00
       80000   7.999900e-07   1.612245e+00   1.112248e+01   1.940480e+01   1.890306e+06   2.659303e+04   1.824802e+06   0.000000e+00   0.000000e+00   0.000000e+00   2.627521e+06   0.000000e+00   0.000000e+00   0.000000e+00
       88000   8.799900e-07   1.763469e+00   1.112461e+01   1.955078e+01   1.890306e+06   2.659303e+04   1.824802e+06   0.000000e+00   0.000000e+00   0.000000e+00   2.627521e+06   0.000000e+00   0.000000e+00   0.000000e+00
       96000   9.599900e-07   1.914694e+00   1.112674e+01   1.969677e+01   1.890304e+06   2.659674e+04   1.824804e+06  -1.542264e+08   2.570905e+08   1.560151e+08   2.627521e+06   1.898937e-24   0.000000e+00   0.000000e+00
      104000   1.039990e-06   2.065917e+00   1.112887e+01   1.984275e+01   1.890293e+06   2.661481e+04   1.824815e+06  -1.772781e+08   2.939195e+08   1.793524e+08   2.627521e+06   2.494593e-24   0.000000e+00   0.000000e+00
      112000   1.119990e-06   2.217140e+00   1.113100e+01   1.998874e+01   1.890285e+06   2.662828e+04   1.824823e+06   2.699300e+07  -4.428905e+07  -2.731504e+07   2.627521e+06   5.697735e-26   0.000000e+00   0.000000e+00
      120000   1.199990e-06   2.368363e+00   1.113313e+01   2.013472e+01   1.890285e+06   2.662788e+04   1.824823e+06   1.190645e+00  -2.822854e+01  -8.214451e-01   2.627521e+06   1.329255e-38   0.000000e+00   0.000000e+00
      128000   1.279990e-06   2.519586e+00   1.113526e+01   2.028071e+01   1.890285e+06   2.662788e+04   1.824823e+06   5.710917e-01  -4.054119e+01   5.760104e-22   2.627521e+06   2.732884e-38   0.000000e+00   0.000000e+00
      136000   1.359990e-06   2.670809e+00   1.113739e+01   2.042669e+01   1.890285e+06   2.662788e+04   1.824823e+06  -2.614668e-01   1.856125e+01  -2.188536e-21   2.627521e+06   5.707839e-39   0.000000e+00   0.000000e+00
      144000   1.439990e-06   2.822032e+00   1.113952e+01   2.057268e+01   1.890285e+06   2.662788e+04   1.824823e+06  -3.182449e-01   2.259187e+01  -3.992059e-21   2.627521e+06   8.477611e-39   0.000000e+00   0.000000e+00
      152000   1.519990e-06   2.973254e+00   1.114165e+01   2.071867e+01   1.890285e+06   2.662788e+04   1.824823e+06   1.459732e+00  -1.036249e+02   4.294636e-21   2.627521e+06   1.785487e-37   0.000000e+00   0.000000e+00
      160000   1.599990e-06   3.124477e+00   1.114378e+01   2.086465e+01   1.890285e+06   2.662788e+04   1.824823e+06   1.255407e+00  -8.912005e+01   8.371718e-21   2.627521e+06   1.320883e-37   0.000000e+00   0.000000e+00
      168000   1.679990e-06   3.275700e+00   1.114591e+01   2.101064e+01   1.890285e+06   2.662788e+04   1.824823e+06   4.598828e-01  -3.264659e+01   1.521264e-21   2.627521e+06   1.775155e-38   0.000000e+00   0.000000e+00
      176000   1.759990e-06   3.426923e+00   1.114804e+01   2.115662e+01   1.890285e+06   2.662788e+04   1.824823e+06   5.733995e-01  -4.070502e+01  -9.074462e-21   2.627521e+06   2.757389e-38   0.000000e+00   0.000000e+00
      184000   1.839990e-06   3.578146e+00   1.115017e+01   2.130261e+01   1.890285e+06   2.662788e+04   1.824823e+06   8.775807e-01  -6.229852e+01  -2.009104e-21   2.627521e+06   6.454581e-38   0.000000e+00   0.000000e+00
      192000   1.919990e-06   3.729368e+00   1.115230e+01   2.144860e+01   1.890285e+06   2.662788e+04   1.824823e+06   9.075527e-01  -6.442621e+01   4.089974e-21   2.627521e+06   6.904911e-38   0.000000e+00   0.000000e+00
      200000   1.999990e-06   3.880591e+00   1.115443e+01   2.159458e+01   1.890285e+06   2.662788e+04   1.824823e+06   8.825342e-01  -6.265017e+01  -3.754943e-21   2.627521e+06   6.529354e-38   0.000000e+00   0.000000e+00
      208000   2.079990e-06   4.031814e+00   1.115656e+01   2.174057e+01   1.890285e+06   2.662788e+04   1.824823e+06   7.654966e-01  -5.434180e+01   8.887575e-22   2.627521e+06   4.912683e-38   0.000000e+00   0.000000e+00
      216000   2.159990e-06   4.183037e+00   1.115869e+01   2.188655e+01   1.890285e+06   2.662788e+04   1.824823e+06   1.125775e+00  -7.991756e+01   3.847736e-21   2.627521e+06   1.062391e-37   0.000000e+00   0.000000e+00
      224000   2.239990e-06   4.334259e+00   1.116082e+01   2.203254e+01   1.890285e+06   2.662788e+04   1.824823e+06   1.225248e+00  -8.697907e+01  -6.715328e-21   2.627521e+06   1.258448e-37   0.000000e+00   0.000000e+00
      232000   2.319990e-06   4.485482e+00   1.116295e+01   2.217852e+01   1.890285e+06   2.662788e+04   1.824823e+06   1.165986e+00  -8.277215e+01  -3.394675e-21   2.627521e+06   1.139730e-37   0.000000e+00   0.000000e+00
      240000   2.399990e-06   4.636705e+00   1.116508e+01   2.232451e+01   1.890285e+06   2.662788e+04   1.824823e+06   1.384106e+00  -9.825624e+01   2.461605e-21   2.627521e+06   1.605718e-37   0.000000e+00   0.000000e+00
      248000   2.479990e-06   4.787928e+00   1.116721e+01   2.247050e+01   1.890285e+06   2.662788e+04   1.824823e+06   1.581735e+00  -1.122857e+02   6.315231e-21   2.627521e+06   2.097177e-37   0.000000e+00   0.000000e+00
      256000   2.559990e-06   4.939151e+00   1.116934e+01   2.261648e+01   1.890285e+06   2.662788e+04   1.824823e+06   9.789228e-01  -6.949270e+01  -8.514153e-21   2.627521e+06   8.036044e-38   0.000000e+00   0.000000e+00
      264000   2.639990e-06   5.090373e+00   1.117147e+01   2.276247e+01   1.890285e+06   2.662788e+04   1.824823e+06   8.822825e-01  -6.263230e+01   2.647211e-21   2.627521e+06   6.527127e-38   0.000000e+00   0.000000e+00
      272000   2.719990e-06   5.241596e+00   1.117360e+01   2.290845e+01   1.890285e+06   2.662788e+04   1.824823e+06   1.651077e+00  -1.172082e+02   3.957073e-21   2.627521e+06   2.285218e-37   0.000000e+00   0.000000e+00
      280000   2.799990e-06   5.392819e+00   1.117573e+01   2.305444e+01   1.890285e+06   2.662788e+04   1.824823e+06   1.662839e+00  -1.180432e+02  -3.678505e-22   2.627521e+06   2.317804e-37   0.000000e+00   0.000000e+00
      288000   2.879990e-06   5.544042e+00   1.117786e+01   2.320043e+01   1.890285e+06   2.662788e+04   1.824823e+06   1.773548e+00  -1.259023e+02   1.261869e-20   2.627521e+06   2.636695e-37   0.000000e+00   0.000000e+00
      296000   2.959990e-06   5.695265e+00   1.117999e+01   2.334641e+01   1.890285e+06   2.662788e+04   1.824823e+06   2.410694e+00  -1.711326e+02   6.528016e-21   2.627521e+06   4.871106e-37   0.000000e+00   0.000000e+00
      304000   3.039990e-06   5.846487e+00   1.118212e+01   2.349240e+01   1.890285e+06   2.662788e+04   1.824823e+06   1.498093e+00  -1.063480e+02   8.656006e-21   2.627521e+06   1.881425e-37   0.000000e+00   0.000000e+00
      312000   3.119990e-06   5.997710e+00   1.118425e+01   2.363838e+01   1.890285e+06   2.662788e+04   1.824823e+06   5.450656e-01  -3.869363e+01   1.257299e-21   2.627521e+06   2.492575e-38   0.000000e+00   0.000000e+00
      320000   3.199990e-06   6.148933e+00   1.118638e+01   2.378437e+01   1.890285e+06   2.662788e+04   1.824823e+06   1.203679e+00  -8.544792e+01   2.244043e-21   2.627521e+06   1.214858e-37   0.000000e+00   0.000000e+00
      328000   3.279990e-06   6.300156e+00   1.118851e+01   2.393035e+01   1.890285e+06   2.662788e+04   1.824823e+06   1.617412e+00  -1.148184e+02   1.568309e-20   2.627521e+06   2.192908e-37   0.000000e+00   0.000000e+00
      336000   3.359990e-06   6.451378e+00   1.119064e+01   2.407634e+01   1.890285e+06   2.662788e+04   1.824823e+06   2.274972e+00  -1.614978e+02   2.034220e-20   2.627521e+06   4.338276e-37   0.000000e+00   0.000000e+00
      344000   3.439990e-06   6.602601e+00   1.119277e+01   2.422233e+01   1.890285e+06   2.662788e+04   1.824823e+06   1.463242e+00  -1.038740e+02   1.155106e-20   2.627521e+06   1.795064e-37   0.000000e+00   0.000000e+00
      352000   3.519990e-06   6.753824e+00   1.119490e+01   2.436831e+01   1.890285e+06   2.662788e+04   1.824823e+06   1.651588e+00  -1.172445e+02  -1.766810e-20   2.627521e+06   2.286584e-37   0.000000e+00   0.000000e+00
      360000   3.599990e-06   6.905047e+00   1.119703e+01   2.451430e+01   1.890285e+06   2.662788e+04   1.824823e+06   1.694725e+00  -1.203067e+02  -2.360691e-21   2.627521e+06   2.407646e-37   0.000000e+00   0.000000e+00
      368000   3.679990e-06   7.056270e+00   1.119916e+01   2.466028e+01   1.890285e+06   2.662788e+04   1.824823e+06   1.876433e+00  -1.332060e+02   4.138747e-21   2.627521e+06   2.951870e-37   0.000000e+00   0.000000e+00
      376000   3.759990e-06   7.207492e+00   1.120130e+01   2.480627e+01   1.890285e+06   2.662788e+04   1.824823e+06   1.743229e+00  -1.237500e+02   7.355666e-21   2.627521e+06   2.547032e-37   0.000000e+00   0.000000e+00
      384000   3.839990e-06   7.358715e+00   1.120343e+01   2.495226e+01   1.890285e+06   2.662788e+04   1.824823e+06   2.286821e+00  -1.623390e+02   1.494011e-20   2.627521e+06   4.384233e-37   0.000000e+00   0.000000e+00
      392000   3.919990e-06   7.509938e+00   1.120556e+01   2.509824e+01   1.890285e+06   2.662788e+04   1.824823e+06   1.999180e+00  -1.419197e+02  -1.271629e-20   2.627521e+06   3.349770e-37   0.000000e+00   0.000000e+00
      400000   3.999990e-06   7.661161e+00   1.120769e+01   2.524423e+01   1.890285e+06   2.662788e+04   1.824823e+06   2.768889e+00  -1.965605e+02   1.455152e-20   2.627521e+06   6.425919e-37   0.000000e+00   0.000000e+00
      408000   4.079990e-06   7.812384e+00   1.120982e+01   2.539021e+01   1.890285e+06   2.662788e+04   1.824823e+06   2.083733e+00  -1.479220e+02  -3.981211e-21   2.627521e+06   3.639157e-37   0.000000e+00   0.000000e+00
      416000   4.159990e-06   7.963606e+00   1.121195e+01   2.553620e+01   1.890285e+06   2.662788e+04   1.824823e+06   2.402561e+00  -1.705552e+02  -4.706335e-20   2.627521e+06   4.839135e-37   0.000000e+00   0.000000e+00
      424000   4.239990e-06   8.114829e+00   1.121408e+01   2.568218e+01   1.890285e+06   2.662788e+04   1.824823e+06   2.057633e+00  -1.460692e+02   1.503600e-20   2.627521e+06   3.549827e-37   0.000000e+00   0.000000e+00
      432000   4.319990e-06   8.266052e+00   1.121621e+01   2.582817e+01   1.890285e+06   2.662788e+04   1.824823e+06   2.741669e+00  -1.946282e+02   8.197868e-21   2.627521e+06   6.300271e-37   0.000000e+00   0.000000e+00
      440000   4.399990e-06   8.417275e+00   1.121834e+01   2.597416e+01   1.890285e+06   2.662788e+04   1.824823e+06   2.857188e+00  -2.028287e+02  -7.016466e-21   2.627521e+06   6.843249e-37   0.000000e+00   0.000000e+00
      448000   4.479990e-06   8.568498e+00   1.122047e+01   2.612014e+01   1.890285e+06   2.662788e+04   1.824823e+06   3.171326e+00  -2.251291e+02  -3.376225e-20   2.627521e+06   8.430550e-37   0.000000e+00   0.000000e+00
      456000   4.559990e-06   8.719720e+00   1.122260e+01   2.626613e+01   1.890285e+06   2.662788e+04   1.824823e+06   2.532949e+00  -1.798114e+02   2.045827e-20   2.627521e+06   5.377771e-37   0.000000e+00   0.000000e+00
      464000   4.639990e-06   8.870943e+00   1.122473e+01   2.641211e+01   1.890285e+06   2.662788e+04   1.824823e+06   2.937774e+00  -2.085495e+02   3.341172e-20   2.627521e+06   7.235609e-37   0.000000e+00   0.000000e+00
      472000   4.719990e-06   9.022166e+00   1.122686e+01   2.655810e+01   1.890285e+06   2.662788e+04   1.824823e+06   2.798002e+00  -1.986272e+02  -5.121192e-21   2.627521e+06   6.562703e-37   0.000000e+00   0.000000e+00
      480000   4.799990e-06   9.173389e+00   1.122899e+01   2.670409e+01   1.890285e+06   2.662788e+04   1.824823e+06   2.974272e+00  -2.111404e+02   2.750554e-20   2.627521e+06   7.415527e-37   0.000000e+00   0.000000e+00
      488000   4.879990e-06   9.324611e+00   1.123112e+01   2.685007e+01   1.890285e+06   2.662788e+04   1.824823e+06   3.239950e+00  -2.300006e+02  -1.348039e-21   2.627521e+06   8.798713e-37   0.000000e+00   0.000000e+00
      496000   4.959990e-06   9.475834e+00   1.123325e+01   2.699606e+01   1.890285e+06   2.662788e+04   1.824823e+06   4.045615e+00  -2.871940e+02   9.563777e-21   2.627521e+06   1.371901e-36   0.000000e+00   0.000000e+00
      504000   5.039990e-06   9.627057e+00   1.123538e+01   2.714204e+01   1.890285e+06   2.662788e+04   1.824823e+06   3.165165e+00  -2.246917e+02   7.767217e-21   2.627521e+06   8.398398e-37   0.000000e+00   0.000000e+00
      512000   5.119990e-06   9.778280e+00   1.123751e+01   2.728803e+01   1.890285e+06   2.662788e+04   1.824823e+06   3.619874e+00  -2.569710e+02  -1.536410e-20   2.627521e+06   1.098428e-36   0.000000e+00   0.000000e+00
      520000   5.199990e-06   9.929503e+00   1.123964e+01   2.743401e+01   1.890285e+06   2.662788e+04   1.824823e+06   3.542665e+00  -2.514900e+02  -2.194596e-20   2.627521e+06   1.052076e-36   0.000000e+00   0.000000e+00
      528000   5.279990e-06   1.008073e+01   1.124177e+01   2.758000e+01   1.890285e+06   2.662788e+04   1.824823e+06   2.473908e+00  -1.756201e+02   2.161338e-20   2.627521e+06   5.132186e-37   0.000000e+00   0.000000e+00
      536000   5.359990e-06   1.023195e+01   1.124390e+01   2.772599e+01   1.890285e+06   2.662788e+04   1.824823e+06   3.576222e+00  -2.538722e+02   1.986219e-20   2.627521e+06   1.072007e-36   0.000000e+00   0.000000e+00
      544000   5.439990e-06   1.038317e+01   1.124603e+01   2.787197e+01   1.890285e+06   2.662788e+04   1.824823e+06   4.033966e+00  -2.863670e+02  -1.656071e-20   2.627521e+06   1.364178e-36   0.000000e+00   0.000000e+00
      552000   5.519990e-06   1.053439e+01   1.124816e+01   2.801796e+01   1.890285e+06   2.662788e+04   1.824823e+06   3.666475e+00  -2.602792e+02   4.811745e-20   2.627521e+06   1.126958e-36   0.000000e+00   0.000000e+00
      560000   5.599990e-06   1.068562e+01   1.125029e+01   2.816394e+01   1.890285e+06   2.662788e+04   1.824823e+06   3.963244e+00  -2.813466e+02   2.697001e-20   2.627521e+06   1.316717e-36   0.000000e+00   0.000000e+00
      568000   5.679990e-06   1.083684e+01   1.125242e+01   2.830993e+01   1.890285e+06   2.662788e+04   1.824823e+06   4.306568e+00  -3.057187e+02   1.771344e-20   2.627521e+06   1.554687e-36   0.000000e+00   0.000000e+00
      576000   5.759990e-06   1.098806e+01   1.125455e+01   2.845592e+01   1.890285e+06   2.662788e+04   1.824823e+06   4.336496e+00  -3.078433e+02  -4.499382e-21   2.627521e+06   1.576406e-36   0.000000e+00   0.000000e+00
      584000   5.839990e-06   1.113928e+01   1.125668e+01   2.860190e+01   1.890285e+06   2.662788e+04   1.824823e+06   4.336974e+00  -3.078772e+02  -1.858608e-20   2.627521e+06   1.576764e-36   0.000000e+00   0.000000e+00
      592000   5.919990e-06   1.129051e+01   1.125881e+01   2.874789e+01   1.890285e+06   2.662788e+04   1.824823e+06   3.142442e+00  -2.230786e+02   8.661024e-21   2.627521e+06   8.279947e-37   0.000000e+00   0.000000e+00
      600000   5.999990e-06   1.144173e+01   1.126094e+01   2.889387e+01   1.890285e+06   2.662788e+04   1.824823e+06   3.474625e+00  -2.466600e+02   2.056647e-20   2.627521e+06   1.012106e-36   0.000000e+00   0.000000e+00
      608000   6.079990e-06   1.159295e+01   1.126307e+01   2.903986e+01   1.890285e+06   2.662788e+04   1.824823e+06   4.544295e+00  -3.225947e+02   2.047560e-20   2.627521e+06   1.731165e-36   0.000000e+00   0.000000e+00
      616000   6.159990e-06   1.174418e+01   1.126520e+01   2.918584e+01   1.890285e+06   2.662788e+04   1.824823e+06   4.086100e+00  -2.900680e+02   1.652246e-20   2.627521e+06   1.399714e-36   0.000000e+00   0.000000e+00
      624000   6.239990e-06   1.189540e+01   1.126733e+01   2.933183e+01   1.890285e+06   2.662788e+04   1.824823e+06   4.940366e+00  -3.507114e+02  -5.182516e-20   2.627521e+06   2.046044e-36   0.000000e+00   0.000000e+00
      632000   6.319990e-06   1.204662e+01   1.126946e+01   2.947782e+01   1.890285e+06   2.662788e+04   1.824823e+06   4.254779e+00  -3.020423e+02   1.669790e-21   2.627521e+06   1.517673e-36   0.000000e+00   0.000000e+00
      640000   6.399990e-06   1.219784e+01   1.127159e+01   2.962380e+01   1.890285e+06   2.662788e+04   1.824823e+06   5.641941e+00  -4.005155e+02   3.332304e-20   2.627521e+06   2.668297e-36   0.000000e+00   0.000000e+00
      648000   6.479990e-06   1.234907e+01   1.127372e+01   2.976979e+01   1.890285e+06   2.662788e+04   1.824823e+06  -3.307530e+01  -2.554160e+02   3.798885e+01   2.627521e+06   1.127363e-36   0.000000e+00   0.000000e+00
      656000   6.559990e-06   1.250029e+01   1.127585e+01   2.991577e+01   1.890285e+06   2.662788e+04   1.824823e+06  -1.787083e+00  -3.566597e+02   7.055581e+00   2.627521e+06   2.116544e-36   0.000000e+00   0.000000e+00
      664000   6.639990e-06   1.265151e+01   1.127798e+01   3.006176e+01   1.890285e+06   2.662788e+04   1.824823e+06  -6.065191e+01  -2.625205e+02   6.665839e+01   2.627521e+06   1.281492e-36   0.000000e+00   0.000000e+00
      672000   6.719990e-06   1.280274e+01   1.128011e+01   3.020774e+01   1.890285e+06   2.662788e+04   1.824823e+06   5.862211e+00  -4.161522e+02   7.949331e-23   2.627521e+06   2.880911e-36   0.000000e+00   0.000000e+00
      680000   6.799990e-06   1.295396e+01   1.128224e+01   3.035373e+01   1.890285e+06   2.662787e+04   1.824823e+06   4.696052e+00  -3.333678e+02   7.390996e-20   2.627521e+06   1.848663e-36   0.000000e+00   0.000000e+00
      688000   6.879990e-06   1.310518e+01   1.128437e+01   3.049972e+01   1.890285e+06   2.662787e+04   1.824823e+06   5.477270e+00  -3.888256e+02   3.101171e-20   2.627521e+06   2.514878e-36   0.000000e+00   0.000000e+00
      696000   6.959990e-06   1.325640e+01   1.128650e+01   3.064570e+01   1.890285e+06   2.662787e+04   1.824823e+06   6.165796e+00  -4.377034e+02   3.954265e-20   2.627521e+06   3.186904e-36   0.000000e+00   0.000000e+00
      704000   7.039990e-06   1.340763e+01   1.128863e+01   3.079169e+01   1.890285e+06   2.662787e+04   1.824823e+06   6.053953e+00  -4.297638e+02   2.422908e-20   2.627521e+06   3.072355e-36   0.000000e+00   0.000000e+00
      712000   7.119990e-06   1.355885e+01   1.129076e+01   3.093767e+01   1.890285e+06   2.662787e+04   1.824823e+06   4.318360e+00  -3.065558e+02   3.717307e-20   2.627521e+06   1.563563e-36   0.000000e+00   0.000000e+00
      720000   7.199990e-06   1.371007e+01   1.129290e+01   3.108366e+01   1.890285e+06   2.662787e+04   1.824823e+06   5.428589e+00  -3.853698e+02   6.082357e-20   2.627521e+06   2.470602e-36   0.000000e+00   0.000000e+00
      728000   7.279990e-06   1.386130e+01   1.129503e+01   3.122965e+01   1.890285e+06   2.662787e+04   1.824823e+06   4.410647e+00  -3.131072e+02   2.684439e-20   2.627521e+06   1.630908e-36   0.000000e+00   0.000000e+00
      736000   7.359990e-06   1.401252e+01   1.129716e+01   3.137563e+01   1.890285e+06   2.662787e+04   1.824823e+06   6.219926e+00  -4.415460e+02  -2.806925e-20   2.627521e+06   3.243279e-36   0.000000e+00   0.000000e+00
      744000   7.439990e-06   1.416374e+01   1.129929e+01   3.152162e+01   1.890285e+06   2.662787e+04   1.824823e+06   6.839398e+00  -4.855216e+02   1.993784e-21   2.627521e+06   3.921205e-36   0.000000e+00   0.000000e+00
      752000   7.519990e-06   1.431496e+01   1.130142e+01   3.166760e+01   1.890285e+06   2.662787e+04   1.824823e+06   6.026305e+00  -4.278010e+02   5.863781e-20   2.627521e+06   3.044023e-36   0.000000e+00   0.000000e+00
      760000   7.599990e-06   1.446619e+01   1.130355e+01   3.181359e+01   1.890285e+06   2.662787e+04   1.824823e+06   5.978785e+00  -4.244277e+02   8.815687e-21   2.627521e+06   2.997030e-36   0.000000e+00   0.000000e+00
      768000   7.679990e-06   1.461741e+01   1.130568e+01   3.195957e+01   1.890285e+06   2.662787e+04   1.824823e+06   5.922210e+00  -4.204114e+02   2.174840e-20   2.627521e+06   2.939983e-36   0.000000e+00   0.000000e+00
      776000   7.759990e-06   1.476863e+01   1.130781e+01   3.210556e+01   1.890285e+06   2.662787e+04   1.824823e+06   6.205775e+00  -4.405415e+02   4.625461e-20   2.627521e+06   3.228660e-36   0.000000e+00   0.000000e+00
      784000   7.839990e-06   1.491985e+01   1.130994e+01   3.225155e+01   1.890285e+06   2.662787e+04   1.824823e+06   6.283477e+00  -4.460574e+02   3.467774e-20   2.627521e+06   3.309712e-36   0.000000e+00   0.000000e+00
      792000   7.919990e-06   1.507108e+01   1.131207e+01   3.239753e+01   1.890285e+06   2.662787e+04   1.824823e+06   6.112689e+00  -4.339334e+02   4.938462e-20   2.627521e+06   3.132371e-36   0.000000e+00   0.000000e+00
      800000   7.999990e-06   1.522230e+01   1.131420e+01   3.254352e+01   1.890285e+06   2.662787e+04   1.824823e+06   5.665944e+00  -4.022194e+02   8.462438e-20   2.627521e+06   2.691216e-36   0.000000e+00   0.000000e+00
      808000   8.079990e-06   1.537352e+01   1.131633e+01   3.268950e+01   1.890285e+06   2.662787e+04   1.824823e+06   5.599774e+00  -3.975221e+02   3.885746e-20   2.627521e+06   2.628961e-36   0.000000e+00   0.000000e+00
      816000   8.159990e-06   1.552475e+01   1.131846e+01   3.283549e+01   1.890285e+06   2.662787e+04   1.824823e+06   6.399844e+00  -4.543182e+02   4.454212e-20   2.627521e+06   3.433088e-36   0.000000e+00   0.000000e+00
      824000   8.239990e-06   1.567597e+01   1.132059e+01   3.298148e+01   1.890285e+06   2.662787e+04   1.824823e+06   5.575240e+00  -3.957804e+02   1.199281e-20   2.627521e+06   2.605920e-36   0.000000e+00   0.000000e+00
      832000   8.319990e-06   1.582719e+01   1.132272e+01   3.312746e+01   1.890285e+06   2.662787e+04   1.824823e+06   6.061195e+00  -4.302779e+02   5.377066e-20   2.627521e+06   3.079674e-36   0.000000e+00   0.000000e+00
      840000   8.399990e-06   1.597841e+01   1.132485e+01   3.327345e+01   1.890285e+06   2.662787e+04   1.824823e+06   4.728660e+00  -3.356826e+02   2.594721e-20   2.627521e+06   1.874739e-36   0.000000e+00   0.000000e+00
      848000   8.479990e-06   1.612964e+01   1.132698e+01   3.341943e+01   1.890285e+06   2.662787e+04   1.824823e+06   6.425085e+00  -4.561100e+02  -2.692425e-20   2.627521e+06   3.460378e-36   0.000000e+00   0.000000e+00
      856000   8.559990e-06   1.628086e+01   1.132911e+01   3.356542e+01   1.890285e+06   2.662787e+04   1.824823e+06   4.986529e+00  -3.539885e+02   6.363734e-20   2.627521e+06   2.084666e-36   0.000000e+00   0.000000e+00
      864000   8.639990e-06   1.643208e+01   1.133124e+01   3.371140e+01   1.890285e+06   2.662787e+04   1.824823e+06   5.947310e+00  -4.221933e+02   8.571210e-21   2.627521e+06   2.965247e-36   0.000000e+00   0.000000e+00
      872000   8.719990e-06   1.658331e+01   1.133337e+01   3.385739e+01   1.890285e+06   2.662787e+04   1.824823e+06   7.051671e+00  -5.005907e+02   2.754744e-20   2.627521e+06   4.168151e-36   0.000000e+00   0.000000e+00
      880000   8.799990e-06   1.673453e+01   1.133550e+01   3.400338e+01   1.890285e+06   2.662787e+04   1.824823e+06   4.927895e+00  -3.498261e+02   8.972736e-21   2.627521e+06   2.035757e-36   0.000000e+00   0.000000e+00
      888000   8.879990e-06   1.688575e+01   1.133763e+01   3.414936e+01   1.890285e+06   2.662787e+04   1.824823e+06   5.837417e+00  -4.143921e+02  -1.783700e-20   2.627521e+06   2.856575e-36   0.000000e+00   0.000000e+00
      896000   8.959990e-06   1.703697e+01   1.133976e+01   3.429535e+01   1.890285e+06   2.662787e+04   1.824823e+06   3.862854e+00  -2.742199e+02   1.697778e-20   2.627521e+06   1.251294e-36   0.000000e+00   0.000000e+00
      904000   9.039990e-06   1.718820e+01   1.134189e+01   3.444133e+01   1.890285e+06   2.662787e+04   1.824823e+06   4.621661e+00  -3.280868e+02  -1.799508e-20   2.627521e+06   1.790546e-36   0.000000e+00   0.000000e+00
      912000   9.119990e-06   1.733942e+01   1.134402e+01   3.458732e+01   1.890285e+06   2.662787e+04   1.824823e+06   4.006649e+00  -2.844278e+02  -1.426171e-20   2.627521e+06   1.345924e-36   0.000000e+00   0.000000e+00
      920000   9.199990e-06   1.749064e+01   1.134615e+01   3.473331e+01   1.890285e+06   2.662787e+04   1.824823e+06   4.450922e+00  -3.159663e+02   4.387606e-20   2.627521e+06   1.660710e-36   0.000000e+00   0.000000e+00
      928000   9.279990e-06   1.764186e+01   1.134828e+01   3.487929e+01   1.890285e+06   2.662787e+04   1.824823e+06   5.103427e+00  -3.622869e+02   2.766528e-20   2.627521e+06   2.183160e-36   0.000000e+00   0.000000e+00
      936000   9.359990e-06   1.779309e+01   1.135041e+01   3.502528e+01   1.890285e+06   2.662787e+04   1.824823e+06   3.195569e+00  -2.268501e+02   1.609745e-20   2.627521e+06   8.562072e-37   0.000000e+00   0.000000e+00
      944000   9.439990e-06   1.794431e+01   1.135254e+01   3.517126e+01   1.890285e+06   2.662787e+04   1.824823e+06   3.946193e+00  -2.801361e+02   6.099580e-21   2.627521e+06   1.305478e-36   0.000000e+00   0.000000e+00
      952000   9.519990e-06   1.809553e+01   1.135467e+01   3.531725e+01   1.890285e+06   2.662787e+04   1.824823e+06   3.192097e+00  -2.266037e+02   3.381096e-20   2.627521e+06   8.542288e-37   0.000000e+00   0.000000e+00
      960000   9.599990e-06   1.824676e+01   1.135680e+01   3.546323e+01   1.890285e+06   2.662787e+04   1.824823e+06   2.247886e+00  -1.595751e+02  -5.329213e-21   2.627521e+06   4.238400e-37   0.000000e+00   0.000000e+00
      968000   9.679990e-06   1.839798e+01   1.135893e+01   3.560922e+01   1.890285e+06   2.662787e+04   1.824823e+06   3.186086e+00  -2.261769e+02   1.818225e-20   2.627521e+06   8.508524e-37   0.000000e+00   0.000000e+00
      976000   9.759990e-06   1.854920e+01   1.136106e+01   3.575521e+01   1.890285e+06   2.662787e+04   1.824823e+06   1.467929e+00  -1.042067e+02   4.832938e-21   2.627521e+06   1.807029e-37   0.000000e+00   0.000000e+00
      984000   9.839990e-06   1.870042e+01   1.136319e+01   3.590119e+01   1.890285e+06   2.662787e+04   1.824823e+06   1.845945e+00  -1.310417e+02   6.988946e-21   2.627521e+06   2.856647e-37   0.000000e+00   0.000000e+00
      992000   9.919990e-06   1.885165e+01   1.136532e+01   3.604718e+01   1.890285e+06   2.662787e+04   1.824823e+06   1.891017e+00  -1.342413e+02   5.327498e-21   2.627521e+06   2.996553e-37   0.000000e+00   0.000000e+00
     1000000   9.999990e-06   1.900287e+01   1.136745e+01   3.619316e+01   1.890285e+06   2.662787e+04   1.824823e+06   8.467451e-01  -6.010955e+01   6.067089e-22   2.627521e+06   6.010224e-38   0.000000e+00   0.000000e+00
     1008000   1.007999e-05   1.915409e+01   1.136958e+01   3.633915e+01   1.890285e+06   2.662787e+04   1.824823e+06   7.733190e-01  -5.489710e+01   4.747853e-21   2.627521e+06   5.014166e-38   0.000000e+00   0.000000e+00
     1016000   1.015999e-05   1.930532e+01   1.137171e+01   3.648514e+01   1.890285e+06   2.662787e+04   1.824823e+06  -1.055696e-01   7.494272e+00  -6.393393e-22   2.627521e+06   9.301744e-40   0.000000e+00   0.000000e+00
     1024000   1.023999e-05   1.945654e+01   1.137384e+01   3.663112e+01   1.890285e+06   2.662787e+04   1.824823e+06  -8.373508e-01   5.944265e+01   6.546539e-21   2.627521e+06   5.876755e-38   0.000000e+00   0.000000e+00
     1032000   1.031999e-05   1.960776e+01   1.137597e+01   3.677711e+01   1.890285e+06   2.662787e+04   1.824823e+06  -2.872354e+00   2.039054e+02  -3.971553e-20   2.627521e+06   6.914260e-37   0.000000e+00   0.000000e+00
     1040000   1.039999e-05   1.975898e+01   1.137810e+01   3.692309e+01   1.890285e+06   2.662787e+04   1.824823e+06  -4.193339e-01   2.976808e+01  -8.820316e-22   2.627521e+06   1.476159e-38   0.000000e+00   0.000000e+00
     1048000   1.047999e-05   1.991021e+01   1.138023e+01   3.706908e+01   1.890285e+06   2.662787e+04   1.824823e+06  -2.838516e+00   2.015033e+02   3.379078e-20   2.627521e+06   6.754784e-37   0.000000e+00   0.000000e+00
     1056000   1.055999e-05   2.006143e+01   1.138236e+01   3.721506e+01   1.890285e+06   2.662787e+04   1.824823e+06  -2.411584e+00   1.711958e+02   2.023230e-20   2.627521e+06   4.874680e-37   0.000000e+00   0.000000e+00
     1064000   1.063999e-05   2.021265e+01   1.138449e+01   3.736105e+01   1.890285e+06   2.662787e+04   1.824823e+06  -3.030978e+00   2.151659e+02  -1.428860e-20   2.627521e+06   7.702680e-37   0.000000e+00   0.000000e+00
     1072000   1.071999e-05   2.036387e+01   1.138663e+01   3.750704e+01   1.890285e+06   2.662787e+04   1.824823e+06  -3.309752e+00   2.349558e+02  -1.708890e-20   2.627521e+06   9.181286e-37   0.000000e+00   0.000000e+00
     1080000   1.079999e-05   2.051510e+01   1.138876e+01   3.765302e+01   1.890285e+06   2.662787e+04   1.824823e+06  -3.590854e+00   2.549109e+02   1.717628e-20   2.627521e+06   1.081039e-36   0.000000e+00   0.000000e+00
     1088000   1.087999e-05   2.066632e+01   1.139089e+01   3.779901e+01   1.890285e+06   2.662787e+04   1.824823e+06  -5.827031e+00   4.136548e+02  -7.482192e-20   2.627521e+06   2.846402e-36   0.000000e+00   0.000000e+00
     1096000   1.095999e-05   2.081754e+01   1.139302e+01   3.794499e+01   1.890285e+06   2.662787e+04   1.824823e+06  -6.772783e+00   4.807928e+02  -2.732059e-21   2.627521e+06   3.845093e-36   0.000000e+00   0.000000e+00
     1104000   1.103999e-05   2.096877e+01   1.139515e+01   3.809098e+01   1.890285e+06   2.662787e+04   1.824823e+06  -5.501085e+00   3.905163e+02  -9.792733e-21   2.627521e+06   2.537283e-36   0.000000e+00   0.000000e+00
     1112000   1.111999e-05   2.111999e+01   1.139728e+01   3.823697e+01   1.890285e+06   2.662787e+04   1.824823e+06  -9.312285e+00   6.610693e+02  -9.330904e-21   2.627521e+06   7.268979e-36   0.000000e+00   0.000000e+00
     1120000   1.119999e-05   2.127121e+01   1.139941e+01   3.838295e+01   1.890285e+06   2.662787e+04   1.824823e+06  -7.925753e+00   5.626409e+02  -7.147110e-20   2.627521e+06   5.265876e-36   0.000000e+00   0.000000e+00
     1128000   1.127999e-05   2.142243e+01   1.140154e+01   3.852894e+01   1.890285e+06   2.662787e+04   1.824823e+06  -8.239239e+00   5.848949e+02  -1.009320e-19   2.627521e+06   5.690939e-36   0.000000e+00   0.000000e+00
     1136000   1.135999e-05   2.157366e+01   1.140367e+01   3.867492e+01   1.890285e+06   2.662787e+04   1.824823e+06  -8.963124e+00   6.362828e+02  -1.017013e-19   2.627521e+06   6.734827e-36   0.000000e+00   0.000000e+00
     1144000   1.143999e-05   2.172488e+01   1.140580e+01   3.882091e+01   1.890285e+06   2.662787e+04   1.824823e+06  -9.248867e+00   6.565674e+02  -2.292528e-20   2.627521e+06   7.171291e-36   0.000000e+00   0.000000e+00
     1152000   1.151999e-05   2.187610e+01   1.140793e+01   3.896689e+01   1.890285e+06   2.662787e+04   1.824823e+06  -1.155877e+01   8.205451e+02   1.340546e-20   2.627521e+06   1.119870e-35   0.000000e+00   0.000000e+00
     1160000   1.159999e-05   2.202733e+01   1.141006e+01   3.911288e+01   1.890285e+06   2.662787e+04   1.824823e+06  -1.161511e+01   8.245442e+02  -6.659300e-20   2.627521e+06   1.131087e-35   0.000000e+00   0.000000e+00
     1168000   1.167999e-05   2.217855e+01   1.141219e+01   3.925887e+01   1.890285e+06   2.662787e+04   1.824823e+06  -1.039182e+01   7.377045e+02  -3.286826e-20   2.627521e+06   9.053674e-36   0.000000e+00   0.000000e+00
     1176000   1.175999e-05   2.232977e+01   1.141432e+01   3.940485e+01   1.890285e+06   2.662787e+04   1.824823e+06  -1.204102e+01   8.547791e+02  -9.136617e-20   2.627521e+06   1.215385e-35   0.000000e+00   0.000000e+00
     1184000   1.183999e-05   2.248099e+01   1.141645e+01   3.955084e+01   1.890285e+06   2.662787e+04   1.824823e+06  -1.201451e+01   8.528973e+02  -3.374762e-20   2.627521e+06   1.210171e-35   0.000000e+00   0.000000e+00
     1192000   1.191999e-05   2.263222e+01   1.141858e+01   3.969682e+01   1.890285e+06   2.662787e+04   1.824823e+06  -1.365445e+01   9.693148e+02   4.933471e-20   2.627521e+06   1.562869e-35   0.000000e+00   0.000000e+00
     1200000   1.199999e-05   2.278344e+01   1.142071e+01   3.984281e+01   1.890285e+06   2.662787e+04   1.824823e+06  -1.329666e+01   9.439159e+02  -1.211905e-19   2.627521e+06   1.482184e-35   0.000000e+00   0.000000e+00
     1208000   1.207999e-05   2.293466e+01   1.142284e+01   3.998880e+01   1.890285e+06   2.662787e+04   1.824823e+06  -1.470279e+01   1.043735e+03  -1.475479e-20   2.627521e+06   1.812047e-35   0.000000e+00   0.000000e+00
     1216000   1.215999e-05   2.308588e+01   1.142497e+01   4.013478e+01   1.890285e+06   2.662787e+04   1.824823e+06  -1.350568e+01   9.587539e+02  -2.073157e-21   2.627521e+06   1.529328e-35   0.000000e+00   0.000000e+00
     1224000   1.223999e-05   2.323711e+01   1.142710e+01   4.028077e+01   1.890285e+06   2.662787e+04   1.824823e+06  -1.499925e+01   1.064781e+03  -1.017355e-19   2.627521e+06   1.885990e-35   0.000000e+00   0.000000e+00
     1232000   1.231999e-05   2.338833e+01   1.142923e+01   4.042675e+01   1.890285e+06   2.662788e+04   1.824823e+06  -1.643122e+01   1.166435e+03  -8.657799e-20   2.627521e+06   2.263389e-35   0.000000e+00   0.000000e+00
     1240000   1.239999e-05   2.353955e+01   1.143136e+01   4.057274e+01   1.890285e+06   2.662788e+04   1.824823e+06  -1.701875e+01   1.208143e+03   1.532446e-19   2.627521e+06   2.427907e-35   0.000000e+00   0.000000e+00
     1248000   1.247999e-05   2.369078e+01   1.143349e+01   4.071872e+01   1.890285e+06   2.662788e+04   1.824823e+06  -1.580717e+01   1.122134e+03   1.921196e-20   2.627521e+06   2.094758e-35   0.000000e+00   0.000000e+00
     1256000   1.255999e-05   2.384200e+01   1.143562e+01   4.086471e+01   1.890285e+06   2.662788e+04   1.824823e+06  -1.745194e+01   1.238895e+03  -7.996149e-20   2.627521e+06   2.553215e-35   0.000000e+00   0.000000e+00
     1264000   1.263999e-05   2.399322e+01   1.143775e+01   4.101070e+01   1.890285e+06   2.662788e+04   1.824823e+06  -1.706656e+01   1.211537e+03   6.138780e-20   2.627521e+06   2.441748e-35   0.000000e+00   0.000000e+00
     1272000   1.271999e-05   2.414444e+01   1.143988e+01   4.115668e+01   1.890285e+06   2.662788e+04   1.824823e+06  -1.764107e+01   1.252321e+03  -2.651061e-19   2.627521e+06   2.608840e-35   0.000000e+00   0.000000e+00
     1280000   1.279999e-05   2.429567e+01   1.144201e+01   4.130267e+01   1.890285e+06   2.662788e+04   1.824823e+06  -1.635609e+01   1.161102e+03  -2.027750e-19   2.627521e+06   2.242787e-35   0.000000e+00   0.000000e+00
     1288000   1.287999e-05   2.444689e+01   1.144414e+01   4.144865e+01   1.890285e+06   2.662788e+04   1.824823e+06  -1.852135e+01   1.314811e+03  -1.098913e-19   2.627521e+06   2.875680e-35   0.000000e+00   0.000000e+00
     1296000   1.295999e-05   2.459811e+01   1.144627e+01   4.159464e+01   1.890285e+06   2.662788e+04   1.824823e+06  -2.132832e+01   1.514075e+03   1.645687e-20   2.627521e+06   3.813172e-35   0.000000e+00   0.000000e+00
     1304000   1.303999e-05   2.474934e+01   1.144840e+01   4.174063e+01   1.890285e+06   2.662788e+04   1.824823e+06  -1.833861e+01   1.301838e+03  -9.240537e-20   2.627521e+06   2.819152e-35   0.000000e+00   0.000000e+00
     1312000   1.311999e-05   2.490056e+01   1.145053e+01   4.188661e+01   1.890285e+06   2.662788e+04   1.824823e+06  -1.774151e+01   1.259451e+03  -2.941162e-19   2.627521e+06   2.638751e-35   0.000000e+00   0.000000e+00
     1320000   1.319999e-05   2.505178e+01   1.145266e+01   4.203260e+01   1.890285e+06   2.662788e+04   1.824823e+06  -1.741708e+01   1.236420e+03   1.081303e-19   2.627521e+06   2.543089e-35   0.000000e+00   0.000000e+00
     1328000   1.327999e-05   2.520300e+01   1.145479e+01   4.217858e+01   1.890285e+06   2.662788e+04   1.824823e+06  -1.772192e+01   1.258060e+03  -1.216755e-19   2.627521e+06   2.633097e-35   0.000000e+00   0.000000e+00
     1336000   1.335999e-05   2.535423e+01   1.145692e+01   4.232457e+01   1.890285e+06   2.662788e+04   1.824823e+06  -1.791261e+01   1.271598e+03   2.044530e-20   2.627521e+06   2.689681e-35   0.000000e+00   0.000000e+00
     1344000   1.343999e-05   2.550545e+01   1.145905e+01   4.247055e+01   1.890285e+06   2.662788e+04   1.824823e+06  -1.764224e+01   1.252404e+03   8.315308e-20   2.627521e+06   2.609245e-35   0.000000e+00   0.000000e+00
     1352000   1.351999e-05   2.565667e+01   1.146118e+01   4.261654e+01   1.890285e+06   2.662788e+04   1.824823e+06  -1.654079e+01   1.174213e+03   8.643238e-20   2.627521e+06   2.293652e-35   0.000000e+00   0.000000e+00
     1360000   1.359999e-05   2.580790e+01   1.146331e+01   4.276253e+01   1.890285e+06   2.662788e+04   1.824823e+06  -1.747039e+01   1.240204e+03  -1.633490e-19   2.627521e+06   2.558651e-35   0.000000e+00   0.000000e+00
     1368000   1.367999e-05   2.595912e+01   1.146544e+01   4.290851e+01   1.890285e+06   2.662788e+04   1.824823e+06  -1.789693e+01   1.270484e+03  -1.057732e-19   2.627521e+06   2.685073e-35   0.000000e+00   0.000000e+00
     1376000   1.375999e-05   2.611034e+01   1.146757e+01   4.305450e+01   1.890285e+06   2.662788e+04   1.824823e+06  -1.557842e+01   1.105895e+03  -1.019195e-19   2.627521e+06   2.034554e-35   0.000000e+00   0.000000e+00
     1384000   1.383999e-05   2.626156e+01   1.146970e+01   4.320048e+01   1.890285e+06   2.662788e+04   1.824823e+06  -1.688834e+01   1.198885e+03   1.049858e-19   2.627521e+06   2.390963e-35   0.000000e+00   0.000000e+00
     1392000   1.391999e-05   2.641279e+01   1.147183e+01   4.334647e+01   1.890285e+06   2.662788e+04   1.824823e+06  -1.541286e+01   1.094142e+03  -4.109944e-21   2.627521e+06   1.991545e-35   0.000000e+00   0.000000e+00
     1400000   1.399999e-05   2.656401e+01   1.147396e+01   4.349246e+01   1.890285e+06   2.662788e+04   1.824823e+06  -1.475393e+01   1.047366e+03   1.050982e-19   2.627521e+06   1.824955e-35   0.000000e+00   0.000000e+00
     1408000   1.407999e-05   2.671523e+01   1.147609e+01   4.363844e+01   1.890285e+06   2.662788e+04   1.824823e+06  -1.443453e+01   1.024692e+03   5.162689e-20   2.627521e+06   1.746770e-35   0.000000e+00   0.000000e+00
     1416000   1.415999e-05   2.686645e+01   1.147823e+01   4.378443e+01   1.890285e+06   2.662788e+04   1.824823e+06  -1.134742e+01   8.055413e+02  -4.101913e-20   2.627521e+06   1.079650e-35   0.000000e+00   0.000000e+00
     1424000   1.423999e-05   2.701768e+01   1.148036e+01   4.393041e+01   1.890285e+06   2.662788e+04   1.824823e+06  -1.426396e+01   1.012584e+03   5.500476e-20   2.627521e+06   1.705747e-35   0.000000e+00   0.000000e+00
     1432000   1.431999e-05   2.716890e+01   1.148249e+01   4.407640e+01   1.890285e+06   2.662788e+04   1.824823e+06  -1.155883e+01   8.205490e+02  -2.509661e-20   2.627521e+06   1.120132e-35   0.000000e+00   0.000000e+00
     1440000   1.439999e-05   2.732012e+01   1.148462e+01   4.422238e+01   1.890285e+06   2.662788e+04   1.824823e+06  -1.267787e+01   8.999886e+02  -7.140642e-20   2.627521e+06   1.347519e-35   0.000000e+00   0.000000e+00
     1448000   1.447999e-05   2.747135e+01   1.148675e+01   4.436837e+01   1.890285e+06   2.662788e+04   1.824823e+06  -9.700972e+00   6.886617e+02  -1.395911e-19   2.627521e+06   7.890341e-36   0.000000e+00   0.000000e+00
     1456000   1.455999e-05   2.762257e+01   1.148888e+01   4.451436e+01   1.890285e+06   2.662788e+04   1.824823e+06  -1.191651e+01   8.459401e+02   8.301915e-20   2.627521e+06   1.190403e-35   0.000000e+00   0.000000e+00
     1464000   1.463999e-05   2.777379e+01   1.149101e+01   4.466034e+01   1.890285e+06   2.662788e+04   1.824823e+06  -8.885066e+00   6.307414e+02  -4.295505e-21   2.627521e+06   6.618786e-36   0.000000e+00   0.000000e+00
     1472000   1.471999e-05   2.792501e+01   1.149314e+01   4.480633e+01   1.890285e+06   2.662788e+04   1.824823e+06  -9.345994e+00   6.634622e+02  -5.548809e-20   2.627521e+06   7.323537e-36   0.000000e+00   0.000000e+00
     1480000   1.479999e-05   2.807624e+01   1.149527e+01   4.495231e+01   1.890285e+06   2.662788e+04   1.824823e+06  -1.232236e+01   8.747514e+02   1.494434e-19   2.627521e+06   1.272825e-35   0.000000e+00   0.000000e+00
     1488000   1.487999e-05   2.822746e+01   1.149740e+01   4.509830e+01   1.890285e+06   2.662788e+04   1.824823e+06  -7.188483e+00   5.103028e+02  -4.719586e-20   2.627521e+06   4.332030e-36   0.000000e+00   0.000000e+00
     1496000   1.495999e-05   2.837868e+01   1.149953e+01   4.524429e+01   1.890285e+06   2.662788e+04   1.824823e+06  -9.071039e+00   6.439435e+02  -2.779017e-20   2.627521e+06   6.898411e-36   0.000000e+00   0.000000e+00
     1504000   1.503999e-05   2.852991e+01   1.150166e+01   4.539027e+01   1.890285e+06   2.662788e+04   1.824823e+06  -7.842865e+00   5.567567e+02  -1.738067e-20   2.627521e+06   5.156646e-36   0.000000e+00   0.000000e+00
     1512000   1.511999e-05   2.868113e+01   1.150379e+01   4.553626e+01   1.890285e+06   2.662788e+04   1.824823e+06  -5.287096e+00   3.753253e+02  -2.279721e-20   2.627521e+06   2.343831e-36   0.000000e+00   0.000000e+00
     1520000   1.519999e-05   2.883235e+01   1.150592e+01   4.568224e+01   1.890285e+06   2.662788e+04   1.824823e+06  -6.873542e+00   4.879454e+02   9.209277e-21   2.627521e+06   3.960618e-36   0.000000e+00   0.000000e+00
     1528000   1.527999e-05   2.898357e+01   1.150805e+01   4.582823e+01   1.890285e+06   2.662788e+04   1.824823e+06  -5.600344e+00   3.975625e+02  -3.087849e-20   2.627521e+06   2.629363e-36   0.000000e+00   0.000000e+00
     1536000   1.535999e-05   2.913480e+01   1.151018e+01   4.597421e+01   1.890285e+06   2.662788e+04   1.824823e+06  -5.148826e+00   3.655097e+02   1.886201e-21   2.627521e+06   2.222437e-36   0.000000e+00   0.000000e+00
     1544000   1.543999e-05   2.928602e+01   1.151231e+01   4.612020e+01   1.890285e+06   2.662788e+04   1.824823e+06  -4.224636e+00   2.999025e+02  -1.574541e-20   2.627521e+06   1.496231e-36   0.000000e+00   0.000000e+00
     1552000   1.551999e-05   2.943724e+01   1.151444e+01   4.626619e+01   1.890285e+06   2.662788e+04   1.824823e+06  -3.555253e+00   2.523836e+02  -2.473996e-21   2.627521e+06   1.059833e-36   0.000000e+00   0.000000e+00
     1560000   1.559999e-05   2.958846e+01   1.151657e+01   4.641217e+01   1.890285e+06   2.662788e+04   1.824823e+06  -3.184132e+00   2.260382e+02  -2.277247e-20   2.627521e+06   8.499434e-37   0.000000e+00   0.000000e+00
     1568000   1.567999e-05   2.973969e+01   1.151870e+01   4.655816e+01   1.890285e+06   2.662788e+04   1.824823e+06  -2.380548e+00   1.689926e+02   1.733780e-20   2.627521e+06   4.750363e-37   0.000000e+00   0.000000e+00
     1576000   1.575999e-05   2.989091e+01   1.152083e+01   4.670414e+01   1.890285e+06   2.662788e+04   1.824823e+06  -1.200729e+00   8.523845e+01  -4.574454e-21   2.627521e+06   1.209718e-37   0.000000e+00   0.000000e+00
     1584000   1.583999e-05   3.004213e+01   1.152296e+01   4.685013e+01   1.890285e+06   2.662788e+04   1.824823e+06  -1.703194e+00   1.209080e+02  -1.147538e-20   2.627521e+06   2.432390e-37   0.000000e+00   0.000000e+00
     1592000   1.591999e-05   3.019336e+01   1.152509e+01   4.699612e+01   1.890285e+06   2.662788e+04   1.824823e+06  -1.596576e+00   1.133393e+02  -7.552504e-21   2.627521e+06   2.136187e-37   0.000000e+00   0.000000e+00
     1600000   1.599999e-05   3.034458e+01   1.152722e+01   4.714210e+01   1.890285e+06   2.662788e+04   1.824823e+06  -2.779491e-01   1.973131e+01  -2.334749e-22   2.627521e+06   6.493964e-39   0.000000e+00   0.000000e+00
     1608000   1.607999e-05   3.049580e+01   1.152935e+01   4.728809e+01   1.890285e+06   2.662788e+04   1.824823e+06  -1.825532e+00   1.295925e+02  -1.442596e-20   2.627521e+06   2.792226e-37   0.000000e+00   0.000000e+00
     1616000   1.615999e-05   3.064702e+01   1.153148e+01   4.743407e+01   1.890285e+06   2.662788e+04   1.824823e+06   9.029525e-01  -6.409964e+01   6.134682e-21   2.627521e+06   6.833918e-38   0.000000e+00   0.000000e+00
     1624000   1.623999e-05   3.079825e+01   1.153361e+01   4.758006e+01   1.890285e+06   2.662788e+04   1.824823e+06   1.308178e+00  -9.286618e+01  -1.289151e-20   2.627521e+06   1.434564e-37   0.000000e+00   0.000000e+00
     1632000   1.631999e-05   3.094947e+01   1.153574e+01   4.772604e+01   1.890285e+06   2.662788e+04   1.824823e+06   1.954070e+00  -1.387173e+02  -1.192790e-20   2.627521e+06   3.200882e-37   0.000000e+00   0.000000e+00
     1640000   1.639999e-05   3.110069e+01   1.153787e+01   4.787203e+01   1.890285e+06   2.662788e+04   1.824823e+06   9.992232e-01  -7.093380e+01   6.913783e-22   2.627521e+06   8.368363e-38   0.000000e+00   0.000000e+00
     1648000   1.647999e-05   3.125192e+01   1.154000e+01   4.801802e+01   1.890285e+06   2.662788e+04   1.824823e+06   2.479582e+00  -1.760229e+02   1.359772e-20   2.627521e+06   5.155031e-37   0.000000e+00   0.000000e+00
     1656000   1.655999e-05   3.140314e+01   1.154213e+01   4.816400e+01   1.890285e+06   2.662788e+04   1.824823e+06   2.756566e+00  -1.956857e+02   1.587402e-21   2.627521e+06   6.368639e-37   0.000000e+00   0.000000e+00
     1664000   1.663999e-05   3.155436e+01   1.154426e+01   4.830999e+01   1.890285e+06   2.662788e+04   1.824823e+06   2.388287e+00  -1.695420e+02   2.680800e-20   2.627521e+06   4.782245e-37   0.000000e+00   0.000000e+00
     1672000   1.671999e-05   3.170558e+01   1.154639e+01   4.845597e+01   1.890285e+06   2.662788e+04   1.824823e+06   3.856977e+00  -2.738027e+02   2.312564e-20   2.627521e+06   1.247110e-36   0.000000e+00   0.000000e+00
     1680000   1.679999e-05   3.185681e+01   1.154852e+01   4.860196e+01   1.890285e+06   2.662788e+04   1.824823e+06   3.711205e+00  -2.634545e+02  -2.490215e-20   2.627521e+06   1.154654e-36   0.000000e+00   0.000000e+00
     1688000   1.687999e-05   3.200803e+01   1.155065e+01   4.874795e+01   1.890285e+06   2.662788e+04   1.824823e+06   4.619110e+00  -3.279057e+02   2.549975e-20   2.627521e+06   1.788410e-36   0.000000e+00   0.000000e+00
     1696000   1.695999e-05   3.215925e+01   1.155278e+01   4.889393e+01   1.890285e+06   2.662788e+04   1.824823e+06   4.751627e+00  -3.373130e+02  -2.015355e-21   2.627521e+06   1.892618e-36   0.000000e+00   0.000000e+00
     1704000   1.703999e-05   3.231047e+01   1.155491e+01   4.903992e+01   1.890285e+06   2.662788e+04   1.824823e+06   5.097597e+00  -3.618730e+02   1.712465e-20   2.627521e+06   2.178471e-36   0.000000e+00   0.000000e+00
     1712000   1.711999e-05   3.246170e+01   1.155704e+01   4.918590e+01   1.890285e+06   2.662788e+04   1.824823e+06   4.765573e+00  -3.383029e+02  -2.259645e-20   2.627521e+06   1.903810e-36   0.000000e+00   0.000000e+00
     1720000   1.719999e-05   3.261292e+01   1.155917e+01   4.933189e+01   1.890285e+06   2.662788e+04   1.824823e+06   5.391956e+00  -3.827692e+02  -8.369591e-21   2.627521e+06   2.437182e-36   0.000000e+00   0.000000e+00
     1728000   1.727999e-05   3.276414e+01   1.156130e+01   4.947787e+01   1.890285e+06   2.662788e+04   1.824823e+06   5.314925e+00  -3.773009e+02  -1.863434e-20   2.627521e+06   2.368170e-36   0.000000e+00   0.000000e+00
     1736000   1.735999e-05   3.291537e+01   1.156343e+01   4.962386e+01   1.890287e+06   2.662933e+04   1.824820e+06   1.511915e+08   9.050847e+07  -1.579364e+08   2.627521e+06   9.301755e-25   0.000000e+00   0.000000e+00
     1744000   1.743999e-05   3.306659e+01   1.156557e+01   4.976984e+01   1.890321e+06   2.664949e+04   1.824785e+06   7.226091e+08   4.401937e+08  -7.549895e+08   2.627521e+06   2.138141e-23   0.000000e+00   0.000000e+00
     1752000   1.751999e-05   3.321782e+01   1.156770e+01   4.991583e+01   1.890345e+06   2.666481e+04   1.824760e+06   0.000000e+00   0.000000e+00   0.000000e+00   2.627521e+06   0.000000e+00   0.000000e+00   0.000000e+00
