     timestep     time              x             y              z              vx             vy             vz             ax             ay             az         v_magnitude      ELoss        Electronic      Nuclear
           0   0.000000e+00   1.000000e-01   1.819602e+01   9.761362e+00   1.625342e+06   1.711818e+06  -2.946520e+05   0.000000e+00   0.000000e+00   0.000000e+00   2.378840e+06   0.000000e+00   0.000000e+00   0.000000e+00
        8000   7.999000e-08   2.300274e-01   1.833297e+01   9.737790e+00   1.625342e+06   1.711818e+06  -2.946520e+05   0.000000e+00   0.000000e+00   0.000000e+00   2.378840e+06   0.000000e+00   0.000000e+00   0.000000e+00
       16000   1.599900e-07   3.600548e-01   1.846991e+01   9.714218e+00   1.625342e+06   1.711818e+06  -2.946520e+05   0.000000e+00   0.000000e+00   0.000000e+00   2.378840e+06   0.000000e+00   0.000000e+00   0.000000e+00
       24000   2.399900e-07   4.900821e-01   1.860686e+01   9.690646e+00   1.625342e+06   1.711818e+06  -2.946520e+05   0.000000e+00   0.000000e+00   0.000000e+00   2.378840e+06   0.000000e+00   0.000000e+00   0.000000e+00
       32000   3.199900e-07   6.201095e-01   1.874380e+01   9.667073e+00   1.625342e+06   1.711818e+06  -2.946520e+05   0.000000e+00   0.000000e+00   0.000000e+00   2.378840e+06   0.000000e+00   0.000000e+00   0.000000e+00
       40000   3.999900e-07   7.501369e-01   1.888075e+01   9.643501e+00   1.625342e+06   1.711818e+06  -2.946520e+05   0.000000e+00   0.000000e+00   0.000000e+00   2.378840e+06   0.000000e+00   0.000000e+00   0.000000e+00
       48000   4.799900e-07   8.801643e-01   1.901769e+01   9.619929e+00   1.625342e+06   1.711818e+06  -2.946520e+05   0.000000e+00   0.000000e+00   0.000000e+00   2.378840e+06   0.000000e+00   0.000000e+00   0.000000e+00
       56000   5.599900e-07   1.010192e+00   1.915464e+01   9.596357e+00   1.625342e+06   1.711818e+06  -2.946520e+05   0.000000e+00   0.000000e+00   0.000000e+00   2.378840e+06   0.000000e+00   0.000000e+00   0.000000e+00
       64000   6.399900e-07   1.140219e+00   1.929158e+01   9.572785e+00   1.625342e+06   1.711818e+06  -2.946520e+05   0.000000e+00   0.000000e+00   0.000000e+00   2.378840e+06   0.000000e+00   0.000000e+00   0.000000e+00
       72000   7.199900e-07   1.270246e+00   1.942853e+01   9.549213e+00   1.625342e+06   1.711818e+06  -2.946520e+05   0.000000e+00   0.000000e+00   0.000000e+00   2.378840e+06   0.000000e+00   0.000000e+00   0.000000e+00
       80000   7.999900e-07   1.400274e+00   1.956548e+01   9.525640e+00   1.625342e+06   1.711818e+06  -2.946520e+05   0.000000e+00   0.000000e+00   0.000000e+00   2.378840e+06   0.000000e+00   0.000000e+00   0.000000e+00
       88000   8.799900e-07   1.530301e+00   1.970242e+01   9.502068e+00   1.625342e+06   1.711818e+06  -2.946520e+05   0.000000e+00   0.000000e+00   0.000000e+00   2.378840e+06   0.000000e+00   0.000000e+00   0.000000e+00
       96000   9.599900e-07   1.660329e+00   1.983937e+01   9.478496e+00   1.625342e+06   1.711818e+06  -2.946520e+05   0.000000e+00   0.000000e+00   0.000000e+00   2.378840e+06   0.000000e+00   0.000000e+00   0.000000e+00
      104000   1.039990e-06   1.790356e+00   1.997631e+01   9.454924e+00   1.625342e+06   1.711818e+06  -2.946520e+05   0.000000e+00   0.000000e+00   0.000000e+00   2.378840e+06   0.000000e+00   0.000000e+00   0.000000e+00
      112000   1.119990e-06   1.920383e+00   2.011326e+01   9.431352e+00   1.625342e+06   1.711818e+06  -2.946520e+05   0.000000e+00   0.000000e+00   0.000000e+00   2.378840e+06   0.000000e+00   0.000000e+00   0.000000e+00
      120000   1.199990e-06   2.050411e+00   2.025020e+01   9.407780e+00   1.625342e+06   1.711818e+06  -2.946520e+05   0.000000e+00   0.000000e+00   0.000000e+00   2.378840e+06   0.000000e+00   0.000000e+00   0.000000e+00
      128000   1.279990e-06   2.180438e+00   2.038715e+01   9.384207e+00   1.625342e+06   1.711818e+06  -2.946520e+05   0.000000e+00   0.000000e+00   0.000000e+00   2.378840e+06   0.000000e+00   0.000000e+00   0.000000e+00
      136000   1.359990e-06   2.310465e+00   2.052409e+01   9.360635e+00   1.625342e+06   1.711818e+06  -2.946520e+05   0.000000e+00   0.000000e+00   0.000000e+00   2.378840e+06   0.000000e+00   0.000000e+00   0.000000e+00
      144000   1.439990e-06   2.440493e+00   2.066104e+01   9.337063e+00   1.625342e+06   1.711818e+06  -2.946520e+05   0.000000e+00   0.000000e+00   0.000000e+00   2.378840e+06   0.000000e+00   0.000000e+00   0.000000e+00
      152000   1.519990e-06   2.570520e+00   2.079798e+01   9.313491e+00   1.625342e+06   1.711818e+06  -2.946520e+05   0.000000e+00   0.000000e+00   0.000000e+00   2.378840e+06   0.000000e+00   0.000000e+00   0.000000e+00
      160000   1.599990e-06   2.700548e+00   2.093493e+01   9.289919e+00   1.625342e+06   1.711818e+06  -2.946520e+05   0.000000e+00   0.000000e+00   0.000000e+00   2.378840e+06   0.000000e+00   0.000000e+00   0.000000e+00
      168000   1.679990e-06   2.830575e+00   2.107188e+01   9.266347e+00   1.625342e+06   1.711818e+06  -2.946520e+05   0.000000e+00   0.000000e+00   0.000000e+00   2.378840e+06   0.000000e+00   0.000000e+00   0.000000e+00
      176000   1.759990e-06   2.960602e+00   2.120882e+01   9.242774e+00   1.625342e+06   1.711818e+06  -2.946520e+05   0.000000e+00   0.000000e+00   0.000000e+00   2.378840e+06   0.000000e+00   0.000000e+00   0.000000e+00
      184000   1.839990e-06   3.090630e+00   2.134577e+01   9.219202e+00   1.625342e+06   1.711818e+06  -2.946520e+05   0.000000e+00   0.000000e+00   0.000000e+00   2.378840e+06   0.000000e+00   0.000000e+00   0.000000e+00
      192000   1.919990e-06   3.220657e+00   2.148271e+01   9.195630e+00   1.625342e+06   1.711818e+06  -2.946520e+05   0.000000e+00   0.000000e+00   0.000000e+00   2.378840e+06   0.000000e+00   0.000000e+00   0.000000e+00
      200000   1.999990e-06   3.350685e+00   2.161966e+01   9.172058e+00   1.625342e+06   1.711818e+06  -2.946520e+05   0.000000e+00   0.000000e+00   0.000000e+00   2.378840e+06   0.000000e+00   0.000000e+00   0.000000e+00
      208000   2.079990e-06   3.480712e+00   2.175660e+01   9.148486e+00   1.625342e+06   1.711818e+06  -2.946520e+05   0.000000e+00   0.000000e+00   0.000000e+00   2.378840e+06   0.000000e+00   0.000000e+00   0.000000e+00
      216000   2.159990e-06   3.610739e+00   2.189355e+01   9.124914e+00   1.625342e+06   1.711818e+06  -2.946520e+05   0.000000e+00   0.000000e+00   0.000000e+00   2.378840e+06   0.000000e+00   0.000000e+00   0.000000e+00
      224000   2.239990e-06   3.740767e+00   2.203049e+01   9.101341e+00   1.625342e+06   1.711818e+06  -2.946520e+05   0.000000e+00   0.000000e+00   0.000000e+00   2.378840e+06   0.000000e+00   0.000000e+00   0.000000e+00
      232000   2.319990e-06   3.870794e+00   2.216744e+01   9.077769e+00   1.625342e+06   1.711818e+06  -2.946520e+05   0.000000e+00   0.000000e+00   0.000000e+00   2.378840e+06   0.000000e+00   0.000000e+00   0.000000e+00
      240000   2.399990e-06   4.000821e+00   2.230438e+01   9.054197e+00   1.625342e+06   1.711818e+06  -2.946520e+05   0.000000e+00   0.000000e+00   0.000000e+00   2.378840e+06   0.000000e+00   0.000000e+00   0.000000e+00
      248000   2.479990e-06   4.130849e+00   2.244133e+01   9.030625e+00   1.625342e+06   1.711818e+06  -2.946520e+05   0.000000e+00   0.000000e+00   0.000000e+00   2.378840e+06   0.000000e+00   0.000000e+00   0.000000e+00
      256000   2.559990e-06   4.260876e+00   2.257828e+01   9.007053e+00   1.625342e+06   1.711818e+06  -2.946520e+05   0.000000e+00   0.000000e+00   0.000000e+00   2.378840e+06   0.000000e+00   0.000000e+00   0.000000e+00
      264000   2.639990e-06   4.390904e+00   2.271522e+01   8.983481e+00   1.625342e+06   1.711818e+06  -2.946520e+05   0.000000e+00   0.000000e+00   0.000000e+00   2.378840e+06   0.000000e+00   0.000000e+00   0.000000e+00
      272000   2.719990e-06   4.520931e+00   2.285217e+01   8.959908e+00   1.625342e+06   1.711818e+06  -2.946520e+05   0.000000e+00   0.000000e+00   0.000000e+00   2.378840e+06   0.000000e+00   0.000000e+00   0.000000e+00
      280000   2.799990e-06   4.650958e+00   2.298911e+01   8.936336e+00   1.625342e+06   1.711818e+06  -2.946520e+05   0.000000e+00   0.000000e+00   0.000000e+00   2.378840e+06   0.000000e+00   0.000000e+00   0.000000e+00
      288000   2.879990e-06   4.780986e+00   2.312606e+01   8.912764e+00   1.625342e+06   1.711818e+06  -2.946520e+05   0.000000e+00   0.000000e+00   0.000000e+00   2.378840e+06   0.000000e+00   0.000000e+00   0.000000e+00
      296000   2.959990e-06   4.911013e+00   2.326300e+01   8.889192e+00   1.625342e+06   1.711818e+06  -2.946520e+05   0.000000e+00   0.000000e+00   0.000000e+00   2.378840e+06   0.000000e+00   0.000000e+00   0.000000e+00
      304000   3.039990e-06   5.041040e+00   2.339995e+01   8.865620e+00   1.625342e+06   1.711818e+06  -2.946520e+05   0.000000e+00   0.000000e+00   0.000000e+00   2.378840e+06   0.000000e+00   0.000000e+00   0.000000e+00
      312000   3.119990e-06   5.171068e+00   2.353689e+01   8.842048e+00   1.625342e+06   1.711818e+06  -2.946520e+05   0.000000e+00   0.000000e+00   0.000000e+00   2.378840e+06   0.000000e+00   0.000000e+00   0.000000e+00
      320000   3.199990e-06   5.301095e+00   2.367384e+01   8.818475e+00   1.625342e+06   1.711818e+06  -2.946520e+05   0.000000e+00   0.000000e+00   0.000000e+00   2.378840e+06   0.000000e+00   0.000000e+00   0.000000e+00
      328000   3.279990e-06   5.431123e+00   2.381078e+01   8.794903e+00   1.625342e+06   1.711818e+06  -2.946520e+05   0.000000e+00   0.000000e+00   0.000000e+00   2.378840e+06   0.000000e+00   0.000000e+00   0.000000e+00
      336000   3.359990e-06   5.561150e+00   2.394773e+01   8.771331e+00   1.625342e+06   1.711818e+06  -2.946520e+05   0.000000e+00   0.000000e+00   0.000000e+00   2.378840e+06   0.000000e+00   0.000000e+00   0.000000e+00
      344000   3.439990e-06   5.691177e+00   2.408468e+01   8.747759e+00   1.625342e+06   1.711818e+06  -2.946520e+05   0.000000e+00   0.000000e+00   0.000000e+00   2.378840e+06   0.000000e+00   0.000000e+00   0.000000e+00
      352000   3.519990e-06   5.821205e+00   2.422162e+01   8.724187e+00   1.625342e+06   1.711818e+06  -2.946520e+05   0.000000e+00   0.000000e+00   0.000000e+00   2.378840e+06   0.000000e+00   0.000000e+00   0.000000e+00
      360000   3.599990e-06   5.951232e+00   2.435857e+01   8.700615e+00   1.625342e+06   1.711818e+06  -2.946520e+05   0.000000e+00   0.000000e+00   0.000000e+00   2.378840e+06   0.000000e+00   0.000000e+00   0.000000e+00
      368000   3.679990e-06   6.081260e+00   2.449551e+01   8.677043e+00   1.625342e+06   1.711818e+06  -2.946520e+05   0.000000e+00   0.000000e+00   0.000000e+00   2.378840e+06   0.000000e+00   0.000000e+00   0.000000e+00
      376000   3.759990e-06   6.211287e+00   2.463246e+01   8.653470e+00   1.625342e+06   1.711818e+06  -2.946520e+05   0.000000e+00   0.000000e+00   0.000000e+00   2.378840e+06   0.000000e+00   0.000000e+00   0.000000e+00
      384000   3.839990e-06   6.341314e+00   2.476940e+01   8.629898e+00   1.625342e+06   1.711818e+06  -2.946520e+05   0.000000e+00   0.000000e+00   0.000000e+00   2.378840e+06   0.000000e+00   0.000000e+00   0.000000e+00
      392000   3.919990e-06   6.471342e+00   2.490635e+01   8.606326e+00   1.625342e+06   1.711818e+06  -2.946520e+05   0.000000e+00   0.000000e+00   0.000000e+00   2.378840e+06   0.000000e+00   0.000000e+00   0.000000e+00
      400000   3.999990e-06   6.601369e+00   2.504329e+01   8.582754e+00   1.625342e+06   1.711818e+06  -2.946520e+05   0.000000e+00   0.000000e+00   0.000000e+00   2.378840e+06   0.000000e+00   0.000000e+00   0.000000e+00
      408000   4.079990e-06   6.731396e+00   2.518024e+01   8.559182e+00   1.625342e+06   1.711818e+06  -2.946520e+05   0.000000e+00   0.000000e+00   0.000000e+00   2.378840e+06   0.000000e+00   0.000000e+00   0.000000e+00
      416000   4.159990e-06   6.861424e+00   2.531718e+01   8.535610e+00   1.625342e+06   1.711818e+06  -2.946520e+05   0.000000e+00   0.000000e+00   0.000000e+00   2.378840e+06   0.000000e+00   0.000000e+00   0.000000e+00
      424000   4.239990e-06   6.991451e+00   2.545413e+01   8.512037e+00   1.625342e+06   1.711818e+06  -2.946520e+05   0.000000e+00   0.000000e+00   0.000000e+00   2.378840e+06   0.000000e+00   0.000000e+00   0.000000e+00
      432000   4.319990e-06   7.121479e+00   2.559108e+01   8.488465e+00   1.625342e+06   1.711818e+06  -2.946520e+05   0.000000e+00   0.000000e+00   0.000000e+00   2.378840e+06   0.000000e+00   0.000000e+00   0.000000e+00
      440000   4.399990e-06   7.251506e+00   2.572802e+01   8.464893e+00   1.625342e+06   1.711818e+06  -2.946520e+05   0.000000e+00   0.000000e+00   0.000000e+00   2.378840e+06   0.000000e+00   0.000000e+00   0.000000e+00
      448000   4.479990e-06   7.381533e+00   2.586497e+01   8.441321e+00   1.625342e+06   1.711818e+06  -2.946520e+05   0.000000e+00   0.000000e+00   0.000000e+00   2.378840e+06   0.000000e+00   0.000000e+00   0.000000e+00
      456000   4.559990e-06   7.511561e+00   2.600191e+01   8.417749e+00   1.625342e+06   1.711818e+06  -2.946520e+05   0.000000e+00   0.000000e+00   0.000000e+00   2.378840e+06   0.000000e+00   0.000000e+00   0.000000e+00
      464000   4.639990e-06   7.641588e+00   2.613886e+01   8.394177e+00   1.625342e+06   1.711818e+06  -2.946520e+05   0.000000e+00   0.000000e+00   0.000000e+00   2.378840e+06   0.000000e+00   0.000000e+00   0.000000e+00
      472000   4.719990e-06   7.771615e+00   2.627580e+01   8.370604e+00   1.625342e+06   1.711818e+06  -2.946520e+05   0.000000e+00   0.000000e+00   0.000000e+00   2.378840e+06   0.000000e+00   0.000000e+00   0.000000e+00
      480000   4.799990e-06   7.901643e+00   2.641275e+01   8.347032e+00   1.625342e+06   1.711818e+06  -2.946520e+05   0.000000e+00   0.000000e+00   0.000000e+00   2.378840e+06   0.000000e+00   0.000000e+00   0.000000e+00
      488000   4.879990e-06   8.031670e+00   2.654969e+01   8.323460e+00   1.625342e+06   1.711818e+06  -2.946520e+05   0.000000e+00   0.000000e+00   0.000000e+00   2.378840e+06   0.000000e+00   0.000000e+00   0.000000e+00
      496000   4.959990e-06   8.161698e+00   2.668664e+01   8.299888e+00   1.625342e+06   1.711818e+06  -2.946520e+05   0.000000e+00   0.000000e+00   0.000000e+00   2.378840e+06   0.000000e+00   0.000000e+00   0.000000e+00
      504000   5.039990e-06   8.291725e+00   2.682358e+01   8.276316e+00   1.625342e+06   1.711818e+06  -2.946520e+05   0.000000e+00   0.000000e+00   0.000000e+00   2.378840e+06   0.000000e+00   0.000000e+00   0.000000e+00
      512000   5.119990e-06   8.421752e+00   2.696053e+01   8.252744e+00   1.625342e+06   1.711818e+06  -2.946520e+05   0.000000e+00   0.000000e+00   0.000000e+00   2.378840e+06   0.000000e+00   0.000000e+00   0.000000e+00
      520000   5.199990e-06   8.551780e+00   2.709748e+01   8.229171e+00   1.625342e+06   1.711818e+06  -2.946520e+05   0.000000e+00   0.000000e+00   0.000000e+00   2.378840e+06   0.000000e+00   0.000000e+00   0.000000e+00
      528000   5.279990e-06   8.681807e+00   2.723442e+01   8.205599e+00   1.625342e+06   1.711818e+06  -2.946520e+05   0.000000e+00   0.000000e+00   0.000000e+00   2.378840e+06   0.000000e+00   0.000000e+00   0.000000e+00
      536000   5.359990e-06   8.811835e+00   2.737137e+01   8.182027e+00   1.625342e+06   1.711818e+06  -2.946520e+05   0.000000e+00   0.000000e+00   0.000000e+00   2.378840e+06   0.000000e+00   0.000000e+00   0.000000e+00
      544000   5.439990e-06   8.941862e+00   2.750831e+01   8.158455e+00   1.625342e+06   1.711818e+06  -2.946520e+05   0.000000e+00   0.000000e+00   0.000000e+00   2.378840e+06   0.000000e+00   0.000000e+00   0.000000e+00
      552000   5.519990e-06   9.071889e+00   2.764526e+01   8.134883e+00   1.625342e+06   1.711818e+06  -2.946520e+05   0.000000e+00   0.000000e+00   0.000000e+00   2.378840e+06   0.000000e+00   0.000000e+00   0.000000e+00
      560000   5.599990e-06   9.201917e+00   2.778220e+01   8.111311e+00   1.625342e+06   1.711818e+06  -2.946520e+05   0.000000e+00   0.000000e+00   0.000000e+00   2.378840e+06   0.000000e+00   0.000000e+00   0.000000e+00
      568000   5.679990e-06   9.331944e+00   2.791915e+01   8.087738e+00   1.625342e+06   1.711818e+06  -2.946520e+05   0.000000e+00   0.000000e+00   0.000000e+00   2.378840e+06   0.000000e+00   0.000000e+00   0.000000e+00
      576000   5.759990e-06   9.461971e+00   2.805609e+01   8.064166e+00   1.625342e+06   1.711818e+06  -2.946520e+05   0.000000e+00   0.000000e+00   0.000000e+00   2.378840e+06   0.000000e+00   0.000000e+00   0.000000e+00
      584000   5.839990e-06   9.591999e+00   2.819304e+01   8.040594e+00   1.625342e+06   1.711818e+06  -2.946520e+05   0.000000e+00   0.000000e+00   0.000000e+00   2.378840e+06   0.000000e+00   0.000000e+00   0.000000e+00
      592000   5.919990e-06   9.722026e+00   2.832998e+01   8.017022e+00   1.625342e+06   1.711818e+06  -2.946520e+05   0.000000e+00   0.000000e+00   0.000000e+00   2.378840e+06   0.000000e+00   0.000000e+00   0.000000e+00
      600000   5.999990e-06   9.852054e+00   2.846693e+01   7.993450e+00   1.625342e+06   1.711818e+06  -2.946520e+05   0.000000e+00   0.000000e+00   0.000000e+00   2.378840e+06   0.000000e+00   0.000000e+00   0.000000e+00
      608000   6.079990e-06   9.982081e+00   2.860388e+01   7.969878e+00   1.625342e+06   1.711818e+06  -2.946520e+05   0.000000e+00   0.000000e+00   0.000000e+00   2.378840e+06   0.000000e+00   0.000000e+00   0.000000e+00
      616000   6.159990e-06   1.011211e+01   2.874082e+01   7.946305e+00   1.625342e+06   1.711818e+06  -2.946520e+05   0.000000e+00   0.000000e+00   0.000000e+00   2.378840e+06   0.000000e+00   0.000000e+00   0.000000e+00
      624000   6.239990e-06   1.024214e+01   2.887777e+01   7.922733e+00   1.625342e+06   1.711818e+06  -2.946520e+05   0.000000e+00   0.000000e+00   0.000000e+00   2.378840e+06   0.000000e+00   0.000000e+00   0.000000e+00
      632000   6.319990e-06   1.037216e+01   2.901471e+01   7.899161e+00   1.625342e+06   1.711818e+06  -2.946520e+05   0.000000e+00   0.000000e+00   0.000000e+00   2.378840e+06   0.000000e+00   0.000000e+00   0.000000e+00
      640000   6.399990e-06   1.050219e+01   2.915166e+01   7.875589e+00   1.625342e+06   1.711818e+06  -2.946520e+05   0.000000e+00   0.000000e+00   0.000000e+00   2.378840e+06   0.000000e+00   0.000000e+00   0.000000e+00
      648000   6.479990e-06   1.063222e+01   2.928860e+01   7.852017e+00   1.625342e+06   1.711818e+06  -2.946520e+05   0.000000e+00   0.000000e+00   0.000000e+00   2.378840e+06   0.000000e+00   0.000000e+00   0.000000e+00
      656000   6.559990e-06   1.076225e+01   2.942555e+01   7.828445e+00   1.625342e+06   1.711818e+06  -2.946520e+05   0.000000e+00   0.000000e+00   0.000000e+00   2.378840e+06   0.000000e+00   0.000000e+00   0.000000e+00
      664000   6.639990e-06   1.089227e+01   2.956249e+01   7.804872e+00   1.625342e+06   1.711818e+06  -2.946520e+05   0.000000e+00   0.000000e+00   0.000000e+00   2.378840e+06   0.000000e+00   0.000000e+00   0.000000e+00
      672000   6.719990e-06   1.102230e+01   2.969944e+01   7.781300e+00   1.625342e+06   1.711818e+06  -2.946520e+05   0.000000e+00   0.000000e+00   0.000000e+00   2.378840e+06   0.000000e+00   0.000000e+00   0.000000e+00
      680000   6.799990e-06   1.115233e+01   2.983638e+01   7.757728e+00   1.625342e+06   1.711818e+06  -2.946520e+05   0.000000e+00   0.000000e+00   0.000000e+00   2.378840e+06   0.000000e+00   0.000000e+00   0.000000e+00
      688000   6.879990e-06   1.128235e+01   2.997333e+01   7.734156e+00   1.625342e+06   1.711818e+06  -2.946520e+05   0.000000e+00   0.000000e+00   0.000000e+00   2.378840e+06   0.000000e+00   0.000000e+00   0.000000e+00
      696000   6.959990e-06   1.141238e+01   3.011027e+01   7.710584e+00   1.625342e+06   1.711818e+06  -2.946520e+05   0.000000e+00   0.000000e+00   0.000000e+00   2.378840e+06   0.000000e+00   0.000000e+00   0.000000e+00
      704000   7.039990e-06   1.154241e+01   3.024722e+01   7.687012e+00   1.625342e+06   1.711818e+06  -2.946520e+05   0.000000e+00   0.000000e+00   0.000000e+00   2.378840e+06   0.000000e+00   0.000000e+00   0.000000e+00
      712000   7.119990e-06   1.167244e+01   3.038417e+01   7.663440e+00   1.625342e+06   1.711818e+06  -2.946520e+05   0.000000e+00   0.000000e+00   0.000000e+00   2.378840e+06   0.000000e+00   0.000000e+00   0.000000e+00
      720000   7.199990e-06   1.180246e+01   3.052111e+01   7.639867e+00   1.625342e+06   1.711818e+06  -2.946520e+05   0.000000e+00   0.000000e+00   0.000000e+00   2.378840e+06   0.000000e+00   0.000000e+00   0.000000e+00
      728000   7.279990e-06   1.193249e+01   3.065806e+01   7.616295e+00   1.625342e+06   1.711818e+06  -2.946520e+05   0.000000e+00   0.000000e+00   0.000000e+00   2.378840e+06   0.000000e+00   0.000000e+00   0.000000e+00
      736000   7.359990e-06   1.206252e+01   3.079500e+01   7.592723e+00   1.625342e+06   1.711818e+06  -2.946520e+05   0.000000e+00   0.000000e+00   0.000000e+00   2.378840e+06   0.000000e+00   0.000000e+00   0.000000e+00
      744000   7.439990e-06   1.219255e+01   3.093195e+01   7.569151e+00   1.625342e+06   1.711818e+06  -2.946520e+05   0.000000e+00   0.000000e+00   0.000000e+00   2.378840e+06   0.000000e+00   0.000000e+00   0.000000e+00
      752000   7.519990e-06   1.232257e+01   3.106889e+01   7.545579e+00   1.625342e+06   1.711818e+06  -2.946520e+05   0.000000e+00   0.000000e+00   0.000000e+00   2.378840e+06   0.000000e+00   0.000000e+00   0.000000e+00
      760000   7.599990e-06   1.245260e+01   3.120584e+01   7.522007e+00   1.625342e+06   1.711818e+06  -2.946520e+05   0.000000e+00   0.000000e+00   0.000000e+00   2.378840e+06   0.000000e+00   0.000000e+00   0.000000e+00
      768000   7.679990e-06   1.258263e+01   3.134278e+01   7.498434e+00   1.625342e+06   1.711818e+06  -2.946520e+05   0.000000e+00   0.000000e+00   0.000000e+00   2.378840e+06   0.000000e+00   0.000000e+00   0.000000e+00
      776000   7.759990e-06   1.271266e+01   3.147973e+01   7.474862e+00   1.625342e+06   1.711818e+06  -2.946520e+05   0.000000e+00   0.000000e+00   0.000000e+00   2.378840e+06   0.000000e+00   0.000000e+00   0.000000e+00
      784000   7.839990e-06   1.284268e+01   3.161667e+01   7.451290e+00   1.625342e+06   1.711818e+06  -2.946520e+05   0.000000e+00   0.000000e+00   0.000000e+00   2.378840e+06   0.000000e+00   0.000000e+00   0.000000e+00
      792000   7.919990e-06   1.297271e+01   3.175362e+01   7.427718e+00   1.625342e+06   1.711818e+06  -2.946520e+05   0.000000e+00   0.000000e+00   0.000000e+00   2.378840e+06   0.000000e+00   0.000000e+00   0.000000e+00
      800000   7.999990e-06   1.310274e+01   3.189057e+01   7.404146e+00   1.625342e+06   1.711818e+06  -2.946520e+05   0.000000e+00   0.000000e+00   0.000000e+00   2.378840e+06   0.000000e+00   0.000000e+00   0.000000e+00
      808000   8.079990e-06   1.323277e+01   3.202751e+01   7.380574e+00   1.625342e+06   1.711818e+06  -2.946520e+05   0.000000e+00   0.000000e+00   0.000000e+00   2.378840e+06   0.000000e+00   0.000000e+00   0.000000e+00
      816000   8.159990e-06   1.336279e+01   3.216446e+01   7.357001e+00   1.625342e+06   1.711818e+06  -2.946520e+05   0.000000e+00   0.000000e+00   0.000000e+00   2.378840e+06   0.000000e+00   0.000000e+00   0.000000e+00
      824000   8.239990e-06   1.349282e+01   3.230140e+01   7.333429e+00   1.625342e+06   1.711818e+06  -2.946520e+05   0.000000e+00   0.000000e+00   0.000000e+00   2.378840e+06   0.000000e+00   0.000000e+00   0.000000e+00
      832000   8.319990e-06   1.362285e+01   3.243835e+01   7.309857e+00   1.625342e+06   1.711818e+06  -2.946520e+05   0.000000e+00   0.000000e+00   0.000000e+00   2.378840e+06   0.000000e+00   0.000000e+00   0.000000e+00
      840000   8.399990e-06   1.375288e+01   3.257529e+01   7.286285e+00   1.625342e+06   1.711818e+06  -2.946520e+05   0.000000e+00   0.000000e+00   0.000000e+00   2.378840e+06   0.000000e+00   0.000000e+00   0.000000e+00
      848000   8.479990e-06   1.388290e+01   3.271224e+01   7.262713e+00   1.625342e+06   1.711818e+06  -2.946520e+05   0.000000e+00   0.000000e+00   0.000000e+00   2.378840e+06   0.000000e+00   0.000000e+00   0.000000e+00
      856000   8.559990e-06   1.401293e+01   3.284918e+01   7.239141e+00   1.625342e+06   1.711818e+06  -2.946520e+05   0.000000e+00   0.000000e+00   0.000000e+00   2.378840e+06   0.000000e+00   0.000000e+00   0.000000e+00
      864000   8.639990e-06   1.414296e+01   3.298613e+01   7.215568e+00   1.625342e+06   1.711818e+06  -2.946520e+05   0.000000e+00   0.000000e+00   0.000000e+00   2.378840e+06   0.000000e+00   0.000000e+00   0.000000e+00
      872000   8.719990e-06   1.427298e+01   3.312307e+01   7.191996e+00   1.625342e+06   1.711818e+06  -2.946520e+05   0.000000e+00   0.000000e+00   0.000000e+00   2.378840e+06   0.000000e+00   0.000000e+00   0.000000e+00
      880000   8.799990e-06   1.440301e+01   3.326002e+01   7.168424e+00   1.625342e+06   1.711818e+06  -2.946520e+05   0.000000e+00   0.000000e+00   0.000000e+00   2.378840e+06   0.000000e+00   0.000000e+00   0.000000e+00
      888000   8.879990e-06   1.453304e+01   3.339697e+01   7.144852e+00   1.625342e+06   1.711818e+06  -2.946520e+05   0.000000e+00   0.000000e+00   0.000000e+00   2.378840e+06   0.000000e+00   0.000000e+00   0.000000e+00
      896000   8.959990e-06   1.466307e+01   3.353391e+01   7.121280e+00   1.625342e+06   1.711818e+06  -2.946520e+05   0.000000e+00   0.000000e+00   0.000000e+00   2.378840e+06   0.000000e+00   0.000000e+00   0.000000e+00
      904000   9.039990e-06   1.479309e+01   3.367086e+01   7.097708e+00   1.625342e+06   1.711818e+06  -2.946520e+05   0.000000e+00   0.000000e+00   0.000000e+00   2.378840e+06   0.000000e+00   0.000000e+00   0.000000e+00
      912000   9.119990e-06   1.492312e+01   3.380780e+01   7.074135e+00   1.625342e+06   1.711818e+06  -2.946520e+05   0.000000e+00   0.000000e+00   0.000000e+00   2.378840e+06   0.000000e+00   0.000000e+00   0.000000e+00
      920000   9.199990e-06   1.505315e+01   3.394475e+01   7.050563e+00   1.625342e+06   1.711818e+06  -2.946520e+05   0.000000e+00   0.000000e+00   0.000000e+00   2.378840e+06   0.000000e+00   0.000000e+00   0.000000e+00
      928000   9.279990e-06   1.518318e+01   3.408169e+01   7.026991e+00   1.625342e+06   1.711818e+06  -2.946520e+05   0.000000e+00   0.000000e+00   0.000000e+00   2.378840e+06   0.000000e+00   0.000000e+00   0.000000e+00
      936000   9.359990e-06   1.531320e+01   3.421864e+01   7.003419e+00   1.625342e+06   1.711818e+06  -2.946520e+05   0.000000e+00   0.000000e+00   0.000000e+00   2.378840e+06   0.000000e+00   0.000000e+00   0.000000e+00
      944000   9.439990e-06   1.544323e+01   3.435558e+01   6.979847e+00   1.625342e+06   1.711818e+06  -2.946520e+05   0.000000e+00   0.000000e+00   0.000000e+00   2.378840e+06   0.000000e+00   0.000000e+00   0.000000e+00
      952000   9.519990e-06   1.557326e+01   3.449253e+01   6.956275e+00   1.625342e+06   1.711818e+06  -2.946520e+05   0.000000e+00   0.000000e+00   0.000000e+00   2.378840e+06   0.000000e+00   0.000000e+00   0.000000e+00
      960000   9.599990e-06   1.570329e+01   3.462947e+01   6.932702e+00   1.625342e+06   1.711818e+06  -2.946520e+05   0.000000e+00   0.000000e+00   0.000000e+00   2.378840e+06   0.000000e+00   0.000000e+00   0.000000e+00
      968000   9.679990e-06   1.583331e+01   3.476642e+01   6.909130e+00   1.625342e+06   1.711818e+06  -2.946520e+05   0.000000e+00   0.000000e+00   0.000000e+00   2.378840e+06   0.000000e+00   0.000000e+00   0.000000e+00
      976000   9.759990e-06   1.596334e+01   3.490337e+01   6.885558e+00   1.625342e+06   1.711818e+06  -2.946520e+05   0.000000e+00   0.000000e+00   0.000000e+00   2.378840e+06   0.000000e+00   0.000000e+00   0.000000e+00
      984000   9.839990e-06   1.609337e+01   3.504031e+01   6.861986e+00   1.625342e+06   1.711818e+06  -2.946520e+05   0.000000e+00   0.000000e+00   0.000000e+00   2.378840e+06   0.000000e+00   0.000000e+00   0.000000e+00
      992000   9.919990e-06   1.622340e+01   3.517726e+01   6.838414e+00   1.625342e+06   1.711818e+06  -2.946520e+05   0.000000e+00   0.000000e+00   0.000000e+00   2.378840e+06   0.000000e+00   0.000000e+00   0.000000e+00
     1000000   9.999990e-06   1.635342e+01   3.531420e+01   6.814842e+00   1.625342e+06   1.711818e+06  -2.946520e+05   0.000000e+00   0.000000e+00   0.000000e+00   2.378840e+06   0.000000e+00   0.000000e+00   0.000000e+00
     1008000   1.007999e-05   1.648345e+01   3.545115e+01   6.791270e+00   1.625342e+06   1.711818e+06  -2.946520e+05   0.000000e+00   0.000000e+00   0.000000e+00   2.378840e+06   0.000000e+00   0.000000e+00   0.000000e+00
     1016000   1.015999e-05   1.661348e+01   3.558809e+01   6.767697e+00   1.625342e+06   1.711818e+06  -2.946520e+05   0.000000e+00   0.000000e+00   0.000000e+00   2.378840e+06   0.000000e+00   0.000000e+00   0.000000e+00
     1024000   1.023999e-05   1.674350e+01   3.572504e+01   6.744125e+00   1.625342e+06   1.711818e+06  -2.946520e+05   0.000000e+00   0.000000e+00   0.000000e+00   2.378840e+06   0.000000e+00   0.000000e+00   0.000000e+00
     1032000   1.031999e-05   1.687353e+01   3.586198e+01   6.720553e+00   1.625342e+06   1.711818e+06  -2.946520e+05   0.000000e+00   0.000000e+00   0.000000e+00   2.378840e+06   0.000000e+00   0.000000e+00   0.000000e+00
     1040000   1.039999e-05   1.700356e+01   3.599893e+01   6.696981e+00   1.625342e+06   1.711818e+06  -2.946520e+05   0.000000e+00   0.000000e+00   0.000000e+00   2.378840e+06   0.000000e+00   0.000000e+00   0.000000e+00
     1048000   1.047999e-05   1.713359e+01   3.613587e+01   6.673409e+00   1.625342e+06   1.711818e+06  -2.946520e+05   0.000000e+00   0.000000e+00   0.000000e+00   2.378840e+06   0.000000e+00   0.000000e+00   0.000000e+00
     1056000   1.055999e-05   1.726361e+01   3.627282e+01   6.649837e+00   1.625342e+06   1.711818e+06  -2.946520e+05   0.000000e+00   0.000000e+00   0.000000e+00   2.378840e+06   0.000000e+00   0.000000e+00   0.000000e+00
     1064000   1.063999e-05   1.739364e+01   3.640977e+01   6.626264e+00   1.625342e+06   1.711818e+06  -2.946520e+05   0.000000e+00   0.000000e+00   0.000000e+00   2.378840e+06   0.000000e+00   0.000000e+00   0.000000e+00
     1072000   1.071999e-05   1.752367e+01   3.654671e+01   6.602692e+00   1.625342e+06   1.711818e+06  -2.946520e+05   0.000000e+00   0.000000e+00   0.000000e+00   2.378840e+06   0.000000e+00   0.000000e+00   0.000000e+00
     1080000   1.079999e-05   1.765370e+01   3.668366e+01   6.579120e+00   1.625342e+06   1.711818e+06  -2.946520e+05   0.000000e+00   0.000000e+00   0.000000e+00   2.378840e+06   0.000000e+00   0.000000e+00   0.000000e+00
     1088000   1.087999e-05   1.778372e+01   3.682060e+01   6.555548e+00   1.625342e+06   1.711818e+06  -2.946520e+05   0.000000e+00   0.000000e+00   0.000000e+00   2.378840e+06   0.000000e+00   0.000000e+00   0.000000e+00
     1096000   1.095999e-05   1.791375e+01   3.695755e+01   6.531976e+00   1.625342e+06   1.711818e+06  -2.946520e+05   0.000000e+00   0.000000e+00   0.000000e+00   2.378840e+06   0.000000e+00   0.000000e+00   0.000000e+00
     1104000   1.103999e-05   1.804378e+01   3.709449e+01   6.508404e+00   1.625342e+06   1.711818e+06  -2.946520e+05   0.000000e+00   0.000000e+00   0.000000e+00   2.378840e+06   0.000000e+00   0.000000e+00   0.000000e+00
     1112000   1.111999e-05   1.817381e+01   3.723144e+01   6.484831e+00   1.625342e+06   1.711818e+06  -2.946520e+05   0.000000e+00   0.000000e+00   0.000000e+00   2.378840e+06   0.000000e+00   0.000000e+00   0.000000e+00
     1120000   1.119999e-05   1.830383e+01   3.736838e+01   6.461259e+00   1.625342e+06   1.711818e+06  -2.946520e+05   0.000000e+00   0.000000e+00   0.000000e+00   2.378840e+06   0.000000e+00   0.000000e+00   0.000000e+00
     1128000   1.127999e-05   1.843386e+01   3.750533e+01   6.437687e+00   1.625342e+06   1.711818e+06  -2.946520e+05   0.000000e+00   0.000000e+00   0.000000e+00   2.378840e+06   0.000000e+00   0.000000e+00   0.000000e+00
     1136000   1.135999e-05   1.856389e+01   3.764227e+01   6.414115e+00   1.625342e+06   1.711818e+06  -2.946520e+05   0.000000e+00   0.000000e+00   0.000000e+00   2.378840e+06   0.000000e+00   0.000000e+00   0.000000e+00
     1144000   1.143999e-05   1.869392e+01   3.777922e+01   6.390543e+00   1.625342e+06   1.711818e+06  -2.946520e+05   0.000000e+00   0.000000e+00   0.000000e+00   2.378840e+06   0.000000e+00   0.000000e+00   0.000000e+00
     1152000   1.151999e-05   1.882394e+01   3.791617e+01   6.366971e+00   1.625342e+06   1.711818e+06  -2.946520e+05   0.000000e+00   0.000000e+00   0.000000e+00   2.378840e+06   0.000000e+00   0.000000e+00   0.000000e+00
     1160000   1.159999e-05   1.895397e+01   3.805311e+01   6.343398e+00   1.625342e+06   1.711818e+06  -2.946520e+05   0.000000e+00   0.000000e+00   0.000000e+00   2.378840e+06   0.000000e+00   0.000000e+00   0.000000e+00
     1168000   1.167999e-05   1.908400e+01   3.819006e+01   6.319826e+00   1.625342e+06   1.711818e+06  -2.946520e+05   0.000000e+00   0.000000e+00   0.000000e+00   2.378840e+06   0.000000e+00   0.000000e+00   0.000000e+00
     1176000   1.175999e-05   1.921403e+01   3.832700e+01   6.296254e+00   1.625342e+06   1.711818e+06  -2.946520e+05   0.000000e+00   0.000000e+00   0.000000e+00   2.378840e+06   0.000000e+00   0.000000e+00   0.000000e+00
     1184000   1.183999e-05   1.934405e+01   3.846395e+01   6.272682e+00   1.625342e+06   1.711818e+06  -2.946520e+05   0.000000e+00   0.000000e+00   0.000000e+00   2.378840e+06   0.000000e+00   0.000000e+00   0.000000e+00
     1192000   1.191999e-05   1.947408e+01   3.860089e+01   6.249110e+00   1.625342e+06   1.711818e+06  -2.946520e+05   0.000000e+00   0.000000e+00   0.000000e+00   2.378840e+06   0.000000e+00   0.000000e+00   0.000000e+00
     1200000   1.199999e-05   1.960411e+01   3.873784e+01   6.225538e+00   1.625342e+06   1.711818e+06  -2.946520e+05   0.000000e+00   0.000000e+00   0.000000e+00   2.378840e+06   0.000000e+00   0.000000e+00   0.000000e+00
     1208000   1.207999e-05   1.973413e+01   3.887478e+01   6.201965e+00   1.625342e+06   1.711818e+06  -2.946520e+05   0.000000e+00   0.000000e+00   0.000000e+00   2.378840e+06   0.000000e+00   0.000000e+00   0.000000e+00
     1216000   1.215999e-05   1.986416e+01   3.901173e+01   6.178393e+00   1.625342e+06   1.711818e+06  -2.946520e+05   0.000000e+00   0.000000e+00   0.000000e+00   2.378840e+06   0.000000e+00   0.000000e+00   0.000000e+00
     1224000   1.223999e-05   1.999419e+01   3.914867e+01   6.154821e+00   1.625342e+06   1.711818e+06  -2.946520e+05   0.000000e+00   0.000000e+00   0.000000e+00   2.378840e+06   0.000000e+00   0.000000e+00   0.000000e+00
     1232000   1.231999e-05   2.012422e+01   3.928562e+01   6.131249e+00   1.625342e+06   1.711818e+06  -2.946520e+05   0.000000e+00   0.000000e+00   0.000000e+00   2.378840e+06   0.000000e+00   0.000000e+00   0.000000e+00
     1240000   1.239999e-05   2.025424e+01   3.942257e+01   6.107677e+00   1.625342e+06   1.711818e+06  -2.946520e+05   0.000000e+00   0.000000e+00   0.000000e+00   2.378840e+06   0.000000e+00   0.000000e+00   0.000000e+00
     1248000   1.247999e-05   2.038427e+01   3.955951e+01   6.084105e+00   1.625342e+06   1.711818e+06  -2.946520e+05   0.000000e+00   0.000000e+00   0.000000e+00   2.378840e+06   0.000000e+00   0.000000e+00   0.000000e+00
     1256000   1.255999e-05   2.051430e+01   3.969646e+01   6.060532e+00   1.625342e+06   1.711818e+06  -2.946520e+05   0.000000e+00   0.000000e+00   0.000000e+00   2.378840e+06   0.000000e+00   0.000000e+00   0.000000e+00
     1264000   1.263999e-05   2.064433e+01   3.983340e+01   6.036960e+00   1.625342e+06   1.711818e+06  -2.946520e+05   0.000000e+00   0.000000e+00   0.000000e+00   2.378840e+06   0.000000e+00   0.000000e+00   0.000000e+00
     1272000   1.271999e-05   2.077435e+01   3.997035e+01   6.013388e+00   1.625342e+06   1.711818e+06  -2.946520e+05   0.000000e+00   0.000000e+00   0.000000e+00   2.378840e+06   0.000000e+00   0.000000e+00   0.000000e+00
     1280000   1.279999e-05   2.090438e+01   4.010729e+01   5.989816e+00   1.625342e+06   1.711818e+06  -2.946520e+05   0.000000e+00   0.000000e+00   0.000000e+00   2.378840e+06   0.000000e+00   0.000000e+00   0.000000e+00
     1288000   1.287999e-05   2.103441e+01   4.024424e+01   5.966244e+00   1.625342e+06   1.711818e+06  -2.946520e+05   0.000000e+00   0.000000e+00   0.000000e+00   2.378840e+06   0.000000e+00   0.000000e+00   0.000000e+00
     1296000   1.295999e-05   2.116444e+01   4.038118e+01   5.942672e+00   1.625342e+06   1.711818e+06  -2.946520e+05   0.000000e+00   0.000000e+00   0.000000e+00   2.378840e+06   0.000000e+00   0.000000e+00   0.000000e+00
     1304000   1.303999e-05   2.129446e+01   4.051813e+01   5.919099e+00   1.625342e+06   1.711818e+06  -2.946520e+05   0.000000e+00   0.000000e+00   0.000000e+00   2.378840e+06   0.000000e+00   0.000000e+00   0.000000e+00
     1312000   1.311999e-05   2.142449e+01   4.065507e+01   5.895527e+00   1.625342e+06   1.711818e+06  -2.946520e+05   0.000000e+00   0.000000e+00   0.000000e+00   2.378840e+06   0.000000e+00   0.000000e+00   0.000000e+00
     1320000   1.319999e-05   2.155452e+01   4.079202e+01   5.871955e+00   1.625342e+06   1.711818e+06  -2.946520e+05   0.000000e+00   0.000000e+00   0.000000e+00   2.378840e+06   0.000000e+00   0.000000e+00   0.000000e+00
     1328000   1.327999e-05   2.168455e+01   4.092897e+01   5.848383e+00   1.625342e+06   1.711818e+06  -2.946520e+05   0.000000e+00   0.000000e+00   0.000000e+00   2.378840e+06   0.000000e+00   0.000000e+00   0.000000e+00
     1336000   1.335999e-05   2.181457e+01   4.106591e+01   5.824811e+00   1.625342e+06   1.711818e+06  -2.946520e+05   0.000000e+00   0.000000e+00   0.000000e+00   2.378840e+06   0.000000e+00   0.000000e+00   0.000000e+00
     1344000   1.343999e-05   2.194460e+01   4.120286e+01   5.801239e+00   1.625342e+06   1.711818e+06  -2.946520e+05   0.000000e+00   0.000000e+00   0.000000e+00   2.378840e+06   0.000000e+00   0.000000e+00   0.000000e+00
     1352000   1.351999e-05   2.207463e+01   4.133980e+01   5.777667e+00   1.625342e+06   1.711818e+06  -2.946520e+05   0.000000e+00   0.000000e+00   0.000000e+00   2.378840e+06   0.000000e+00   0.000000e+00   0.000000e+00
     1360000   1.359999e-05   2.220465e+01   4.147675e+01   5.754094e+00   1.625342e+06   1.711818e+06  -2.946520e+05   0.000000e+00   0.000000e+00   0.000000e+00   2.378840e+06   0.000000e+00   0.000000e+00   0.000000e+00
     1368000   1.367999e-05   2.233468e+01   4.161369e+01   5.730522e+00   1.625342e+06   1.711818e+06  -2.946520e+05   0.000000e+00   0.000000e+00   0.000000e+00   2.378840e+06   0.000000e+00   0.000000e+00   0.000000e+00
     1376000   1.375999e-05   2.246471e+01   4.175064e+01   5.706950e+00   1.625342e+06   1.711818e+06  -2.946520e+05   0.000000e+00   0.000000e+00   0.000000e+00   2.378840e+06   0.000000e+00   0.000000e+00   0.000000e+00
     1384000   1.383999e-05   2.259474e+01   4.188758e+01   5.683378e+00   1.625342e+06   1.711818e+06  -2.946520e+05   0.000000e+00   0.000000e+00   0.000000e+00   2.378840e+06   0.000000e+00   0.000000e+00   0.000000e+00
     1392000   1.391999e-05   2.272476e+01   4.202453e+01   5.659806e+00   1.625342e+06   1.711818e+06  -2.946520e+05   0.000000e+00   0.000000e+00   0.000000e+00   2.378840e+06   0.000000e+00   0.000000e+00   0.000000e+00
     1400000   1.399999e-05   2.285479e+01   4.216147e+01   5.636234e+00   1.625342e+06   1.711818e+06  -2.946520e+05   0.000000e+00   0.000000e+00   0.000000e+00   2.378840e+06   0.000000e+00   0.000000e+00   0.000000e+00
     1408000   1.407999e-05   2.298482e+01   4.229842e+01   5.612661e+00   1.625342e+06   1.711818e+06  -2.946520e+05   0.000000e+00   0.000000e+00   0.000000e+00   2.378840e+06   0.000000e+00   0.000000e+00   0.000000e+00
     1416000   1.415999e-05   2.311485e+01   4.243537e+01   5.589089e+00   1.625342e+06   1.711818e+06  -2.946520e+05   0.000000e+00   0.000000e+00   0.000000e+00   2.378840e+06   0.000000e+00   0.000000e+00   0.000000e+00
     1424000   1.423999e-05   2.324487e+01   4.257231e+01   5.565517e+00   1.625342e+06   1.711818e+06  -2.946520e+05   0.000000e+00   0.000000e+00   0.000000e+00   2.378840e+06   0.000000e+00   0.000000e+00   0.000000e+00
     1432000   1.431999e-05   2.337490e+01   4.270926e+01   5.541945e+00   1.625342e+06   1.711818e+06  -2.946520e+05   0.000000e+00   0.000000e+00   0.000000e+00   2.378840e+06   0.000000e+00   0.000000e+00   0.000000e+00
     1440000   1.439999e-05   2.350493e+01   4.284620e+01   5.518373e+00   1.625342e+06   1.711818e+06  -2.946520e+05   0.000000e+00   0.000000e+00   0.000000e+00   2.378840e+06   0.000000e+00   0.000000e+00   0.000000e+00
     1448000   1.447999e-05   2.363496e+01   4.298315e+01   5.494801e+00   1.625342e+06   1.711818e+06  -2.946520e+05   0.000000e+00   0.000000e+00   0.000000e+00   2.378840e+06   0.000000e+00   0.000000e+00   0.000000e+00
     1456000   1.455999e-05   2.376498e+01   4.312009e+01   5.471228e+00   1.625342e+06   1.711818e+06  -2.946520e+05   0.000000e+00   0.000000e+00   0.000000e+00   2.378840e+06   0.000000e+00   0.000000e+00   0.000000e+00
     1464000   1.463999e-05   2.389501e+01   4.325704e+01   5.447656e+00   1.625342e+06   1.711818e+06  -2.946520e+05   0.000000e+00   0.000000e+00   0.000000e+00   2.378840e+06   0.000000e+00   0.000000e+00   0.000000e+00
     1472000   1.471999e-05   2.402504e+01   4.339398e+01   5.424084e+00   1.625342e+06   1.711818e+06  -2.946520e+05   0.000000e+00   0.000000e+00   0.000000e+00   2.378840e+06   0.000000e+00   0.000000e+00   0.000000e+00
     1480000   1.479999e-05   2.415507e+01   4.353093e+01   5.400512e+00   1.625342e+06   1.711818e+06  -2.946520e+05   0.000000e+00   0.000000e+00   0.000000e+00   2.378840e+06   0.000000e+00   0.000000e+00   0.000000e+00
     1488000   1.487999e-05   2.428509e+01   4.366787e+01   5.376940e+00   1.625342e+06   1.711818e+06  -2.946520e+05   0.000000e+00   0.000000e+00   0.000000e+00   2.378840e+06   0.000000e+00   0.000000e+00   0.000000e+00
     1496000   1.495999e-05   2.441512e+01   4.380482e+01   5.353368e+00   1.625342e+06   1.711818e+06  -2.946520e+05   0.000000e+00   0.000000e+00   0.000000e+00   2.378840e+06   0.000000e+00   0.000000e+00   0.000000e+00
     1504000   1.503999e-05   2.454515e+01   4.394177e+01   5.329795e+00   1.625342e+06   1.711818e+06  -2.946520e+05   0.000000e+00   0.000000e+00   0.000000e+00   2.378840e+06   0.000000e+00   0.000000e+00   0.000000e+00
     1512000   1.511999e-05   2.467518e+01   4.407871e+01   5.306223e+00   1.625342e+06   1.711818e+06  -2.946520e+05   0.000000e+00   0.000000e+00   0.000000e+00   2.378840e+06   0.000000e+00   0.000000e+00   0.000000e+00
     1520000   1.519999e-05   2.480520e+01   4.421566e+01   5.282651e+00   1.625342e+06   1.711818e+06  -2.946520e+05   0.000000e+00   0.000000e+00   0.000000e+00   2.378840e+06   0.000000e+00   0.000000e+00   0.000000e+00
     1528000   1.527999e-05   2.493523e+01   4.435260e+01   5.259079e+00   1.625342e+06   1.711818e+06  -2.946520e+05   0.000000e+00   0.000000e+00   0.000000e+00   2.378840e+06   0.000000e+00   0.000000e+00   0.000000e+00
     1536000   1.535999e-05   2.506526e+01   4.448955e+01   5.235507e+00   1.625342e+06   1.711818e+06  -2.946520e+05   0.000000e+00   0.000000e+00   0.000000e+00   2.378840e+06   0.000000e+00   0.000000e+00   0.000000e+00
     1544000   1.543999e-05   2.519528e+01   4.462649e+01   5.211935e+00   1.625342e+06   1.711818e+06  -2.946520e+05   0.000000e+00   0.000000e+00   0.000000e+00   2.378840e+06   0.000000e+00   0.000000e+00   0.000000e+00
     1552000   1.551999e-05   2.532531e+01   4.476344e+01   5.188362e+00   1.625342e+06   1.711818e+06  -2.946520e+05   0.000000e+00   0.000000e+00   0.000000e+00   2.378840e+06   0.000000e+00   0.000000e+00   0.000000e+00
     1560000   1.559999e-05   2.545534e+01   4.490038e+01   5.164790e+00   1.625342e+06   1.711818e+06  -2.946520e+05   0.000000e+00   0.000000e+00   0.000000e+00   2.378840e+06   0.000000e+00   0.000000e+00   0.000000e+00
     1568000   1.567999e-05   2.558537e+01   4.503733e+01   5.141218e+00   1.625342e+06   1.711818e+06  -2.946520e+05   0.000000e+00   0.000000e+00   0.000000e+00   2.378840e+06   0.000000e+00   0.000000e+00   0.000000e+00
     1576000   1.575999e-05   2.571539e+01   4.517427e+01   5.117646e+00   1.625342e+06   1.711818e+06  -2.946520e+05   0.000000e+00   0.000000e+00   0.000000e+00   2.378840e+06   0.000000e+00   0.000000e+00   0.000000e+00
     1584000   1.583999e-05   2.584542e+01   4.531122e+01   5.094074e+00   1.625342e+06   1.711818e+06  -2.946520e+05   0.000000e+00   0.000000e+00   0.000000e+00   2.378840e+06   0.000000e+00   0.000000e+00   0.000000e+00
     1592000   1.591999e-05   2.597545e+01   4.544817e+01   5.070502e+00   1.625342e+06   1.711818e+06  -2.946520e+05   0.000000e+00   0.000000e+00   0.000000e+00   2.378840e+06   0.000000e+00   0.000000e+00   0.000000e+00
     1600000   1.599999e-05   2.610548e+01   4.558511e+01   5.046929e+00   1.625342e+06   1.711818e+06  -2.946520e+05   0.000000e+00   0.000000e+00   0.000000e+00   2.378840e+06   0.000000e+00   0.000000e+00   0.000000e+00
     1608000   1.607999e-05   2.623550e+01   4.572206e+01   5.023357e+00   1.625342e+06   1.711818e+06  -2.946520e+05   0.000000e+00   0.000000e+00   0.000000e+00   2.378840e+06   0.000000e+00   0.000000e+00   0.000000e+00
     1616000   1.615999e-05   2.636553e+01   4.585900e+01   4.999785e+00   1.625342e+06   1.711818e+06  -2.946520e+05   0.000000e+00   0.000000e+00   0.000000e+00   2.378840e+06   0.000000e+00   0.000000e+00   0.000000e+00
     1624000   1.623999e-05   2.649556e+01   4.599595e+01   4.976213e+00   1.625342e+06   1.711818e+06  -2.946520e+05   0.000000e+00   0.000000e+00   0.000000e+00   2.378840e+06   0.000000e+00   0.000000e+00   0.000000e+00
     1632000   1.631999e-05   2.662559e+01   4.613289e+01   4.952641e+00   1.625342e+06   1.711818e+06  -2.946520e+05   0.000000e+00   0.000000e+00   0.000000e+00   2.378840e+06   0.000000e+00   0.000000e+00   0.000000e+00
     1640000   1.639999e-05   2.675561e+01   4.626984e+01   4.929069e+00   1.625342e+06   1.711818e+06  -2.946520e+05   0.000000e+00   0.000000e+00   0.000000e+00   2.378840e+06   0.000000e+00   0.000000e+00   0.000000e+00
     1648000   1.647999e-05   2.688564e+01   4.640678e+01   4.905496e+00   1.625342e+06   1.711818e+06  -2.946520e+05   0.000000e+00   0.000000e+00   0.000000e+00   2.378840e+06   0.000000e+00   0.000000e+00   0.000000e+00
     1656000   1.655999e-05   2.701567e+01   4.654373e+01   4.881924e+00   1.625342e+06   1.711818e+06  -2.946520e+05   0.000000e+00   0.000000e+00   0.000000e+00   2.378840e+06   0.000000e+00   0.000000e+00   0.000000e+00
     1664000   1.663999e-05   2.714570e+01   4.668067e+01   4.858352e+00   1.625342e+06   1.711818e+06  -2.946520e+05   0.000000e+00   0.000000e+00   0.000000e+00   2.378840e+06   0.000000e+00   0.000000e+00   0.000000e+00
     1672000   1.671999e-05   2.727572e+01   4.681762e+01   4.834780e+00   1.625342e+06   1.711818e+06  -2.946520e+05   0.000000e+00   0.000000e+00   0.000000e+00   2.378840e+06   0.000000e+00   0.000000e+00   0.000000e+00
     1680000   1.679999e-05   2.740575e+01   4.695457e+01   4.811208e+00   1.625342e+06   1.711818e+06  -2.946520e+05   0.000000e+00   0.000000e+00   0.000000e+00   2.378840e+06   0.000000e+00   0.000000e+00   0.000000e+00
     1688000   1.687999e-05   2.753578e+01   4.709151e+01   4.787636e+00   1.625342e+06   1.711818e+06  -2.946520e+05   0.000000e+00   0.000000e+00   0.000000e+00   2.378840e+06   0.000000e+00   0.000000e+00   0.000000e+00
     1696000   1.695999e-05   2.766580e+01   4.722846e+01   4.764064e+00   1.625342e+06   1.711818e+06  -2.946520e+05   0.000000e+00   0.000000e+00   0.000000e+00   2.378840e+06   0.000000e+00   0.000000e+00   0.000000e+00
     1704000   1.703999e-05   2.779583e+01   4.736540e+01   4.740491e+00   1.625342e+06   1.711818e+06  -2.946520e+05   0.000000e+00   0.000000e+00   0.000000e+00   2.378840e+06   0.000000e+00   0.000000e+00   0.000000e+00
     1712000   1.711999e-05   2.792586e+01   4.750235e+01   4.716919e+00   1.625342e+06   1.711818e+06  -2.946520e+05   0.000000e+00   0.000000e+00   0.000000e+00   2.378840e+06   0.000000e+00   0.000000e+00   0.000000e+00
     1720000   1.719999e-05   2.805589e+01   4.763929e+01   4.693347e+00   1.625342e+06   1.711818e+06  -2.946520e+05   0.000000e+00   0.000000e+00   0.000000e+00   2.378840e+06   0.000000e+00   0.000000e+00   0.000000e+00
     1728000   1.727999e-05   2.818591e+01   4.777624e+01   4.669775e+00   1.625342e+06   1.711818e+06  -2.946520e+05   0.000000e+00   0.000000e+00   0.000000e+00   2.378840e+06   0.000000e+00   0.000000e+00   0.000000e+00
     1736000   1.735999e-05   2.831594e+01   4.791318e+01   4.646203e+00   1.625342e+06   1.711818e+06  -2.946520e+05   0.000000e+00   0.000000e+00   0.000000e+00   2.378840e+06   0.000000e+00   0.000000e+00   0.000000e+00
     1744000   1.743999e-05   2.844597e+01   4.805013e+01   4.622631e+00   1.625342e+06   1.711818e+06  -2.946520e+05   0.000000e+00   0.000000e+00   0.000000e+00   2.378840e+06   0.000000e+00   0.000000e+00   0.000000e+00
     1752000   1.751999e-05   2.857600e+01   4.818707e+01   4.599058e+00   1.625342e+06   1.711818e+06  -2.946520e+05   0.000000e+00   0.000000e+00   0.000000e+00   2.378840e+06   0.000000e+00   0.000000e+00   0.000000e+00
     1760000   1.759999e-05   2.870602e+01   4.832402e+01   4.575486e+00   1.625342e+06   1.711818e+06  -2.946520e+05   0.000000e+00   0.000000e+00   0.000000e+00   2.378840e+06   0.000000e+00   0.000000e+00   0.000000e+00
     1768000   1.767999e-05   2.883605e+01   4.846097e+01   4.551914e+00   1.625342e+06   1.711818e+06  -2.946520e+05   0.000000e+00   0.000000e+00   0.000000e+00   2.378840e+06   0.000000e+00   0.000000e+00   0.000000e+00
     1776000   1.775999e-05   2.896608e+01   4.859791e+01   4.528342e+00   1.625342e+06   1.711818e+06  -2.946520e+05   0.000000e+00   0.000000e+00   0.000000e+00   2.378840e+06   0.000000e+00   0.000000e+00   0.000000e+00
     1784000   1.783999e-05   2.909611e+01   4.873486e+01   4.504770e+00   1.625342e+06   1.711818e+06  -2.946520e+05   0.000000e+00   0.000000e+00   0.000000e+00   2.378840e+06   0.000000e+00   0.000000e+00   0.000000e+00
     1792000   1.791999e-05   2.922613e+01   4.887180e+01   4.481198e+00   1.625342e+06   1.711818e+06  -2.946520e+05   0.000000e+00   0.000000e+00   0.000000e+00   2.378840e+06   0.000000e+00   0.000000e+00   0.000000e+00
     1800000   1.799999e-05   2.935616e+01   4.900875e+01   4.457625e+00   1.625342e+06   1.711818e+06  -2.946520e+05   0.000000e+00   0.000000e+00   0.000000e+00   2.378840e+06   0.000000e+00   0.000000e+00   0.000000e+00
     1808000   1.807999e-05   2.948619e+01   4.914569e+01   4.434053e+00   1.625342e+06   1.711818e+06  -2.946520e+05   0.000000e+00   0.000000e+00   0.000000e+00   2.378840e+06   0.000000e+00   0.000000e+00   0.000000e+00
     1816000   1.815999e-05   2.961622e+01   4.928264e+01   4.410481e+00   1.625342e+06   1.711818e+06  -2.946520e+05   0.000000e+00   0.000000e+00   0.000000e+00   2.378840e+06   0.000000e+00   0.000000e+00   0.000000e+00
     1824000   1.823999e-05   2.974624e+01   4.941958e+01   4.386909e+00   1.625342e+06   1.711818e+06  -2.946520e+05   0.000000e+00   0.000000e+00   0.000000e+00   2.378840e+06   0.000000e+00   0.000000e+00   0.000000e+00
     1832000   1.831999e-05   2.987627e+01   4.955653e+01   4.363337e+00   1.625342e+06   1.711818e+06  -2.946520e+05   0.000000e+00   0.000000e+00   0.000000e+00   2.378840e+06   0.000000e+00   0.000000e+00   0.000000e+00
     1840000   1.839999e-05   3.000630e+01   4.969347e+01   4.339765e+00   1.625342e+06   1.711818e+06  -2.946520e+05   0.000000e+00   0.000000e+00   0.000000e+00   2.378840e+06   0.000000e+00   0.000000e+00   0.000000e+00
     1848000   1.847999e-05   3.013633e+01   4.983042e+01   4.316192e+00   1.625342e+06   1.711818e+06  -2.946520e+05   0.000000e+00   0.000000e+00   0.000000e+00   2.378840e+06   0.000000e+00   0.000000e+00   0.000000e+00
     1856000   1.855999e-05   3.026635e+01   4.996736e+01   4.292620e+00   1.625342e+06   1.711818e+06  -2.946520e+05   0.000000e+00   0.000000e+00   0.000000e+00   2.378840e+06   0.000000e+00   0.000000e+00   0.000000e+00
