     timestep     time              x             y              z              vx             vy             vz             ax             ay             az         v_magnitude      ELoss        Electronic      Nuclear
           0   0.000000e+00   1.000000e-01   1.222717e+01   1.053920e+01   1.817315e+06   2.249561e+05  -8.447039e+04   0.000000e+00   0.000000e+00   0.000000e+00   1.833133e+06   0.000000e+00   0.000000e+00   0.000000e+00
        8000   7.999000e-08   2.453852e-01   1.224516e+01   1.053244e+01   1.817315e+06   2.249561e+05  -8.447039e+04   0.000000e+00   0.000000e+00   0.000000e+00   1.833133e+06   0.000000e+00   0.000000e+00   0.000000e+00
       16000   1.599900e-07   3.907704e-01   1.226316e+01   1.052569e+01   1.817315e+06   2.249561e+05  -8.447039e+04   0.000000e+00   0.000000e+00   0.000000e+00   1.833133e+06   0.000000e+00   0.000000e+00   0.000000e+00
       24000   2.399900e-07   5.361557e-01   1.228116e+01   1.051893e+01   1.817315e+06   2.249561e+05  -8.447039e+04   0.000000e+00   0.000000e+00   0.000000e+00   1.833133e+06   0.000000e+00   0.000000e+00   0.000000e+00
       32000   3.199900e-07   6.815409e-01   1.229915e+01   1.051217e+01   1.817315e+06   2.249561e+05  -8.447039e+04   0.000000e+00   0.000000e+00   0.000000e+00   1.833133e+06   0.000000e+00   0.000000e+00   0.000000e+00
       40000   3.999900e-07   8.269261e-01   1.231715e+01   1.050541e+01   1.817315e+06   2.249561e+05  -8.447039e+04   0.000000e+00   0.000000e+00   0.000000e+00   1.833133e+06   0.000000e+00   0.000000e+00   0.000000e+00
       48000   4.799900e-07   9.723113e-01   1.233515e+01   1.049866e+01   1.817315e+06   2.249561e+05  -8.447039e+04   0.000000e+00   0.000000e+00   0.000000e+00   1.833133e+06   0.000000e+00   0.000000e+00   0.000000e+00
       56000   5.599900e-07   1.117697e+00   1.235314e+01   1.049190e+01   1.817315e+06   2.249561e+05  -8.447039e+04   0.000000e+00   0.000000e+00   0.000000e+00   1.833133e+06   0.000000e+00   0.000000e+00   0.000000e+00
       64000   6.399900e-07   1.263082e+00   1.237114e+01   1.048514e+01   1.817315e+06   2.249561e+05  -8.447039e+04   0.000000e+00   0.000000e+00   0.000000e+00   1.833133e+06   0.000000e+00   0.000000e+00   0.000000e+00
       72000   7.199900e-07   1.408467e+00   1.238914e+01   1.047838e+01   1.817315e+06   2.249561e+05  -8.447039e+04   0.000000e+00   0.000000e+00   0.000000e+00   1.833133e+06   0.000000e+00   0.000000e+00   0.000000e+00
       80000   7.999900e-07   1.553852e+00   1.240713e+01   1.047163e+01   1.817315e+06   2.249561e+05  -8.447039e+04   0.000000e+00   0.000000e+00   0.000000e+00   1.833133e+06   0.000000e+00   0.000000e+00   0.000000e+00
       88000   8.799900e-07   1.699237e+00   1.242513e+01   1.046487e+01   1.817315e+06   2.249561e+05  -8.447039e+04   0.000000e+00   0.000000e+00   0.000000e+00   1.833133e+06   0.000000e+00   0.000000e+00   0.000000e+00
       96000   9.599900e-07   1.844623e+00   1.244313e+01   1.045811e+01   1.817315e+06   2.249561e+05  -8.447039e+04   0.000000e+00   0.000000e+00   0.000000e+00   1.833133e+06   0.000000e+00   0.000000e+00   0.000000e+00
      104000   1.039990e-06   1.990008e+00   1.246112e+01   1.045135e+01   1.817315e+06   2.249561e+05  -8.447039e+04   0.000000e+00   0.000000e+00   0.000000e+00   1.833133e+06   0.000000e+00   0.000000e+00   0.000000e+00
      112000   1.119990e-06   2.135393e+00   1.247912e+01   1.044460e+01   1.817315e+06   2.249561e+05  -8.447039e+04   0.000000e+00   0.000000e+00   0.000000e+00   1.833133e+06   0.000000e+00   0.000000e+00   0.000000e+00
      120000   1.199990e-06   2.280778e+00   1.249712e+01   1.043784e+01   1.817315e+06   2.249561e+05  -8.447039e+04   0.000000e+00   0.000000e+00   0.000000e+00   1.833133e+06   0.000000e+00   0.000000e+00   0.000000e+00
      128000   1.279990e-06   2.426164e+00   1.251511e+01   1.043108e+01   1.817315e+06   2.249561e+05  -8.447039e+04   0.000000e+00   0.000000e+00   0.000000e+00   1.833133e+06   0.000000e+00   0.000000e+00   0.000000e+00
      136000   1.359990e-06   2.571549e+00   1.253311e+01   1.042432e+01   1.817315e+06   2.249561e+05  -8.447039e+04   0.000000e+00   0.000000e+00   0.000000e+00   1.833133e+06   0.000000e+00   0.000000e+00   0.000000e+00
      144000   1.439990e-06   2.716934e+00   1.255110e+01   1.041756e+01   1.817315e+06   2.249561e+05  -8.447039e+04   0.000000e+00   0.000000e+00   0.000000e+00   1.833133e+06   0.000000e+00   0.000000e+00   0.000000e+00
      152000   1.519990e-06   2.862319e+00   1.256910e+01   1.041081e+01   1.817315e+06   2.249561e+05  -8.447039e+04   0.000000e+00   0.000000e+00   0.000000e+00   1.833133e+06   0.000000e+00   0.000000e+00   0.000000e+00
      160000   1.599990e-06   3.007704e+00   1.258710e+01   1.040405e+01   1.817315e+06   2.249561e+05  -8.447039e+04   0.000000e+00   0.000000e+00   0.000000e+00   1.833133e+06   0.000000e+00   0.000000e+00   0.000000e+00
      168000   1.679990e-06   3.153090e+00   1.260509e+01   1.039729e+01   1.817315e+06   2.249561e+05  -8.447039e+04   0.000000e+00   0.000000e+00   0.000000e+00   1.833133e+06   0.000000e+00   0.000000e+00   0.000000e+00
      176000   1.759990e-06   3.298475e+00   1.262309e+01   1.039053e+01   1.817315e+06   2.249561e+05  -8.447039e+04   0.000000e+00   0.000000e+00   0.000000e+00   1.833133e+06   0.000000e+00   0.000000e+00   0.000000e+00
      184000   1.839990e-06   3.443860e+00   1.264109e+01   1.038378e+01   1.817315e+06   2.249561e+05  -8.447039e+04   0.000000e+00   0.000000e+00   0.000000e+00   1.833133e+06   0.000000e+00   0.000000e+00   0.000000e+00
      192000   1.919990e-06   3.589245e+00   1.265908e+01   1.037702e+01   1.817315e+06   2.249561e+05  -8.447039e+04   0.000000e+00   0.000000e+00   0.000000e+00   1.833133e+06   0.000000e+00   0.000000e+00   0.000000e+00
      200000   1.999990e-06   3.734631e+00   1.267708e+01   1.037026e+01   1.817315e+06   2.249561e+05  -8.447039e+04   0.000000e+00   0.000000e+00   0.000000e+00   1.833133e+06   0.000000e+00   0.000000e+00   0.000000e+00
      208000   2.079990e-06   3.880016e+00   1.269508e+01   1.036350e+01   1.817315e+06   2.249561e+05  -8.447039e+04   0.000000e+00   0.000000e+00   0.000000e+00   1.833133e+06   0.000000e+00   0.000000e+00   0.000000e+00
      216000   2.159990e-06   4.025401e+00   1.271307e+01   1.035675e+01   1.817315e+06   2.249561e+05  -8.447039e+04   0.000000e+00   0.000000e+00   0.000000e+00   1.833133e+06   0.000000e+00   0.000000e+00   0.000000e+00
      224000   2.239990e-06   4.170786e+00   1.273107e+01   1.034999e+01   1.817315e+06   2.249561e+05  -8.447039e+04   0.000000e+00   0.000000e+00   0.000000e+00   1.833133e+06   0.000000e+00   0.000000e+00   0.000000e+00
      232000   2.319990e-06   4.316171e+00   1.274907e+01   1.034323e+01   1.817315e+06   2.249561e+05  -8.447039e+04   0.000000e+00   0.000000e+00   0.000000e+00   1.833133e+06   0.000000e+00   0.000000e+00   0.000000e+00
      240000   2.399990e-06   4.461557e+00   1.276706e+01   1.033647e+01   1.817315e+06   2.249561e+05  -8.447039e+04   0.000000e+00   0.000000e+00   0.000000e+00   1.833133e+06   0.000000e+00   0.000000e+00   0.000000e+00
      248000   2.479990e-06   4.606942e+00   1.278506e+01   1.032972e+01   1.817315e+06   2.249561e+05  -8.447039e+04   0.000000e+00   0.000000e+00   0.000000e+00   1.833133e+06   0.000000e+00   0.000000e+00   0.000000e+00
      256000   2.559990e-06   4.752327e+00   1.280306e+01   1.032296e+01   1.817315e+06   2.249561e+05  -8.447039e+04   0.000000e+00   0.000000e+00   0.000000e+00   1.833133e+06   0.000000e+00   0.000000e+00   0.000000e+00
      264000   2.639990e-06   4.897712e+00   1.282105e+01   1.031620e+01   1.817315e+06   2.249561e+05  -8.447039e+04   0.000000e+00   0.000000e+00   0.000000e+00   1.833133e+06   0.000000e+00   0.000000e+00   0.000000e+00
      272000   2.719990e-06   5.043097e+00   1.283905e+01   1.030944e+01   1.817315e+06   2.249561e+05  -8.447039e+04   0.000000e+00   0.000000e+00   0.000000e+00   1.833133e+06   0.000000e+00   0.000000e+00   0.000000e+00
      280000   2.799990e-06   5.188483e+00   1.285705e+01   1.030268e+01   1.817315e+06   2.249561e+05  -8.447039e+04   0.000000e+00   0.000000e+00   0.000000e+00   1.833133e+06   0.000000e+00   0.000000e+00   0.000000e+00
      288000   2.879990e-06   5.333868e+00   1.287504e+01   1.029593e+01   1.817315e+06   2.249561e+05  -8.447039e+04   0.000000e+00   0.000000e+00   0.000000e+00   1.833133e+06   0.000000e+00   0.000000e+00   0.000000e+00
      296000   2.959990e-06   5.479253e+00   1.289304e+01   1.028917e+01   1.817315e+06   2.249561e+05  -8.447039e+04   0.000000e+00   0.000000e+00   0.000000e+00   1.833133e+06   0.000000e+00   0.000000e+00   0.000000e+00
      304000   3.039990e-06   5.624638e+00   1.291103e+01   1.028241e+01   1.817315e+06   2.249561e+05  -8.447039e+04   0.000000e+00   0.000000e+00   0.000000e+00   1.833133e+06   0.000000e+00   0.000000e+00   0.000000e+00
      312000   3.119990e-06   5.770024e+00   1.292903e+01   1.027565e+01   1.817315e+06   2.249561e+05  -8.447039e+04   0.000000e+00   0.000000e+00   0.000000e+00   1.833133e+06   0.000000e+00   0.000000e+00   0.000000e+00
      320000   3.199990e-06   5.915409e+00   1.294703e+01   1.026890e+01   1.817315e+06   2.249561e+05  -8.447039e+04   0.000000e+00   0.000000e+00   0.000000e+00   1.833133e+06   0.000000e+00   0.000000e+00   0.000000e+00
      328000   3.279990e-06   6.060794e+00   1.296502e+01   1.026214e+01   1.817315e+06   2.249561e+05  -8.447039e+04   0.000000e+00   0.000000e+00   0.000000e+00   1.833133e+06   0.000000e+00   0.000000e+00   0.000000e+00
      336000   3.359990e-06   6.206179e+00   1.298302e+01   1.025538e+01   1.817315e+06   2.249561e+05  -8.447039e+04   0.000000e+00   0.000000e+00   0.000000e+00   1.833133e+06   0.000000e+00   0.000000e+00   0.000000e+00
      344000   3.439990e-06   6.351564e+00   1.300102e+01   1.024862e+01   1.817315e+06   2.249561e+05  -8.447039e+04   0.000000e+00   0.000000e+00   0.000000e+00   1.833133e+06   0.000000e+00   0.000000e+00   0.000000e+00
      352000   3.519990e-06   6.496950e+00   1.301901e+01   1.024187e+01   1.817315e+06   2.249561e+05  -8.447039e+04   0.000000e+00   0.000000e+00   0.000000e+00   1.833133e+06   0.000000e+00   0.000000e+00   0.000000e+00
      360000   3.599990e-06   6.642335e+00   1.303701e+01   1.023511e+01   1.817315e+06   2.249561e+05  -8.447039e+04   0.000000e+00   0.000000e+00   0.000000e+00   1.833133e+06   0.000000e+00   0.000000e+00   0.000000e+00
      368000   3.679990e-06   6.787720e+00   1.305501e+01   1.022835e+01   1.817315e+06   2.249561e+05  -8.447039e+04   0.000000e+00   0.000000e+00   0.000000e+00   1.833133e+06   0.000000e+00   0.000000e+00   0.000000e+00
      376000   3.759990e-06   6.933105e+00   1.307300e+01   1.022159e+01   1.817315e+06   2.249561e+05  -8.447039e+04   0.000000e+00   0.000000e+00   0.000000e+00   1.833133e+06   0.000000e+00   0.000000e+00   0.000000e+00
      384000   3.839990e-06   7.078491e+00   1.309100e+01   1.021484e+01   1.817315e+06   2.249561e+05  -8.447039e+04   0.000000e+00   0.000000e+00   0.000000e+00   1.833133e+06   0.000000e+00   0.000000e+00   0.000000e+00
      392000   3.919990e-06   7.223876e+00   1.310900e+01   1.020808e+01   1.817315e+06   2.249561e+05  -8.447039e+04   0.000000e+00   0.000000e+00   0.000000e+00   1.833133e+06   0.000000e+00   0.000000e+00   0.000000e+00
      400000   3.999990e-06   7.369261e+00   1.312699e+01   1.020132e+01   1.817315e+06   2.249561e+05  -8.447039e+04   0.000000e+00   0.000000e+00   0.000000e+00   1.833133e+06   0.000000e+00   0.000000e+00   0.000000e+00
      408000   4.079990e-06   7.514646e+00   1.314499e+01   1.019456e+01   1.817315e+06   2.249561e+05  -8.447039e+04   0.000000e+00   0.000000e+00   0.000000e+00   1.833133e+06   0.000000e+00   0.000000e+00   0.000000e+00
      416000   4.159990e-06   7.660031e+00   1.316299e+01   1.018781e+01   1.817315e+06   2.249561e+05  -8.447039e+04   0.000000e+00   0.000000e+00   0.000000e+00   1.833133e+06   0.000000e+00   0.000000e+00   0.000000e+00
      424000   4.239990e-06   7.805417e+00   1.318098e+01   1.018105e+01   1.817315e+06   2.249561e+05  -8.447039e+04   0.000000e+00   0.000000e+00   0.000000e+00   1.833133e+06   0.000000e+00   0.000000e+00   0.000000e+00
      432000   4.319990e-06   7.950802e+00   1.319898e+01   1.017429e+01   1.817315e+06   2.249561e+05  -8.447039e+04   0.000000e+00   0.000000e+00   0.000000e+00   1.833133e+06   0.000000e+00   0.000000e+00   0.000000e+00
      440000   4.399990e-06   8.096187e+00   1.321698e+01   1.016753e+01   1.817315e+06   2.249561e+05  -8.447039e+04   0.000000e+00   0.000000e+00   0.000000e+00   1.833133e+06   0.000000e+00   0.000000e+00   0.000000e+00
      448000   4.479990e-06   8.241572e+00   1.323497e+01   1.016077e+01   1.817315e+06   2.249561e+05  -8.447039e+04   0.000000e+00   0.000000e+00   0.000000e+00   1.833133e+06   0.000000e+00   0.000000e+00   0.000000e+00
      456000   4.559990e-06   8.386958e+00   1.325297e+01   1.015402e+01   1.817315e+06   2.249561e+05  -8.447039e+04   0.000000e+00   0.000000e+00   0.000000e+00   1.833133e+06   0.000000e+00   0.000000e+00   0.000000e+00
      464000   4.639990e-06   8.532343e+00   1.327096e+01   1.014726e+01   1.817315e+06   2.249561e+05  -8.447039e+04   0.000000e+00   0.000000e+00   0.000000e+00   1.833133e+06   0.000000e+00   0.000000e+00   0.000000e+00
      472000   4.719990e-06   8.677728e+00   1.328896e+01   1.014050e+01   1.817315e+06   2.249561e+05  -8.447039e+04   0.000000e+00   0.000000e+00   0.000000e+00   1.833133e+06   0.000000e+00   0.000000e+00   0.000000e+00
      480000   4.799990e-06   8.823113e+00   1.330696e+01   1.013374e+01   1.817315e+06   2.249561e+05  -8.447039e+04   0.000000e+00   0.000000e+00   0.000000e+00   1.833133e+06   0.000000e+00   0.000000e+00   0.000000e+00
      488000   4.879990e-06   8.968498e+00   1.332495e+01   1.012699e+01   1.817315e+06   2.249561e+05  -8.447039e+04   0.000000e+00   0.000000e+00   0.000000e+00   1.833133e+06   0.000000e+00   0.000000e+00   0.000000e+00
      496000   4.959990e-06   9.113884e+00   1.334295e+01   1.012023e+01   1.817315e+06   2.249561e+05  -8.447039e+04   0.000000e+00   0.000000e+00   0.000000e+00   1.833133e+06   0.000000e+00   0.000000e+00   0.000000e+00
      504000   5.039990e-06   9.259269e+00   1.336095e+01   1.011347e+01   1.817315e+06   2.249561e+05  -8.447039e+04   0.000000e+00   0.000000e+00   0.000000e+00   1.833133e+06   0.000000e+00   0.000000e+00   0.000000e+00
      512000   5.119990e-06   9.404654e+00   1.337894e+01   1.010671e+01   1.817315e+06   2.249561e+05  -8.447039e+04   0.000000e+00   0.000000e+00   0.000000e+00   1.833133e+06   0.000000e+00   0.000000e+00   0.000000e+00
      520000   5.199990e-06   9.550039e+00   1.339694e+01   1.009996e+01   1.817315e+06   2.249561e+05  -8.447039e+04   0.000000e+00   0.000000e+00   0.000000e+00   1.833133e+06   0.000000e+00   0.000000e+00   0.000000e+00
      528000   5.279990e-06   9.695425e+00   1.341494e+01   1.009320e+01   1.817315e+06   2.249561e+05  -8.447039e+04   0.000000e+00   0.000000e+00   0.000000e+00   1.833133e+06   0.000000e+00   0.000000e+00   0.000000e+00
      536000   5.359990e-06   9.840810e+00   1.343293e+01   1.008644e+01   1.817315e+06   2.249561e+05  -8.447039e+04   0.000000e+00   0.000000e+00   0.000000e+00   1.833133e+06   0.000000e+00   0.000000e+00   0.000000e+00
      544000   5.439990e-06   9.986195e+00   1.345093e+01   1.007968e+01   1.817315e+06   2.249561e+05  -8.447039e+04   0.000000e+00   0.000000e+00   0.000000e+00   1.833133e+06   0.000000e+00   0.000000e+00   0.000000e+00
      552000   5.519990e-06   1.013158e+01   1.346893e+01   1.007293e+01   1.817315e+06   2.249561e+05  -8.447039e+04   0.000000e+00   0.000000e+00   0.000000e+00   1.833133e+06   0.000000e+00   0.000000e+00   0.000000e+00
      560000   5.599990e-06   1.027697e+01   1.348692e+01   1.006617e+01   1.817315e+06   2.249561e+05  -8.447039e+04   0.000000e+00   0.000000e+00   0.000000e+00   1.833133e+06   0.000000e+00   0.000000e+00   0.000000e+00
      568000   5.679990e-06   1.042235e+01   1.350492e+01   1.005941e+01   1.817315e+06   2.249561e+05  -8.447039e+04   0.000000e+00   0.000000e+00   0.000000e+00   1.833133e+06   0.000000e+00   0.000000e+00   0.000000e+00
      576000   5.759990e-06   1.056774e+01   1.352292e+01   1.005265e+01   1.817315e+06   2.249561e+05  -8.447039e+04   0.000000e+00   0.000000e+00   0.000000e+00   1.833133e+06   0.000000e+00   0.000000e+00   0.000000e+00
      584000   5.839990e-06   1.071312e+01   1.354091e+01   1.004589e+01   1.817315e+06   2.249561e+05  -8.447039e+04   0.000000e+00   0.000000e+00   0.000000e+00   1.833133e+06   0.000000e+00   0.000000e+00   0.000000e+00
      592000   5.919990e-06   1.085851e+01   1.355891e+01   1.003914e+01   1.817315e+06   2.249561e+05  -8.447039e+04   0.000000e+00   0.000000e+00   0.000000e+00   1.833133e+06   0.000000e+00   0.000000e+00   0.000000e+00
      600000   5.999990e-06   1.100389e+01   1.357690e+01   1.003238e+01   1.817315e+06   2.249561e+05  -8.447039e+04   0.000000e+00   0.000000e+00   0.000000e+00   1.833133e+06   0.000000e+00   0.000000e+00   0.000000e+00
      608000   6.079990e-06   1.114928e+01   1.359490e+01   1.002562e+01   1.817315e+06   2.249561e+05  -8.447039e+04   0.000000e+00   0.000000e+00   0.000000e+00   1.833133e+06   0.000000e+00   0.000000e+00   0.000000e+00
      616000   6.159990e-06   1.129466e+01   1.361290e+01   1.001886e+01   1.817315e+06   2.249561e+05  -8.447039e+04   0.000000e+00   0.000000e+00   0.000000e+00   1.833133e+06   0.000000e+00   0.000000e+00   0.000000e+00
      624000   6.239990e-06   1.144005e+01   1.363089e+01   1.001211e+01   1.817315e+06   2.249561e+05  -8.447039e+04   0.000000e+00   0.000000e+00   0.000000e+00   1.833133e+06   0.000000e+00   0.000000e+00   0.000000e+00
      632000   6.319990e-06   1.158543e+01   1.364889e+01   1.000535e+01   1.817315e+06   2.249561e+05  -8.447039e+04   0.000000e+00   0.000000e+00   0.000000e+00   1.833133e+06   0.000000e+00   0.000000e+00   0.000000e+00
      640000   6.399990e-06   1.173082e+01   1.366689e+01   9.998591e+00   1.817315e+06   2.249561e+05  -8.447039e+04   0.000000e+00   0.000000e+00   0.000000e+00   1.833133e+06   0.000000e+00   0.000000e+00   0.000000e+00
      648000   6.479990e-06   1.187620e+01   1.368488e+01   9.991834e+00   1.817315e+06   2.249561e+05  -8.447039e+04   0.000000e+00   0.000000e+00   0.000000e+00   1.833133e+06   0.000000e+00   0.000000e+00   0.000000e+00
      656000   6.559990e-06   1.202159e+01   1.370288e+01   9.985076e+00   1.817315e+06   2.249561e+05  -8.447039e+04   0.000000e+00   0.000000e+00   0.000000e+00   1.833133e+06   0.000000e+00   0.000000e+00   0.000000e+00
      664000   6.639990e-06   1.216697e+01   1.372088e+01   9.978319e+00   1.817315e+06   2.249561e+05  -8.447039e+04   0.000000e+00   0.000000e+00   0.000000e+00   1.833133e+06   0.000000e+00   0.000000e+00   0.000000e+00
      672000   6.719990e-06   1.231236e+01   1.373887e+01   9.971561e+00   1.817315e+06   2.249561e+05  -8.447039e+04   0.000000e+00   0.000000e+00   0.000000e+00   1.833133e+06   0.000000e+00   0.000000e+00   0.000000e+00
      680000   6.799990e-06   1.245774e+01   1.375687e+01   9.964803e+00   1.817315e+06   2.249561e+05  -8.447039e+04   0.000000e+00   0.000000e+00   0.000000e+00   1.833133e+06   0.000000e+00   0.000000e+00   0.000000e+00
      688000   6.879990e-06   1.260313e+01   1.377487e+01   9.958046e+00   1.817315e+06   2.249561e+05  -8.447039e+04   0.000000e+00   0.000000e+00   0.000000e+00   1.833133e+06   0.000000e+00   0.000000e+00   0.000000e+00
      696000   6.959990e-06   1.274851e+01   1.379286e+01   9.951288e+00   1.817315e+06   2.249561e+05  -8.447039e+04   0.000000e+00   0.000000e+00   0.000000e+00   1.833133e+06   0.000000e+00   0.000000e+00   0.000000e+00
      704000   7.039990e-06   1.289390e+01   1.381086e+01   9.944530e+00   1.817315e+06   2.249561e+05  -8.447039e+04   0.000000e+00   0.000000e+00   0.000000e+00   1.833133e+06   0.000000e+00   0.000000e+00   0.000000e+00
      712000   7.119990e-06   1.303928e+01   1.382886e+01   9.937773e+00   1.817315e+06   2.249561e+05  -8.447039e+04   0.000000e+00   0.000000e+00   0.000000e+00   1.833133e+06   0.000000e+00   0.000000e+00   0.000000e+00
      720000   7.199990e-06   1.318467e+01   1.384685e+01   9.931015e+00   1.817315e+06   2.249561e+05  -8.447039e+04   0.000000e+00   0.000000e+00   0.000000e+00   1.833133e+06   0.000000e+00   0.000000e+00   0.000000e+00
      728000   7.279990e-06   1.333006e+01   1.386485e+01   9.924258e+00   1.817315e+06   2.249561e+05  -8.447039e+04   0.000000e+00   0.000000e+00   0.000000e+00   1.833133e+06   0.000000e+00   0.000000e+00   0.000000e+00
      736000   7.359990e-06   1.347544e+01   1.388285e+01   9.917500e+00   1.817315e+06   2.249561e+05  -8.447039e+04   0.000000e+00   0.000000e+00   0.000000e+00   1.833133e+06   0.000000e+00   0.000000e+00   0.000000e+00
      744000   7.439990e-06   1.362083e+01   1.390084e+01   9.910742e+00   1.817315e+06   2.249561e+05  -8.447039e+04   0.000000e+00   0.000000e+00   0.000000e+00   1.833133e+06   0.000000e+00   0.000000e+00   0.000000e+00
      752000   7.519990e-06   1.376621e+01   1.391884e+01   9.903985e+00   1.817315e+06   2.249561e+05  -8.447039e+04   0.000000e+00   0.000000e+00   0.000000e+00   1.833133e+06   0.000000e+00   0.000000e+00   0.000000e+00
      760000   7.599990e-06   1.391160e+01   1.393683e+01   9.897227e+00   1.817315e+06   2.249561e+05  -8.447039e+04   0.000000e+00   0.000000e+00   0.000000e+00   1.833133e+06   0.000000e+00   0.000000e+00   0.000000e+00
      768000   7.679990e-06   1.405698e+01   1.395483e+01   9.890469e+00   1.817315e+06   2.249561e+05  -8.447039e+04   0.000000e+00   0.000000e+00   0.000000e+00   1.833133e+06   0.000000e+00   0.000000e+00   0.000000e+00
      776000   7.759990e-06   1.420237e+01   1.397283e+01   9.883712e+00   1.817315e+06   2.249561e+05  -8.447039e+04   0.000000e+00   0.000000e+00   0.000000e+00   1.833133e+06   0.000000e+00   0.000000e+00   0.000000e+00
      784000   7.839990e-06   1.434775e+01   1.399082e+01   9.876954e+00   1.817315e+06   2.249561e+05  -8.447039e+04   0.000000e+00   0.000000e+00   0.000000e+00   1.833133e+06   0.000000e+00   0.000000e+00   0.000000e+00
      792000   7.919990e-06   1.449314e+01   1.400882e+01   9.870197e+00   1.817315e+06   2.249561e+05  -8.447039e+04   0.000000e+00   0.000000e+00   0.000000e+00   1.833133e+06   0.000000e+00   0.000000e+00   0.000000e+00
      800000   7.999990e-06   1.463852e+01   1.402682e+01   9.863439e+00   1.817315e+06   2.249561e+05  -8.447039e+04   0.000000e+00   0.000000e+00   0.000000e+00   1.833133e+06   0.000000e+00   0.000000e+00   0.000000e+00
      808000   8.079990e-06   1.478391e+01   1.404481e+01   9.856681e+00   1.817315e+06   2.249561e+05  -8.447039e+04   0.000000e+00   0.000000e+00   0.000000e+00   1.833133e+06   0.000000e+00   0.000000e+00   0.000000e+00
      816000   8.159990e-06   1.492929e+01   1.406281e+01   9.849924e+00   1.817315e+06   2.249561e+05  -8.447039e+04   0.000000e+00   0.000000e+00   0.000000e+00   1.833133e+06   0.000000e+00   0.000000e+00   0.000000e+00
      824000   8.239990e-06   1.507468e+01   1.408081e+01   9.843166e+00   1.817315e+06   2.249561e+05  -8.447039e+04   0.000000e+00   0.000000e+00   0.000000e+00   1.833133e+06   0.000000e+00   0.000000e+00   0.000000e+00
      832000   8.319990e-06   1.522006e+01   1.409880e+01   9.836408e+00   1.817315e+06   2.249561e+05  -8.447039e+04   0.000000e+00   0.000000e+00   0.000000e+00   1.833133e+06   0.000000e+00   0.000000e+00   0.000000e+00
      840000   8.399990e-06   1.536545e+01   1.411680e+01   9.829651e+00   1.817315e+06   2.249561e+05  -8.447039e+04   0.000000e+00   0.000000e+00   0.000000e+00   1.833133e+06   0.000000e+00   0.000000e+00   0.000000e+00
      848000   8.479990e-06   1.551083e+01   1.413480e+01   9.822893e+00   1.817315e+06   2.249561e+05  -8.447039e+04   0.000000e+00   0.000000e+00   0.000000e+00   1.833133e+06   0.000000e+00   0.000000e+00   0.000000e+00
      856000   8.559990e-06   1.565622e+01   1.415279e+01   9.816135e+00   1.817315e+06   2.249561e+05  -8.447039e+04   0.000000e+00   0.000000e+00   0.000000e+00   1.833133e+06   0.000000e+00   0.000000e+00   0.000000e+00
      864000   8.639990e-06   1.580160e+01   1.417079e+01   9.809378e+00   1.817315e+06   2.249561e+05  -8.447039e+04   0.000000e+00   0.000000e+00   0.000000e+00   1.833133e+06   0.000000e+00   0.000000e+00   0.000000e+00
      872000   8.719990e-06   1.594699e+01   1.418879e+01   9.802620e+00   1.817315e+06   2.249561e+05  -8.447039e+04   0.000000e+00   0.000000e+00   0.000000e+00   1.833133e+06   0.000000e+00   0.000000e+00   0.000000e+00
      880000   8.799990e-06   1.609237e+01   1.420678e+01   9.795863e+00   1.817315e+06   2.249561e+05  -8.447039e+04   0.000000e+00   0.000000e+00   0.000000e+00   1.833133e+06   0.000000e+00   0.000000e+00   0.000000e+00
      888000   8.879990e-06   1.623776e+01   1.422478e+01   9.789105e+00   1.817315e+06   2.249561e+05  -8.447039e+04   0.000000e+00   0.000000e+00   0.000000e+00   1.833133e+06   0.000000e+00   0.000000e+00   0.000000e+00
      896000   8.959990e-06   1.638314e+01   1.424277e+01   9.782347e+00   1.817315e+06   2.249561e+05  -8.447039e+04   0.000000e+00   0.000000e+00   0.000000e+00   1.833133e+06   0.000000e+00   0.000000e+00   0.000000e+00
      904000   9.039990e-06   1.652853e+01   1.426077e+01   9.775590e+00   1.817315e+06   2.249561e+05  -8.447039e+04   0.000000e+00   0.000000e+00   0.000000e+00   1.833133e+06   0.000000e+00   0.000000e+00   0.000000e+00
      912000   9.119990e-06   1.667392e+01   1.427877e+01   9.768832e+00   1.817315e+06   2.249561e+05  -8.447039e+04   0.000000e+00   0.000000e+00   0.000000e+00   1.833133e+06   0.000000e+00   0.000000e+00   0.000000e+00
      920000   9.199990e-06   1.681930e+01   1.429676e+01   9.762074e+00   1.817315e+06   2.249561e+05  -8.447039e+04   0.000000e+00   0.000000e+00   0.000000e+00   1.833133e+06   0.000000e+00   0.000000e+00   0.000000e+00
      928000   9.279990e-06   1.696469e+01   1.431476e+01   9.755317e+00   1.817315e+06   2.249561e+05  -8.447039e+04   0.000000e+00   0.000000e+00   0.000000e+00   1.833133e+06   0.000000e+00   0.000000e+00   0.000000e+00
      936000   9.359990e-06   1.711007e+01   1.433276e+01   9.748559e+00   1.817315e+06   2.249561e+05  -8.447039e+04   0.000000e+00   0.000000e+00   0.000000e+00   1.833133e+06   0.000000e+00   0.000000e+00   0.000000e+00
      944000   9.439990e-06   1.725546e+01   1.435075e+01   9.741802e+00   1.817315e+06   2.249561e+05  -8.447039e+04   0.000000e+00   0.000000e+00   0.000000e+00   1.833133e+06   0.000000e+00   0.000000e+00   0.000000e+00
      952000   9.519990e-06   1.740084e+01   1.436875e+01   9.735044e+00   1.817315e+06   2.249561e+05  -8.447039e+04   0.000000e+00   0.000000e+00   0.000000e+00   1.833133e+06   0.000000e+00   0.000000e+00   0.000000e+00
      960000   9.599990e-06   1.754623e+01   1.438675e+01   9.728286e+00   1.817315e+06   2.249561e+05  -8.447039e+04   0.000000e+00   0.000000e+00   0.000000e+00   1.833133e+06   0.000000e+00   0.000000e+00   0.000000e+00
      968000   9.679990e-06   1.769161e+01   1.440474e+01   9.721529e+00   1.817315e+06   2.249561e+05  -8.447039e+04   0.000000e+00   0.000000e+00   0.000000e+00   1.833133e+06   0.000000e+00   0.000000e+00   0.000000e+00
      976000   9.759990e-06   1.783700e+01   1.442274e+01   9.714771e+00   1.817315e+06   2.249561e+05  -8.447039e+04   0.000000e+00   0.000000e+00   0.000000e+00   1.833133e+06   0.000000e+00   0.000000e+00   0.000000e+00
      984000   9.839990e-06   1.798238e+01   1.444074e+01   9.708013e+00   1.817315e+06   2.249561e+05  -8.447039e+04   0.000000e+00   0.000000e+00   0.000000e+00   1.833133e+06   0.000000e+00   0.000000e+00   0.000000e+00
      992000   9.919990e-06   1.812777e+01   1.445873e+01   9.701256e+00   1.817315e+06   2.249561e+05  -8.447039e+04   0.000000e+00   0.000000e+00   0.000000e+00   1.833133e+06   0.000000e+00   0.000000e+00   0.000000e+00
     1000000   9.999990e-06   1.827315e+01   1.447673e+01   9.694498e+00   1.817315e+06   2.249561e+05  -8.447039e+04   0.000000e+00   0.000000e+00   0.000000e+00   1.833133e+06   0.000000e+00   0.000000e+00   0.000000e+00
     1008000   1.007999e-05   1.841854e+01   1.449473e+01   9.687740e+00   1.817315e+06   2.249561e+05  -8.447039e+04   0.000000e+00   0.000000e+00   0.000000e+00   1.833133e+06   0.000000e+00   0.000000e+00   0.000000e+00
     1016000   1.015999e-05   1.856392e+01   1.451272e+01   9.680983e+00   1.817315e+06   2.249561e+05  -8.447039e+04   0.000000e+00   0.000000e+00   0.000000e+00   1.833133e+06   0.000000e+00   0.000000e+00   0.000000e+00
     1024000   1.023999e-05   1.870931e+01   1.453072e+01   9.674225e+00   1.817315e+06   2.249561e+05  -8.447039e+04   0.000000e+00   0.000000e+00   0.000000e+00   1.833133e+06   0.000000e+00   0.000000e+00   0.000000e+00
     1032000   1.031999e-05   1.885469e+01   1.454872e+01   9.667468e+00   1.817315e+06   2.249561e+05  -8.447039e+04   0.000000e+00   0.000000e+00   0.000000e+00   1.833133e+06   0.000000e+00   0.000000e+00   0.000000e+00
     1040000   1.039999e-05   1.900008e+01   1.456671e+01   9.660710e+00   1.817315e+06   2.249561e+05  -8.447039e+04   0.000000e+00   0.000000e+00   0.000000e+00   1.833133e+06   0.000000e+00   0.000000e+00   0.000000e+00
     1048000   1.047999e-05   1.914546e+01   1.458471e+01   9.653952e+00   1.817315e+06   2.249561e+05  -8.447039e+04   0.000000e+00   0.000000e+00   0.000000e+00   1.833133e+06   0.000000e+00   0.000000e+00   0.000000e+00
     1056000   1.055999e-05   1.929085e+01   1.460270e+01   9.647195e+00   1.817315e+06   2.249561e+05  -8.447039e+04   0.000000e+00   0.000000e+00   0.000000e+00   1.833133e+06   0.000000e+00   0.000000e+00   0.000000e+00
     1064000   1.063999e-05   1.943623e+01   1.462070e+01   9.640437e+00   1.817315e+06   2.249561e+05  -8.447039e+04   0.000000e+00   0.000000e+00   0.000000e+00   1.833133e+06   0.000000e+00   0.000000e+00   0.000000e+00
     1072000   1.071999e-05   1.958162e+01   1.463870e+01   9.633679e+00   1.817315e+06   2.249561e+05  -8.447039e+04   0.000000e+00   0.000000e+00   0.000000e+00   1.833133e+06   0.000000e+00   0.000000e+00   0.000000e+00
     1080000   1.079999e-05   1.972700e+01   1.465669e+01   9.626922e+00   1.817315e+06   2.249561e+05  -8.447039e+04   0.000000e+00   0.000000e+00   0.000000e+00   1.833133e+06   0.000000e+00   0.000000e+00   0.000000e+00
     1088000   1.087999e-05   1.987239e+01   1.467469e+01   9.620164e+00   1.817315e+06   2.249561e+05  -8.447039e+04   0.000000e+00   0.000000e+00   0.000000e+00   1.833133e+06   0.000000e+00   0.000000e+00   0.000000e+00
     1096000   1.095999e-05   2.001778e+01   1.469269e+01   9.613407e+00   1.817315e+06   2.249561e+05  -8.447039e+04   0.000000e+00   0.000000e+00   0.000000e+00   1.833133e+06   0.000000e+00   0.000000e+00   0.000000e+00
     1104000   1.103999e-05   2.016316e+01   1.471068e+01   9.606649e+00   1.817315e+06   2.249561e+05  -8.447039e+04   0.000000e+00   0.000000e+00   0.000000e+00   1.833133e+06   0.000000e+00   0.000000e+00   0.000000e+00
     1112000   1.111999e-05   2.030855e+01   1.472868e+01   9.599891e+00   1.817315e+06   2.249561e+05  -8.447039e+04   0.000000e+00   0.000000e+00   0.000000e+00   1.833133e+06   0.000000e+00   0.000000e+00   0.000000e+00
     1120000   1.119999e-05   2.045393e+01   1.474668e+01   9.593134e+00   1.817315e+06   2.249561e+05  -8.447039e+04   0.000000e+00   0.000000e+00   0.000000e+00   1.833133e+06   0.000000e+00   0.000000e+00   0.000000e+00
     1128000   1.127999e-05   2.059932e+01   1.476467e+01   9.586376e+00   1.817315e+06   2.249561e+05  -8.447039e+04   0.000000e+00   0.000000e+00   0.000000e+00   1.833133e+06   0.000000e+00   0.000000e+00   0.000000e+00
     1136000   1.135999e-05   2.074470e+01   1.478267e+01   9.579618e+00   1.817315e+06   2.249561e+05  -8.447039e+04   0.000000e+00   0.000000e+00   0.000000e+00   1.833133e+06   0.000000e+00   0.000000e+00   0.000000e+00
     1144000   1.143999e-05   2.089009e+01   1.480067e+01   9.572861e+00   1.817315e+06   2.249561e+05  -8.447039e+04   0.000000e+00   0.000000e+00   0.000000e+00   1.833133e+06   0.000000e+00   0.000000e+00   0.000000e+00
     1152000   1.151999e-05   2.103547e+01   1.481866e+01   9.566103e+00   1.817315e+06   2.249561e+05  -8.447039e+04   0.000000e+00   0.000000e+00   0.000000e+00   1.833133e+06   0.000000e+00   0.000000e+00   0.000000e+00
     1160000   1.159999e-05   2.118086e+01   1.483666e+01   9.559345e+00   1.817315e+06   2.249561e+05  -8.447039e+04   0.000000e+00   0.000000e+00   0.000000e+00   1.833133e+06   0.000000e+00   0.000000e+00   0.000000e+00
     1168000   1.167999e-05   2.132624e+01   1.485466e+01   9.552588e+00   1.817315e+06   2.249561e+05  -8.447039e+04   0.000000e+00   0.000000e+00   0.000000e+00   1.833133e+06   0.000000e+00   0.000000e+00   0.000000e+00
     1176000   1.175999e-05   2.147163e+01   1.487265e+01   9.545830e+00   1.817315e+06   2.249561e+05  -8.447039e+04   0.000000e+00   0.000000e+00   0.000000e+00   1.833133e+06   0.000000e+00   0.000000e+00   0.000000e+00
     1184000   1.183999e-05   2.161701e+01   1.489065e+01   9.539073e+00   1.817315e+06   2.249561e+05  -8.447039e+04   0.000000e+00   0.000000e+00   0.000000e+00   1.833133e+06   0.000000e+00   0.000000e+00   0.000000e+00
     1192000   1.191999e-05   2.176240e+01   1.490865e+01   9.532315e+00   1.817315e+06   2.249561e+05  -8.447039e+04   0.000000e+00   0.000000e+00   0.000000e+00   1.833133e+06   0.000000e+00   0.000000e+00   0.000000e+00
     1200000   1.199999e-05   2.190778e+01   1.492664e+01   9.525557e+00   1.817315e+06   2.249561e+05  -8.447039e+04   0.000000e+00   0.000000e+00   0.000000e+00   1.833133e+06   0.000000e+00   0.000000e+00   0.000000e+00
     1208000   1.207999e-05   2.205317e+01   1.494464e+01   9.518800e+00   1.817315e+06   2.249561e+05  -8.447039e+04   0.000000e+00   0.000000e+00   0.000000e+00   1.833133e+06   0.000000e+00   0.000000e+00   0.000000e+00
     1216000   1.215999e-05   2.219855e+01   1.496263e+01   9.512042e+00   1.817315e+06   2.249561e+05  -8.447039e+04   0.000000e+00   0.000000e+00   0.000000e+00   1.833133e+06   0.000000e+00   0.000000e+00   0.000000e+00
     1224000   1.223999e-05   2.234394e+01   1.498063e+01   9.505284e+00   1.817315e+06   2.249561e+05  -8.447039e+04   0.000000e+00   0.000000e+00   0.000000e+00   1.833133e+06   0.000000e+00   0.000000e+00   0.000000e+00
     1232000   1.231999e-05   2.248932e+01   1.499863e+01   9.498527e+00   1.817315e+06   2.249561e+05  -8.447039e+04   0.000000e+00   0.000000e+00   0.000000e+00   1.833133e+06   0.000000e+00   0.000000e+00   0.000000e+00
     1240000   1.239999e-05   2.263471e+01   1.501662e+01   9.491769e+00   1.817315e+06   2.249561e+05  -8.447039e+04   0.000000e+00   0.000000e+00   0.000000e+00   1.833133e+06   0.000000e+00   0.000000e+00   0.000000e+00
     1248000   1.247999e-05   2.278009e+01   1.503462e+01   9.485012e+00   1.817315e+06   2.249561e+05  -8.447039e+04   0.000000e+00   0.000000e+00   0.000000e+00   1.833133e+06   0.000000e+00   0.000000e+00   0.000000e+00
     1256000   1.255999e-05   2.292548e+01   1.505262e+01   9.478254e+00   1.817315e+06   2.249561e+05  -8.447039e+04   0.000000e+00   0.000000e+00   0.000000e+00   1.833133e+06   0.000000e+00   0.000000e+00   0.000000e+00
     1264000   1.263999e-05   2.307086e+01   1.507061e+01   9.471496e+00   1.817315e+06   2.249561e+05  -8.447039e+04   0.000000e+00   0.000000e+00   0.000000e+00   1.833133e+06   0.000000e+00   0.000000e+00   0.000000e+00
     1272000   1.271999e-05   2.321625e+01   1.508861e+01   9.464739e+00   1.817315e+06   2.249561e+05  -8.447039e+04   0.000000e+00   0.000000e+00   0.000000e+00   1.833133e+06   0.000000e+00   0.000000e+00   0.000000e+00
     1280000   1.279999e-05   2.336164e+01   1.510661e+01   9.457981e+00   1.817315e+06   2.249561e+05  -8.447039e+04   0.000000e+00   0.000000e+00   0.000000e+00   1.833133e+06   0.000000e+00   0.000000e+00   0.000000e+00
     1288000   1.287999e-05   2.350702e+01   1.512460e+01   9.451223e+00   1.817315e+06   2.249561e+05  -8.447039e+04   0.000000e+00   0.000000e+00   0.000000e+00   1.833133e+06   0.000000e+00   0.000000e+00   0.000000e+00
     1296000   1.295999e-05   2.365241e+01   1.514260e+01   9.444466e+00   1.817315e+06   2.249561e+05  -8.447039e+04   0.000000e+00   0.000000e+00   0.000000e+00   1.833133e+06   0.000000e+00   0.000000e+00   0.000000e+00
     1304000   1.303999e-05   2.379779e+01   1.516060e+01   9.437708e+00   1.817315e+06   2.249561e+05  -8.447039e+04   0.000000e+00   0.000000e+00   0.000000e+00   1.833133e+06   0.000000e+00   0.000000e+00   0.000000e+00
     1312000   1.311999e-05   2.394318e+01   1.517859e+01   9.430950e+00   1.817315e+06   2.249561e+05  -8.447039e+04   0.000000e+00   0.000000e+00   0.000000e+00   1.833133e+06   0.000000e+00   0.000000e+00   0.000000e+00
     1320000   1.319999e-05   2.408856e+01   1.519659e+01   9.424193e+00   1.817315e+06   2.249561e+05  -8.447039e+04   0.000000e+00   0.000000e+00   0.000000e+00   1.833133e+06   0.000000e+00   0.000000e+00   0.000000e+00
     1328000   1.327999e-05   2.423395e+01   1.521459e+01   9.417435e+00   1.817315e+06   2.249561e+05  -8.447039e+04   0.000000e+00   0.000000e+00   0.000000e+00   1.833133e+06   0.000000e+00   0.000000e+00   0.000000e+00
     1336000   1.335999e-05   2.437933e+01   1.523258e+01   9.410678e+00   1.817315e+06   2.249561e+05  -8.447039e+04   0.000000e+00   0.000000e+00   0.000000e+00   1.833133e+06   0.000000e+00   0.000000e+00   0.000000e+00
     1344000   1.343999e-05   2.452472e+01   1.525058e+01   9.403920e+00   1.817315e+06   2.249561e+05  -8.447039e+04   0.000000e+00   0.000000e+00   0.000000e+00   1.833133e+06   0.000000e+00   0.000000e+00   0.000000e+00
     1352000   1.351999e-05   2.467010e+01   1.526857e+01   9.397162e+00   1.817315e+06   2.249561e+05  -8.447039e+04   0.000000e+00   0.000000e+00   0.000000e+00   1.833133e+06   0.000000e+00   0.000000e+00   0.000000e+00
     1360000   1.359999e-05   2.481549e+01   1.528657e+01   9.390405e+00   1.817315e+06   2.249561e+05  -8.447039e+04   0.000000e+00   0.000000e+00   0.000000e+00   1.833133e+06   0.000000e+00   0.000000e+00   0.000000e+00
     1368000   1.367999e-05   2.496087e+01   1.530457e+01   9.383647e+00   1.817315e+06   2.249561e+05  -8.447039e+04   0.000000e+00   0.000000e+00   0.000000e+00   1.833133e+06   0.000000e+00   0.000000e+00   0.000000e+00
     1376000   1.375999e-05   2.510626e+01   1.532256e+01   9.376889e+00   1.817315e+06   2.249561e+05  -8.447039e+04   0.000000e+00   0.000000e+00   0.000000e+00   1.833133e+06   0.000000e+00   0.000000e+00   0.000000e+00
     1384000   1.383999e-05   2.525164e+01   1.534056e+01   9.370132e+00   1.817315e+06   2.249561e+05  -8.447039e+04   0.000000e+00   0.000000e+00   0.000000e+00   1.833133e+06   0.000000e+00   0.000000e+00   0.000000e+00
     1392000   1.391999e-05   2.539703e+01   1.535856e+01   9.363374e+00   1.817315e+06   2.249561e+05  -8.447039e+04   0.000000e+00   0.000000e+00   0.000000e+00   1.833133e+06   0.000000e+00   0.000000e+00   0.000000e+00
     1400000   1.399999e-05   2.554241e+01   1.537655e+01   9.356617e+00   1.817315e+06   2.249561e+05  -8.447039e+04   0.000000e+00   0.000000e+00   0.000000e+00   1.833133e+06   0.000000e+00   0.000000e+00   0.000000e+00
     1408000   1.407999e-05   2.568780e+01   1.539455e+01   9.349859e+00   1.817315e+06   2.249561e+05  -8.447039e+04   0.000000e+00   0.000000e+00   0.000000e+00   1.833133e+06   0.000000e+00   0.000000e+00   0.000000e+00
     1416000   1.415999e-05   2.583318e+01   1.541255e+01   9.343101e+00   1.817315e+06   2.249561e+05  -8.447039e+04   0.000000e+00   0.000000e+00   0.000000e+00   1.833133e+06   0.000000e+00   0.000000e+00   0.000000e+00
     1424000   1.423999e-05   2.597857e+01   1.543054e+01   9.336344e+00   1.817315e+06   2.249561e+05  -8.447039e+04   0.000000e+00   0.000000e+00   0.000000e+00   1.833133e+06   0.000000e+00   0.000000e+00   0.000000e+00
     1432000   1.431999e-05   2.612395e+01   1.544854e+01   9.329586e+00   1.817315e+06   2.249561e+05  -8.447039e+04   0.000000e+00   0.000000e+00   0.000000e+00   1.833133e+06   0.000000e+00   0.000000e+00   0.000000e+00
     1440000   1.439999e-05   2.626934e+01   1.546654e+01   9.322828e+00   1.817315e+06   2.249561e+05  -8.447039e+04   0.000000e+00   0.000000e+00   0.000000e+00   1.833133e+06   0.000000e+00   0.000000e+00   0.000000e+00
     1448000   1.447999e-05   2.641472e+01   1.548453e+01   9.316071e+00   1.817315e+06   2.249561e+05  -8.447039e+04   0.000000e+00   0.000000e+00   0.000000e+00   1.833133e+06   0.000000e+00   0.000000e+00   0.000000e+00
     1456000   1.455999e-05   2.656011e+01   1.550253e+01   9.309313e+00   1.817315e+06   2.249561e+05  -8.447039e+04   0.000000e+00   0.000000e+00   0.000000e+00   1.833133e+06   0.000000e+00   0.000000e+00   0.000000e+00
     1464000   1.463999e-05   2.670550e+01   1.552053e+01   9.302555e+00   1.817315e+06   2.249561e+05  -8.447039e+04   0.000000e+00   0.000000e+00   0.000000e+00   1.833133e+06   0.000000e+00   0.000000e+00   0.000000e+00
     1472000   1.471999e-05   2.685088e+01   1.553852e+01   9.295798e+00   1.817315e+06   2.249561e+05  -8.447039e+04   0.000000e+00   0.000000e+00   0.000000e+00   1.833133e+06   0.000000e+00   0.000000e+00   0.000000e+00
     1480000   1.479999e-05   2.699627e+01   1.555652e+01   9.289040e+00   1.817315e+06   2.249561e+05  -8.447039e+04   0.000000e+00   0.000000e+00   0.000000e+00   1.833133e+06   0.000000e+00   0.000000e+00   0.000000e+00
     1488000   1.487999e-05   2.714165e+01   1.557452e+01   9.282283e+00   1.817315e+06   2.249561e+05  -8.447039e+04   0.000000e+00   0.000000e+00   0.000000e+00   1.833133e+06   0.000000e+00   0.000000e+00   0.000000e+00
     1496000   1.495999e-05   2.728704e+01   1.559251e+01   9.275525e+00   1.817315e+06   2.249561e+05  -8.447039e+04   0.000000e+00   0.000000e+00   0.000000e+00   1.833133e+06   0.000000e+00   0.000000e+00   0.000000e+00
     1504000   1.503999e-05   2.743242e+01   1.561051e+01   9.268767e+00   1.817315e+06   2.249561e+05  -8.447039e+04   0.000000e+00   0.000000e+00   0.000000e+00   1.833133e+06   0.000000e+00   0.000000e+00   0.000000e+00
     1512000   1.511999e-05   2.757781e+01   1.562850e+01   9.262010e+00   1.817315e+06   2.249561e+05  -8.447039e+04   0.000000e+00   0.000000e+00   0.000000e+00   1.833133e+06   0.000000e+00   0.000000e+00   0.000000e+00
     1520000   1.519999e-05   2.772319e+01   1.564650e+01   9.255252e+00   1.817315e+06   2.249561e+05  -8.447039e+04   0.000000e+00   0.000000e+00   0.000000e+00   1.833133e+06   0.000000e+00   0.000000e+00   0.000000e+00
     1528000   1.527999e-05   2.786858e+01   1.566450e+01   9.248494e+00   1.817315e+06   2.249561e+05  -8.447039e+04   0.000000e+00   0.000000e+00   0.000000e+00   1.833133e+06   0.000000e+00   0.000000e+00   0.000000e+00
     1536000   1.535999e-05   2.801396e+01   1.568249e+01   9.241737e+00   1.817315e+06   2.249561e+05  -8.447039e+04   0.000000e+00   0.000000e+00   0.000000e+00   1.833133e+06   0.000000e+00   0.000000e+00   0.000000e+00
     1544000   1.543999e-05   2.815935e+01   1.570049e+01   9.234979e+00   1.817315e+06   2.249561e+05  -8.447039e+04   0.000000e+00   0.000000e+00   0.000000e+00   1.833133e+06   0.000000e+00   0.000000e+00   0.000000e+00
     1552000   1.551999e-05   2.830473e+01   1.571849e+01   9.228222e+00   1.817315e+06   2.249561e+05  -8.447039e+04   0.000000e+00   0.000000e+00   0.000000e+00   1.833133e+06   0.000000e+00   0.000000e+00   0.000000e+00
     1560000   1.559999e-05   2.845012e+01   1.573648e+01   9.221464e+00   1.817315e+06   2.249561e+05  -8.447039e+04   0.000000e+00   0.000000e+00   0.000000e+00   1.833133e+06   0.000000e+00   0.000000e+00   0.000000e+00
     1568000   1.567999e-05   2.859550e+01   1.575448e+01   9.214706e+00   1.817315e+06   2.249561e+05  -8.447039e+04   0.000000e+00   0.000000e+00   0.000000e+00   1.833133e+06   0.000000e+00   0.000000e+00   0.000000e+00
     1576000   1.575999e-05   2.874089e+01   1.577248e+01   9.207949e+00   1.817315e+06   2.249561e+05  -8.447039e+04   0.000000e+00   0.000000e+00   0.000000e+00   1.833133e+06   0.000000e+00   0.000000e+00   0.000000e+00
     1584000   1.583999e-05   2.888627e+01   1.579047e+01   9.201191e+00   1.817315e+06   2.249561e+05  -8.447039e+04   0.000000e+00   0.000000e+00   0.000000e+00   1.833133e+06   0.000000e+00   0.000000e+00   0.000000e+00
     1592000   1.591999e-05   2.903166e+01   1.580847e+01   9.194433e+00   1.817315e+06   2.249561e+05  -8.447039e+04   0.000000e+00   0.000000e+00   0.000000e+00   1.833133e+06   0.000000e+00   0.000000e+00   0.000000e+00
     1600000   1.599999e-05   2.917704e+01   1.582647e+01   9.187676e+00   1.817315e+06   2.249561e+05  -8.447039e+04   0.000000e+00   0.000000e+00   0.000000e+00   1.833133e+06   0.000000e+00   0.000000e+00   0.000000e+00
     1608000   1.607999e-05   2.932243e+01   1.584446e+01   9.180918e+00   1.817315e+06   2.249561e+05  -8.447039e+04   0.000000e+00   0.000000e+00   0.000000e+00   1.833133e+06   0.000000e+00   0.000000e+00   0.000000e+00
     1616000   1.615999e-05   2.946781e+01   1.586246e+01   9.174160e+00   1.817315e+06   2.249561e+05  -8.447039e+04   0.000000e+00   0.000000e+00   0.000000e+00   1.833133e+06   0.000000e+00   0.000000e+00   0.000000e+00
     1624000   1.623999e-05   2.961320e+01   1.588046e+01   9.167403e+00   1.817315e+06   2.249561e+05  -8.447039e+04   0.000000e+00   0.000000e+00   0.000000e+00   1.833133e+06   0.000000e+00   0.000000e+00   0.000000e+00
     1632000   1.631999e-05   2.975858e+01   1.589845e+01   9.160645e+00   1.817315e+06   2.249561e+05  -8.447039e+04   0.000000e+00   0.000000e+00   0.000000e+00   1.833133e+06   0.000000e+00   0.000000e+00   0.000000e+00
     1640000   1.639999e-05   2.990397e+01   1.591645e+01   9.153888e+00   1.817315e+06   2.249561e+05  -8.447039e+04   0.000000e+00   0.000000e+00   0.000000e+00   1.833133e+06   0.000000e+00   0.000000e+00   0.000000e+00
     1648000   1.647999e-05   3.004936e+01   1.593445e+01   9.147130e+00   1.817315e+06   2.249561e+05  -8.447039e+04   0.000000e+00   0.000000e+00   0.000000e+00   1.833133e+06   0.000000e+00   0.000000e+00   0.000000e+00
     1656000   1.655999e-05   3.019474e+01   1.595244e+01   9.140372e+00   1.817315e+06   2.249561e+05  -8.447039e+04   0.000000e+00   0.000000e+00   0.000000e+00   1.833133e+06   0.000000e+00   0.000000e+00   0.000000e+00
     1664000   1.663999e-05   3.034013e+01   1.597044e+01   9.133615e+00   1.817315e+06   2.249561e+05  -8.447039e+04   0.000000e+00   0.000000e+00   0.000000e+00   1.833133e+06   0.000000e+00   0.000000e+00   0.000000e+00
     1672000   1.671999e-05   3.048551e+01   1.598843e+01   9.126857e+00   1.817315e+06   2.249561e+05  -8.447039e+04   0.000000e+00   0.000000e+00   0.000000e+00   1.833133e+06   0.000000e+00   0.000000e+00   0.000000e+00
     1680000   1.679999e-05   3.063090e+01   1.600643e+01   9.120099e+00   1.817315e+06   2.249561e+05  -8.447039e+04   0.000000e+00   0.000000e+00   0.000000e+00   1.833133e+06   0.000000e+00   0.000000e+00   0.000000e+00
     1688000   1.687999e-05   3.077628e+01   1.602443e+01   9.113342e+00   1.817315e+06   2.249561e+05  -8.447039e+04   0.000000e+00   0.000000e+00   0.000000e+00   1.833133e+06   0.000000e+00   0.000000e+00   0.000000e+00
     1696000   1.695999e-05   3.092167e+01   1.604242e+01   9.106584e+00   1.817315e+06   2.249561e+05  -8.447039e+04   0.000000e+00   0.000000e+00   0.000000e+00   1.833133e+06   0.000000e+00   0.000000e+00   0.000000e+00
     1704000   1.703999e-05   3.106705e+01   1.606042e+01   9.099827e+00   1.817315e+06   2.249561e+05  -8.447039e+04   0.000000e+00   0.000000e+00   0.000000e+00   1.833133e+06   0.000000e+00   0.000000e+00   0.000000e+00
     1712000   1.711999e-05   3.121244e+01   1.607842e+01   9.093069e+00   1.817315e+06   2.249561e+05  -8.447039e+04   0.000000e+00   0.000000e+00   0.000000e+00   1.833133e+06   0.000000e+00   0.000000e+00   0.000000e+00
     1720000   1.719999e-05   3.135782e+01   1.609641e+01   9.086311e+00   1.817315e+06   2.249561e+05  -8.447039e+04   0.000000e+00   0.000000e+00   0.000000e+00   1.833133e+06   0.000000e+00   0.000000e+00   0.000000e+00
     1728000   1.727999e-05   3.150321e+01   1.611441e+01   9.079554e+00   1.817315e+06   2.249561e+05  -8.447039e+04   0.000000e+00   0.000000e+00   0.000000e+00   1.833133e+06   0.000000e+00   0.000000e+00   0.000000e+00
     1736000   1.735999e-05   3.164859e+01   1.613241e+01   9.072796e+00   1.817315e+06   2.249561e+05  -8.447039e+04   0.000000e+00   0.000000e+00   0.000000e+00   1.833133e+06   0.000000e+00   0.000000e+00   0.000000e+00
     1744000   1.743999e-05   3.179398e+01   1.615040e+01   9.066038e+00   1.817315e+06   2.249561e+05  -8.447039e+04   0.000000e+00   0.000000e+00   0.000000e+00   1.833133e+06   0.000000e+00   0.000000e+00   0.000000e+00
     1752000   1.751999e-05   3.193936e+01   1.616840e+01   9.059281e+00   1.817315e+06   2.249561e+05  -8.447039e+04   0.000000e+00   0.000000e+00   0.000000e+00   1.833133e+06   0.000000e+00   0.000000e+00   0.000000e+00
     1760000   1.759999e-05   3.208475e+01   1.618640e+01   9.052523e+00   1.817315e+06   2.249561e+05  -8.447039e+04   0.000000e+00   0.000000e+00   0.000000e+00   1.833133e+06   0.000000e+00   0.000000e+00   0.000000e+00
     1768000   1.767999e-05   3.223013e+01   1.620439e+01   9.045765e+00   1.817315e+06   2.249561e+05  -8.447039e+04   0.000000e+00   0.000000e+00   0.000000e+00   1.833133e+06   0.000000e+00   0.000000e+00   0.000000e+00
     1776000   1.775999e-05   3.237552e+01   1.622239e+01   9.039008e+00   1.817315e+06   2.249561e+05  -8.447039e+04   0.000000e+00   0.000000e+00   0.000000e+00   1.833133e+06   0.000000e+00   0.000000e+00   0.000000e+00
     1784000   1.783999e-05   3.252090e+01   1.624039e+01   9.032250e+00   1.817315e+06   2.249561e+05  -8.447039e+04   0.000000e+00   0.000000e+00   0.000000e+00   1.833133e+06   0.000000e+00   0.000000e+00   0.000000e+00
     1792000   1.791999e-05   3.266629e+01   1.625838e+01   9.025493e+00   1.817315e+06   2.249561e+05  -8.447039e+04   0.000000e+00   0.000000e+00   0.000000e+00   1.833133e+06   0.000000e+00   0.000000e+00   0.000000e+00
     1800000   1.799999e-05   3.281167e+01   1.627638e+01   9.018735e+00   1.817315e+06   2.249561e+05  -8.447039e+04   0.000000e+00   0.000000e+00   0.000000e+00   1.833133e+06   0.000000e+00   0.000000e+00   0.000000e+00
     1808000   1.807999e-05   3.295706e+01   1.629437e+01   9.011977e+00   1.817315e+06   2.249561e+05  -8.447039e+04   0.000000e+00   0.000000e+00   0.000000e+00   1.833133e+06   0.000000e+00   0.000000e+00   0.000000e+00
     1816000   1.815999e-05   3.310245e+01   1.631237e+01   9.005220e+00   1.817315e+06   2.249561e+05  -8.447039e+04   0.000000e+00   0.000000e+00   0.000000e+00   1.833133e+06   0.000000e+00   0.000000e+00   0.000000e+00
     1824000   1.823999e-05   3.324783e+01   1.633037e+01   8.998462e+00   1.817315e+06   2.249561e+05  -8.447039e+04   0.000000e+00   0.000000e+00   0.000000e+00   1.833133e+06   0.000000e+00   0.000000e+00   0.000000e+00
     1832000   1.831999e-05   3.339322e+01   1.634836e+01   8.991704e+00   1.817315e+06   2.249561e+05  -8.447039e+04   0.000000e+00   0.000000e+00   0.000000e+00   1.833133e+06   0.000000e+00   0.000000e+00   0.000000e+00
     1840000   1.839999e-05   3.353860e+01   1.636636e+01   8.984947e+00   1.817315e+06   2.249561e+05  -8.447039e+04   0.000000e+00   0.000000e+00   0.000000e+00   1.833133e+06   0.000000e+00   0.000000e+00   0.000000e+00
     1848000   1.847999e-05   3.368399e+01   1.638436e+01   8.978189e+00   1.817315e+06   2.249561e+05  -8.447039e+04   0.000000e+00   0.000000e+00   0.000000e+00   1.833133e+06   0.000000e+00   0.000000e+00   0.000000e+00
     1856000   1.855999e-05   3.382937e+01   1.640235e+01   8.971432e+00   1.817315e+06   2.249561e+05  -8.447039e+04   0.000000e+00   0.000000e+00   0.000000e+00   1.833133e+06   0.000000e+00   0.000000e+00   0.000000e+00
     1864000   1.863999e-05   3.397476e+01   1.642035e+01   8.964674e+00   1.817315e+06   2.249561e+05  -8.447039e+04   0.000000e+00   0.000000e+00   0.000000e+00   1.833133e+06   0.000000e+00   0.000000e+00   0.000000e+00
     1872000   1.871999e-05   3.412014e+01   1.643835e+01   8.957916e+00   1.817315e+06   2.249561e+05  -8.447039e+04   0.000000e+00   0.000000e+00   0.000000e+00   1.833133e+06   0.000000e+00   0.000000e+00   0.000000e+00
     1880000   1.879999e-05   3.426553e+01   1.645634e+01   8.951159e+00   1.817315e+06   2.249561e+05  -8.447039e+04   0.000000e+00   0.000000e+00   0.000000e+00   1.833133e+06   0.000000e+00   0.000000e+00   0.000000e+00
     1888000   1.887999e-05   3.441091e+01   1.647434e+01   8.944401e+00   1.817315e+06   2.249561e+05  -8.447039e+04   0.000000e+00   0.000000e+00   0.000000e+00   1.833133e+06   0.000000e+00   0.000000e+00   0.000000e+00
     1896000   1.895999e-05   3.455630e+01   1.649234e+01   8.937643e+00   1.817315e+06   2.249561e+05  -8.447039e+04   0.000000e+00   0.000000e+00   0.000000e+00   1.833133e+06   0.000000e+00   0.000000e+00   0.000000e+00
     1904000   1.903999e-05   3.470168e+01   1.651033e+01   8.930886e+00   1.817315e+06   2.249561e+05  -8.447039e+04   0.000000e+00   0.000000e+00   0.000000e+00   1.833133e+06   0.000000e+00   0.000000e+00   0.000000e+00
     1912000   1.911999e-05   3.484707e+01   1.652833e+01   8.924128e+00   1.817315e+06   2.249561e+05  -8.447039e+04   0.000000e+00   0.000000e+00   0.000000e+00   1.833133e+06   0.000000e+00   0.000000e+00   0.000000e+00
     1920000   1.919999e-05   3.499245e+01   1.654633e+01   8.917370e+00   1.817315e+06   2.249561e+05  -8.447039e+04   0.000000e+00   0.000000e+00   0.000000e+00   1.833133e+06   0.000000e+00   0.000000e+00   0.000000e+00
     1928000   1.927999e-05   3.513784e+01   1.656432e+01   8.910613e+00   1.817315e+06   2.249561e+05  -8.447039e+04   0.000000e+00   0.000000e+00   0.000000e+00   1.833133e+06   0.000000e+00   0.000000e+00   0.000000e+00
     1936000   1.935999e-05   3.528322e+01   1.658232e+01   8.903855e+00   1.817315e+06   2.249561e+05  -8.447039e+04   0.000000e+00   0.000000e+00   0.000000e+00   1.833133e+06   0.000000e+00   0.000000e+00   0.000000e+00
     1944000   1.943999e-05   3.542861e+01   1.660032e+01   8.897098e+00   1.817315e+06   2.249561e+05  -8.447039e+04   0.000000e+00   0.000000e+00   0.000000e+00   1.833133e+06   0.000000e+00   0.000000e+00   0.000000e+00
     1952000   1.951999e-05   3.557399e+01   1.661831e+01   8.890340e+00   1.817315e+06   2.249561e+05  -8.447039e+04   0.000000e+00   0.000000e+00   0.000000e+00   1.833133e+06   0.000000e+00   0.000000e+00   0.000000e+00
     1960000   1.959999e-05   3.571938e+01   1.663631e+01   8.883582e+00   1.817315e+06   2.249561e+05  -8.447039e+04   0.000000e+00   0.000000e+00   0.000000e+00   1.833133e+06   0.000000e+00   0.000000e+00   0.000000e+00
     1968000   1.967999e-05   3.586476e+01   1.665430e+01   8.876825e+00   1.817315e+06   2.249561e+05  -8.447039e+04   0.000000e+00   0.000000e+00   0.000000e+00   1.833133e+06   0.000000e+00   0.000000e+00   0.000000e+00
     1976000   1.975999e-05   3.601015e+01   1.667230e+01   8.870067e+00   1.817315e+06   2.249561e+05  -8.447039e+04   0.000000e+00   0.000000e+00   0.000000e+00   1.833133e+06   0.000000e+00   0.000000e+00   0.000000e+00
     1984000   1.983999e-05   3.615553e+01   1.669030e+01   8.863309e+00   1.817315e+06   2.249561e+05  -8.447039e+04   0.000000e+00   0.000000e+00   0.000000e+00   1.833133e+06   0.000000e+00   0.000000e+00   0.000000e+00
     1992000   1.991999e-05   3.630092e+01   1.670829e+01   8.856552e+00   1.817315e+06   2.249561e+05  -8.447039e+04   0.000000e+00   0.000000e+00   0.000000e+00   1.833133e+06   0.000000e+00   0.000000e+00   0.000000e+00
     2000000   1.999999e-05   3.644631e+01   1.672629e+01   8.849794e+00   1.817315e+06   2.249561e+05  -8.447039e+04   0.000000e+00   0.000000e+00   0.000000e+00   1.833133e+06   0.000000e+00   0.000000e+00   0.000000e+00
     2008000   2.007999e-05   3.659169e+01   1.674429e+01   8.843037e+00   1.817315e+06   2.249561e+05  -8.447039e+04   0.000000e+00   0.000000e+00   0.000000e+00   1.833133e+06   0.000000e+00   0.000000e+00   0.000000e+00
     2016000   2.015999e-05   3.673708e+01   1.676228e+01   8.836279e+00   1.817315e+06   2.249561e+05  -8.447039e+04   0.000000e+00   0.000000e+00   0.000000e+00   1.833133e+06   0.000000e+00   0.000000e+00   0.000000e+00
     2024000   2.023999e-05   3.688246e+01   1.678028e+01   8.829521e+00   1.817315e+06   2.249561e+05  -8.447039e+04   0.000000e+00   0.000000e+00   0.000000e+00   1.833133e+06   0.000000e+00   0.000000e+00   0.000000e+00
     2032000   2.031999e-05   3.702785e+01   1.679828e+01   8.822764e+00   1.817315e+06   2.249561e+05  -8.447039e+04   0.000000e+00   0.000000e+00   0.000000e+00   1.833133e+06   0.000000e+00   0.000000e+00   0.000000e+00
     2040000   2.039999e-05   3.717323e+01   1.681627e+01   8.816006e+00   1.817315e+06   2.249561e+05  -8.447039e+04   0.000000e+00   0.000000e+00   0.000000e+00   1.833133e+06   0.000000e+00   0.000000e+00   0.000000e+00
     2048000   2.047999e-05   3.731862e+01   1.683427e+01   8.809248e+00   1.817315e+06   2.249561e+05  -8.447039e+04   0.000000e+00   0.000000e+00   0.000000e+00   1.833133e+06   0.000000e+00   0.000000e+00   0.000000e+00
     2056000   2.055999e-05   3.746400e+01   1.685227e+01   8.802491e+00   1.817315e+06   2.249561e+05  -8.447039e+04   0.000000e+00   0.000000e+00   0.000000e+00   1.833133e+06   0.000000e+00   0.000000e+00   0.000000e+00
     2064000   2.063999e-05   3.760939e+01   1.687026e+01   8.795733e+00   1.817315e+06   2.249561e+05  -8.447039e+04   0.000000e+00   0.000000e+00   0.000000e+00   1.833133e+06   0.000000e+00   0.000000e+00   0.000000e+00
     2072000   2.071999e-05   3.775477e+01   1.688826e+01   8.788975e+00   1.817315e+06   2.249561e+05  -8.447039e+04   0.000000e+00   0.000000e+00   0.000000e+00   1.833133e+06   0.000000e+00   0.000000e+00   0.000000e+00
     2080000   2.079999e-05   3.790016e+01   1.690626e+01   8.782218e+00   1.817315e+06   2.249561e+05  -8.447039e+04   0.000000e+00   0.000000e+00   0.000000e+00   1.833133e+06   0.000000e+00   0.000000e+00   0.000000e+00
     2088000   2.087999e-05   3.804554e+01   1.692425e+01   8.775460e+00   1.817315e+06   2.249561e+05  -8.447039e+04   0.000000e+00   0.000000e+00   0.000000e+00   1.833133e+06   0.000000e+00   0.000000e+00   0.000000e+00
     2096000   2.095999e-05   3.819093e+01   1.694225e+01   8.768703e+00   1.817315e+06   2.249561e+05  -8.447039e+04   0.000000e+00   0.000000e+00   0.000000e+00   1.833133e+06   0.000000e+00   0.000000e+00   0.000000e+00
     2104000   2.103999e-05   3.833631e+01   1.696025e+01   8.761945e+00   1.817315e+06   2.249561e+05  -8.447039e+04   0.000000e+00   0.000000e+00   0.000000e+00   1.833133e+06   0.000000e+00   0.000000e+00   0.000000e+00
     2112000   2.111999e-05   3.848170e+01   1.697824e+01   8.755187e+00   1.817315e+06   2.249561e+05  -8.447039e+04   0.000000e+00   0.000000e+00   0.000000e+00   1.833133e+06   0.000000e+00   0.000000e+00   0.000000e+00
     2120000   2.119999e-05   3.862708e+01   1.699624e+01   8.748430e+00   1.817315e+06   2.249561e+05  -8.447039e+04   0.000000e+00   0.000000e+00   0.000000e+00   1.833133e+06   0.000000e+00   0.000000e+00   0.000000e+00
     2128000   2.127999e-05   3.877247e+01   1.701423e+01   8.741672e+00   1.817315e+06   2.249561e+05  -8.447039e+04   0.000000e+00   0.000000e+00   0.000000e+00   1.833133e+06   0.000000e+00   0.000000e+00   0.000000e+00
     2136000   2.135999e-05   3.891785e+01   1.703223e+01   8.734914e+00   1.817315e+06   2.249561e+05  -8.447039e+04   0.000000e+00   0.000000e+00   0.000000e+00   1.833133e+06   0.000000e+00   0.000000e+00   0.000000e+00
     2144000   2.143999e-05   3.906324e+01   1.705023e+01   8.728157e+00   1.817315e+06   2.249561e+05  -8.447039e+04   0.000000e+00   0.000000e+00   0.000000e+00   1.833133e+06   0.000000e+00   0.000000e+00   0.000000e+00
     2152000   2.151999e-05   3.920862e+01   1.706822e+01   8.721399e+00   1.817315e+06   2.249561e+05  -8.447039e+04   0.000000e+00   0.000000e+00   0.000000e+00   1.833133e+06   0.000000e+00   0.000000e+00   0.000000e+00
     2160000   2.159999e-05   3.935401e+01   1.708622e+01   8.714642e+00   1.817315e+06   2.249561e+05  -8.447039e+04   0.000000e+00   0.000000e+00   0.000000e+00   1.833133e+06   0.000000e+00   0.000000e+00   0.000000e+00
     2168000   2.167999e-05   3.949939e+01   1.710422e+01   8.707884e+00   1.817315e+06   2.249561e+05  -8.447039e+04   0.000000e+00   0.000000e+00   0.000000e+00   1.833133e+06   0.000000e+00   0.000000e+00   0.000000e+00
     2176000   2.175999e-05   3.964478e+01   1.712221e+01   8.701126e+00   1.817315e+06   2.249561e+05  -8.447039e+04   0.000000e+00   0.000000e+00   0.000000e+00   1.833133e+06   0.000000e+00   0.000000e+00   0.000000e+00
     2184000   2.183999e-05   3.979017e+01   1.714021e+01   8.694369e+00   1.817315e+06   2.249561e+05  -8.447039e+04   0.000000e+00   0.000000e+00   0.000000e+00   1.833133e+06   0.000000e+00   0.000000e+00   0.000000e+00
     2192000   2.191999e-05   3.993555e+01   1.715821e+01   8.687611e+00   1.817315e+06   2.249561e+05  -8.447039e+04   0.000000e+00   0.000000e+00   0.000000e+00   1.833133e+06   0.000000e+00   0.000000e+00   0.000000e+00
     2200000   2.199999e-05   4.008094e+01   1.717620e+01   8.680853e+00   1.817315e+06   2.249561e+05  -8.447039e+04   0.000000e+00   0.000000e+00   0.000000e+00   1.833133e+06   0.000000e+00   0.000000e+00   0.000000e+00
     2208000   2.207999e-05   4.022632e+01   1.719420e+01   8.674096e+00   1.817315e+06   2.249561e+05  -8.447039e+04   0.000000e+00   0.000000e+00   0.000000e+00   1.833133e+06   0.000000e+00   0.000000e+00   0.000000e+00
     2216000   2.215999e-05   4.037171e+01   1.721220e+01   8.667338e+00   1.817315e+06   2.249561e+05  -8.447039e+04   0.000000e+00   0.000000e+00   0.000000e+00   1.833133e+06   0.000000e+00   0.000000e+00   0.000000e+00
     2224000   2.223999e-05   4.051709e+01   1.723019e+01   8.660580e+00   1.817315e+06   2.249561e+05  -8.447039e+04   0.000000e+00   0.000000e+00   0.000000e+00   1.833133e+06   0.000000e+00   0.000000e+00   0.000000e+00
     2232000   2.231999e-05   4.066248e+01   1.724819e+01   8.653823e+00   1.817315e+06   2.249561e+05  -8.447039e+04   0.000000e+00   0.000000e+00   0.000000e+00   1.833133e+06   0.000000e+00   0.000000e+00   0.000000e+00
     2240000   2.239999e-05   4.080786e+01   1.726619e+01   8.647065e+00   1.817315e+06   2.249561e+05  -8.447039e+04   0.000000e+00   0.000000e+00   0.000000e+00   1.833133e+06   0.000000e+00   0.000000e+00   0.000000e+00
     2248000   2.247999e-05   4.095325e+01   1.728418e+01   8.640308e+00   1.817315e+06   2.249561e+05  -8.447039e+04   0.000000e+00   0.000000e+00   0.000000e+00   1.833133e+06   0.000000e+00   0.000000e+00   0.000000e+00
     2256000   2.255999e-05   4.109863e+01   1.730218e+01   8.633550e+00   1.817315e+06   2.249561e+05  -8.447039e+04   0.000000e+00   0.000000e+00   0.000000e+00   1.833133e+06   0.000000e+00   0.000000e+00   0.000000e+00
     2264000   2.263999e-05   4.124402e+01   1.732017e+01   8.626792e+00   1.817315e+06   2.249561e+05  -8.447039e+04   0.000000e+00   0.000000e+00   0.000000e+00   1.833133e+06   0.000000e+00   0.000000e+00   0.000000e+00
     2272000   2.271999e-05   4.138940e+01   1.733817e+01   8.620035e+00   1.817315e+06   2.249561e+05  -8.447039e+04   0.000000e+00   0.000000e+00   0.000000e+00   1.833133e+06   0.000000e+00   0.000000e+00   0.000000e+00
     2280000   2.279999e-05   4.153479e+01   1.735617e+01   8.613277e+00   1.817315e+06   2.249561e+05  -8.447039e+04   0.000000e+00   0.000000e+00   0.000000e+00   1.833133e+06   0.000000e+00   0.000000e+00   0.000000e+00
     2288000   2.287999e-05   4.168017e+01   1.737416e+01   8.606519e+00   1.817315e+06   2.249561e+05  -8.447039e+04   0.000000e+00   0.000000e+00   0.000000e+00   1.833133e+06   0.000000e+00   0.000000e+00   0.000000e+00
     2296000   2.295999e-05   4.182556e+01   1.739216e+01   8.599762e+00   1.817315e+06   2.249561e+05  -8.447039e+04   0.000000e+00   0.000000e+00   0.000000e+00   1.833133e+06   0.000000e+00   0.000000e+00   0.000000e+00
     2304000   2.303999e-05   4.197094e+01   1.741016e+01   8.593004e+00   1.817315e+06   2.249561e+05  -8.447039e+04   0.000000e+00   0.000000e+00   0.000000e+00   1.833133e+06   0.000000e+00   0.000000e+00   0.000000e+00
     2312000   2.311999e-05   4.211633e+01   1.742815e+01   8.586247e+00   1.817315e+06   2.249561e+05  -8.447039e+04   0.000000e+00   0.000000e+00   0.000000e+00   1.833133e+06   0.000000e+00   0.000000e+00   0.000000e+00
     2320000   2.319999e-05   4.226171e+01   1.744615e+01   8.579489e+00   1.817315e+06   2.249561e+05  -8.447039e+04   0.000000e+00   0.000000e+00   0.000000e+00   1.833133e+06   0.000000e+00   0.000000e+00   0.000000e+00
     2328000   2.327999e-05   4.240710e+01   1.746415e+01   8.572731e+00   1.817315e+06   2.249561e+05  -8.447039e+04   0.000000e+00   0.000000e+00   0.000000e+00   1.833133e+06   0.000000e+00   0.000000e+00   0.000000e+00
     2336000   2.335999e-05   4.255248e+01   1.748214e+01   8.565974e+00   1.817315e+06   2.249561e+05  -8.447039e+04   0.000000e+00   0.000000e+00   0.000000e+00   1.833133e+06   0.000000e+00   0.000000e+00   0.000000e+00
     2344000   2.343999e-05   4.269787e+01   1.750014e+01   8.559216e+00   1.817315e+06   2.249561e+05  -8.447039e+04   0.000000e+00   0.000000e+00   0.000000e+00   1.833133e+06   0.000000e+00   0.000000e+00   0.000000e+00
     2352000   2.351999e-05   4.284325e+01   1.751814e+01   8.552458e+00   1.817315e+06   2.249561e+05  -8.447039e+04   0.000000e+00   0.000000e+00   0.000000e+00   1.833133e+06   0.000000e+00   0.000000e+00   0.000000e+00
     2360000   2.359999e-05   4.298864e+01   1.753613e+01   8.545701e+00   1.817315e+06   2.249561e+05  -8.447039e+04   0.000000e+00   0.000000e+00   0.000000e+00   1.833133e+06   0.000000e+00   0.000000e+00   0.000000e+00
     2368000   2.367999e-05   4.313403e+01   1.755413e+01   8.538943e+00   1.817315e+06   2.249561e+05  -8.447039e+04   0.000000e+00   0.000000e+00   0.000000e+00   1.833133e+06   0.000000e+00   0.000000e+00   0.000000e+00
     2376000   2.375999e-05   4.327941e+01   1.757213e+01   8.532186e+00   1.817315e+06   2.249561e+05  -8.447039e+04   0.000000e+00   0.000000e+00   0.000000e+00   1.833133e+06   0.000000e+00   0.000000e+00   0.000000e+00
     2384000   2.383999e-05   4.342480e+01   1.759012e+01   8.525428e+00   1.817315e+06   2.249561e+05  -8.447039e+04   0.000000e+00   0.000000e+00   0.000000e+00   1.833133e+06   0.000000e+00   0.000000e+00   0.000000e+00
     2392000   2.391999e-05   4.357018e+01   1.760812e+01   8.518670e+00   1.817315e+06   2.249561e+05  -8.447039e+04   0.000000e+00   0.000000e+00   0.000000e+00   1.833133e+06   0.000000e+00   0.000000e+00   0.000000e+00
     2400000   2.399999e-05   4.371557e+01   1.762612e+01   8.511913e+00   1.817315e+06   2.249561e+05  -8.447039e+04   0.000000e+00   0.000000e+00   0.000000e+00   1.833133e+06   0.000000e+00   0.000000e+00   0.000000e+00
     2408000   2.407999e-05   4.386095e+01   1.764411e+01   8.505155e+00   1.817315e+06   2.249561e+05  -8.447039e+04   0.000000e+00   0.000000e+00   0.000000e+00   1.833133e+06   0.000000e+00   0.000000e+00   0.000000e+00
     2416000   2.415999e-05   4.400634e+01   1.766211e+01   8.498397e+00   1.817315e+06   2.249561e+05  -8.447039e+04   0.000000e+00   0.000000e+00   0.000000e+00   1.833133e+06   0.000000e+00   0.000000e+00   0.000000e+00
     2424000   2.423999e-05   4.415172e+01   1.768010e+01   8.491640e+00   1.817315e+06   2.249561e+05  -8.447039e+04   0.000000e+00   0.000000e+00   0.000000e+00   1.833133e+06   0.000000e+00   0.000000e+00   0.000000e+00
     2432000   2.431999e-05   4.429711e+01   1.769810e+01   8.484882e+00   1.817315e+06   2.249561e+05  -8.447039e+04   0.000000e+00   0.000000e+00   0.000000e+00   1.833133e+06   0.000000e+00   0.000000e+00   0.000000e+00
     2440000   2.439999e-05   4.444249e+01   1.771610e+01   8.478124e+00   1.817315e+06   2.249561e+05  -8.447039e+04   0.000000e+00   0.000000e+00   0.000000e+00   1.833133e+06   0.000000e+00   0.000000e+00   0.000000e+00
     2448000   2.447999e-05   4.458788e+01   1.773409e+01   8.471367e+00   1.817315e+06   2.249561e+05  -8.447039e+04   0.000000e+00   0.000000e+00   0.000000e+00   1.833133e+06   0.000000e+00   0.000000e+00   0.000000e+00
     2456000   2.455999e-05   4.473326e+01   1.775209e+01   8.464609e+00   1.817315e+06   2.249561e+05  -8.447039e+04   0.000000e+00   0.000000e+00   0.000000e+00   1.833133e+06   0.000000e+00   0.000000e+00   0.000000e+00
     2464000   2.463999e-05   4.487865e+01   1.777009e+01   8.457852e+00   1.817315e+06   2.249561e+05  -8.447039e+04   0.000000e+00   0.000000e+00   0.000000e+00   1.833133e+06   0.000000e+00   0.000000e+00   0.000000e+00
     2472000   2.471999e-05   4.502403e+01   1.778808e+01   8.451094e+00   1.817315e+06   2.249561e+05  -8.447039e+04   0.000000e+00   0.000000e+00   0.000000e+00   1.833133e+06   0.000000e+00   0.000000e+00   0.000000e+00
     2480000   2.479999e-05   4.516942e+01   1.780608e+01   8.444336e+00   1.817315e+06   2.249561e+05  -8.447039e+04   0.000000e+00   0.000000e+00   0.000000e+00   1.833133e+06   0.000000e+00   0.000000e+00   0.000000e+00
     2488000   2.487999e-05   4.531480e+01   1.782408e+01   8.437579e+00   1.817315e+06   2.249561e+05  -8.447039e+04   0.000000e+00   0.000000e+00   0.000000e+00   1.833133e+06   0.000000e+00   0.000000e+00   0.000000e+00
     2496000   2.495999e-05   4.546019e+01   1.784207e+01   8.430821e+00   1.817315e+06   2.249561e+05  -8.447039e+04   0.000000e+00   0.000000e+00   0.000000e+00   1.833133e+06   0.000000e+00   0.000000e+00   0.000000e+00
     2504000   2.503999e-05   4.560557e+01   1.786007e+01   8.424063e+00   1.817315e+06   2.249561e+05  -8.447039e+04   0.000000e+00   0.000000e+00   0.000000e+00   1.833133e+06   0.000000e+00   0.000000e+00   0.000000e+00
     2512000   2.511999e-05   4.575096e+01   1.787807e+01   8.417306e+00   1.817315e+06   2.249561e+05  -8.447039e+04   0.000000e+00   0.000000e+00   0.000000e+00   1.833133e+06   0.000000e+00   0.000000e+00   0.000000e+00
     2520000   2.519999e-05   4.589634e+01   1.789606e+01   8.410548e+00   1.817315e+06   2.249561e+05  -8.447039e+04   0.000000e+00   0.000000e+00   0.000000e+00   1.833133e+06   0.000000e+00   0.000000e+00   0.000000e+00
     2528000   2.527999e-05   4.604173e+01   1.791406e+01   8.403791e+00   1.817315e+06   2.249561e+05  -8.447039e+04   0.000000e+00   0.000000e+00   0.000000e+00   1.833133e+06   0.000000e+00   0.000000e+00   0.000000e+00
     2536000   2.535999e-05   4.618711e+01   1.793206e+01   8.397033e+00   1.817315e+06   2.249561e+05  -8.447039e+04   0.000000e+00   0.000000e+00   0.000000e+00   1.833133e+06   0.000000e+00   0.000000e+00   0.000000e+00
     2544000   2.543999e-05   4.633250e+01   1.795005e+01   8.390275e+00   1.817315e+06   2.249561e+05  -8.447039e+04   0.000000e+00   0.000000e+00   0.000000e+00   1.833133e+06   0.000000e+00   0.000000e+00   0.000000e+00
     2552000   2.551999e-05   4.647789e+01   1.796805e+01   8.383518e+00   1.817315e+06   2.249561e+05  -8.447039e+04   0.000000e+00   0.000000e+00   0.000000e+00   1.833133e+06   0.000000e+00   0.000000e+00   0.000000e+00
     2560000   2.559999e-05   4.662327e+01   1.798605e+01   8.376760e+00   1.817315e+06   2.249561e+05  -8.447039e+04   0.000000e+00   0.000000e+00   0.000000e+00   1.833133e+06   0.000000e+00   0.000000e+00   0.000000e+00
     2568000   2.567999e-05   4.676866e+01   1.800404e+01   8.370002e+00   1.817315e+06   2.249561e+05  -8.447039e+04   0.000000e+00   0.000000e+00   0.000000e+00   1.833133e+06   0.000000e+00   0.000000e+00   0.000000e+00
     2576000   2.575999e-05   4.691404e+01   1.802204e+01   8.363245e+00   1.817315e+06   2.249561e+05  -8.447039e+04   0.000000e+00   0.000000e+00   0.000000e+00   1.833133e+06   0.000000e+00   0.000000e+00   0.000000e+00
     2584000   2.583999e-05   4.705943e+01   1.804003e+01   8.356487e+00   1.817315e+06   2.249561e+05  -8.447039e+04   0.000000e+00   0.000000e+00   0.000000e+00   1.833133e+06   0.000000e+00   0.000000e+00   0.000000e+00
     2592000   2.591999e-05   4.720481e+01   1.805803e+01   8.349729e+00   1.817315e+06   2.249561e+05  -8.447039e+04   0.000000e+00   0.000000e+00   0.000000e+00   1.833133e+06   0.000000e+00   0.000000e+00   0.000000e+00
     2600000   2.599999e-05   4.735020e+01   1.807603e+01   8.342972e+00   1.817315e+06   2.249561e+05  -8.447039e+04   0.000000e+00   0.000000e+00   0.000000e+00   1.833133e+06   0.000000e+00   0.000000e+00   0.000000e+00
     2608000   2.607999e-05   4.749558e+01   1.809402e+01   8.336214e+00   1.817315e+06   2.249561e+05  -8.447039e+04   0.000000e+00   0.000000e+00   0.000000e+00   1.833133e+06   0.000000e+00   0.000000e+00   0.000000e+00
     2616000   2.615999e-05   4.764097e+01   1.811202e+01   8.329457e+00   1.817315e+06   2.249561e+05  -8.447039e+04   0.000000e+00   0.000000e+00   0.000000e+00   1.833133e+06   0.000000e+00   0.000000e+00   0.000000e+00
     2624000   2.623999e-05   4.778635e+01   1.813002e+01   8.322699e+00   1.817315e+06   2.249561e+05  -8.447039e+04   0.000000e+00   0.000000e+00   0.000000e+00   1.833133e+06   0.000000e+00   0.000000e+00   0.000000e+00
     2632000   2.631999e-05   4.793174e+01   1.814801e+01   8.315941e+00   1.817315e+06   2.249561e+05  -8.447039e+04   0.000000e+00   0.000000e+00   0.000000e+00   1.833133e+06   0.000000e+00   0.000000e+00   0.000000e+00
     2640000   2.639999e-05   4.807712e+01   1.816601e+01   8.309184e+00   1.817315e+06   2.249561e+05  -8.447039e+04   0.000000e+00   0.000000e+00   0.000000e+00   1.833133e+06   0.000000e+00   0.000000e+00   0.000000e+00
     2648000   2.647999e-05   4.822251e+01   1.818401e+01   8.302426e+00   1.817315e+06   2.249561e+05  -8.447039e+04   0.000000e+00   0.000000e+00   0.000000e+00   1.833133e+06   0.000000e+00   0.000000e+00   0.000000e+00
     2656000   2.655999e-05   4.836789e+01   1.820200e+01   8.295668e+00   1.817315e+06   2.249561e+05  -8.447039e+04   0.000000e+00   0.000000e+00   0.000000e+00   1.833133e+06   0.000000e+00   0.000000e+00   0.000000e+00
     2664000   2.663999e-05   4.851328e+01   1.822000e+01   8.288911e+00   1.817315e+06   2.249561e+05  -8.447039e+04   0.000000e+00   0.000000e+00   0.000000e+00   1.833133e+06   0.000000e+00   0.000000e+00   0.000000e+00
     2672000   2.671999e-05   4.865866e+01   1.823800e+01   8.282153e+00   1.817315e+06   2.249561e+05  -8.447039e+04   0.000000e+00   0.000000e+00   0.000000e+00   1.833133e+06   0.000000e+00   0.000000e+00   0.000000e+00
     2680000   2.679999e-05   4.880405e+01   1.825599e+01   8.275396e+00   1.817315e+06   2.249561e+05  -8.447039e+04   0.000000e+00   0.000000e+00   0.000000e+00   1.833133e+06   0.000000e+00   0.000000e+00   0.000000e+00
     2688000   2.687999e-05   4.894943e+01   1.827399e+01   8.268638e+00   1.817315e+06   2.249561e+05  -8.447039e+04   0.000000e+00   0.000000e+00   0.000000e+00   1.833133e+06   0.000000e+00   0.000000e+00   0.000000e+00
     2696000   2.695999e-05   4.909482e+01   1.829199e+01   8.261880e+00   1.817315e+06   2.249561e+05  -8.447039e+04   0.000000e+00   0.000000e+00   0.000000e+00   1.833133e+06   0.000000e+00   0.000000e+00   0.000000e+00
     2704000   2.703999e-05   4.924020e+01   1.830998e+01   8.255123e+00   1.817315e+06   2.249561e+05  -8.447039e+04   0.000000e+00   0.000000e+00   0.000000e+00   1.833133e+06   0.000000e+00   0.000000e+00   0.000000e+00
     2712000   2.711999e-05   4.938559e+01   1.832798e+01   8.248365e+00   1.817315e+06   2.249561e+05  -8.447039e+04   0.000000e+00   0.000000e+00   0.000000e+00   1.833133e+06   0.000000e+00   0.000000e+00   0.000000e+00
     2720000   2.719999e-05   4.953097e+01   1.834597e+01   8.241607e+00   1.817315e+06   2.249561e+05  -8.447039e+04   0.000000e+00   0.000000e+00   0.000000e+00   1.833133e+06   0.000000e+00   0.000000e+00   0.000000e+00
     2728000   2.727999e-05   4.967636e+01   1.836397e+01   8.234850e+00   1.817315e+06   2.249561e+05  -8.447039e+04   0.000000e+00   0.000000e+00   0.000000e+00   1.833133e+06   0.000000e+00   0.000000e+00   0.000000e+00
     2736000   2.735999e-05   4.982175e+01   1.838197e+01   8.228092e+00   1.817315e+06   2.249561e+05  -8.447039e+04   0.000000e+00   0.000000e+00   0.000000e+00   1.833133e+06   0.000000e+00   0.000000e+00   0.000000e+00
     2744000   2.743999e-05   4.996713e+01   1.839996e+01   8.221334e+00   1.817315e+06   2.249561e+05  -8.447039e+04   0.000000e+00   0.000000e+00   0.000000e+00   1.833133e+06   0.000000e+00   0.000000e+00   0.000000e+00
