     timestep     time              x             y              z              vx             vy             vz             ax             ay             az         v_magnitude      ELoss        Electronic      Nuclear
           0   0.000000e+00   1.000000e-01   1.956517e+01   1.574528e+01   2.390882e+05   1.008882e+06   5.589419e+05   0.000000e+00   0.000000e+00   0.000000e+00   1.177889e+06   0.000000e+00   0.000000e+00   0.000000e+00
        8000   7.999000e-08   1.191271e-01   1.964588e+01   1.579000e+01   2.390882e+05   1.008882e+06   5.589419e+05   0.000000e+00   0.000000e+00   0.000000e+00   1.177889e+06   0.000000e+00   0.000000e+00   0.000000e+00
       16000   1.599900e-07   1.382541e-01   1.972659e+01   1.583471e+01   2.390882e+05   1.008882e+06   5.589419e+05   0.000000e+00   0.000000e+00   0.000000e+00   1.177889e+06   0.000000e+00   0.000000e+00   0.000000e+00
       24000   2.399900e-07   1.573812e-01   1.980730e+01   1.587943e+01   2.390882e+05   1.008882e+06   5.589419e+05   0.000000e+00   0.000000e+00   0.000000e+00   1.177889e+06   0.000000e+00   0.000000e+00   0.000000e+00
       32000   3.199900e-07   1.765082e-01   1.988802e+01   1.592415e+01   2.390882e+05   1.008882e+06   5.589419e+05   0.000000e+00   0.000000e+00   0.000000e+00   1.177889e+06   0.000000e+00   0.000000e+00   0.000000e+00
       40000   3.999900e-07   1.956353e-01   1.996873e+01   1.596886e+01   2.390882e+05   1.008882e+06   5.589419e+05   0.000000e+00   0.000000e+00   0.000000e+00   1.177889e+06   0.000000e+00   0.000000e+00   0.000000e+00
       48000   4.799900e-07   2.147623e-01   2.004944e+01   1.601358e+01   2.390882e+05   1.008882e+06   5.589419e+05   0.000000e+00   0.000000e+00   0.000000e+00   1.177889e+06   0.000000e+00   0.000000e+00   0.000000e+00
       56000   5.599900e-07   2.338894e-01   2.013015e+01   1.605829e+01   2.390882e+05   1.008882e+06   5.589419e+05   0.000000e+00   0.000000e+00   0.000000e+00   1.177889e+06   0.000000e+00   0.000000e+00   0.000000e+00
       64000   6.399900e-07   2.530164e-01   2.021086e+01   1.610301e+01   2.390882e+05   1.008882e+06   5.589419e+05   0.000000e+00   0.000000e+00   0.000000e+00   1.177889e+06   0.000000e+00   0.000000e+00   0.000000e+00
       72000   7.199900e-07   2.721435e-01   2.029157e+01   1.614772e+01   2.390882e+05   1.008882e+06   5.589419e+05   0.000000e+00   0.000000e+00   0.000000e+00   1.177889e+06   0.000000e+00   0.000000e+00   0.000000e+00
       80000   7.999900e-07   2.912705e-01   2.037228e+01   1.619244e+01   2.390882e+05   1.008882e+06   5.589419e+05   0.000000e+00   0.000000e+00   0.000000e+00   1.177889e+06   0.000000e+00   0.000000e+00   0.000000e+00
       88000   8.799900e-07   3.103976e-01   2.045299e+01   1.623715e+01   2.390882e+05   1.008882e+06   5.589419e+05   0.000000e+00   0.000000e+00   0.000000e+00   1.177889e+06   0.000000e+00   0.000000e+00   0.000000e+00
       96000   9.599900e-07   3.295246e-01   2.053370e+01   1.628187e+01   2.390882e+05   1.008882e+06   5.589419e+05   0.000000e+00   0.000000e+00   0.000000e+00   1.177889e+06   0.000000e+00   0.000000e+00   0.000000e+00
      104000   1.039990e-06   3.486517e-01   2.061441e+01   1.632658e+01   2.390882e+05   1.008882e+06   5.589419e+05   0.000000e+00   0.000000e+00   0.000000e+00   1.177889e+06   0.000000e+00   0.000000e+00   0.000000e+00
      112000   1.119990e-06   3.677788e-01   2.069512e+01   1.637130e+01   2.390882e+05   1.008882e+06   5.589419e+05   0.000000e+00   0.000000e+00   0.000000e+00   1.177889e+06   0.000000e+00   0.000000e+00   0.000000e+00
      120000   1.199990e-06   3.869058e-01   2.077583e+01   1.641601e+01   2.390882e+05   1.008882e+06   5.589419e+05   0.000000e+00   0.000000e+00   0.000000e+00   1.177889e+06   0.000000e+00   0.000000e+00   0.000000e+00
      128000   1.279990e-06   4.060329e-01   2.085654e+01   1.646073e+01   2.390882e+05   1.008882e+06   5.589419e+05   0.000000e+00   0.000000e+00   0.000000e+00   1.177889e+06   0.000000e+00   0.000000e+00   0.000000e+00
      136000   1.359990e-06   4.251599e-01   2.093725e+01   1.650544e+01   2.390882e+05   1.008882e+06   5.589419e+05   0.000000e+00   0.000000e+00   0.000000e+00   1.177889e+06   0.000000e+00   0.000000e+00   0.000000e+00
      144000   1.439990e-06   4.442870e-01   2.101796e+01   1.655016e+01   2.390882e+05   1.008882e+06   5.589419e+05   0.000000e+00   0.000000e+00   0.000000e+00   1.177889e+06   0.000000e+00   0.000000e+00   0.000000e+00
      152000   1.519990e-06   4.634140e-01   2.109867e+01   1.659488e+01   2.390882e+05   1.008882e+06   5.589419e+05   0.000000e+00   0.000000e+00   0.000000e+00   1.177889e+06   0.000000e+00   0.000000e+00   0.000000e+00
      160000   1.599990e-06   4.825411e-01   2.117938e+01   1.663959e+01   2.390882e+05   1.008882e+06   5.589419e+05   0.000000e+00   0.000000e+00   0.000000e+00   1.177889e+06   0.000000e+00   0.000000e+00   0.000000e+00
      168000   1.679990e-06   5.016681e-01   2.126010e+01   1.668431e+01   2.390882e+05   1.008882e+06   5.589419e+05   0.000000e+00   0.000000e+00   0.000000e+00   1.177889e+06   0.000000e+00   0.000000e+00   0.000000e+00
      176000   1.759990e-06   5.207952e-01   2.134081e+01   1.672902e+01   2.390882e+05   1.008882e+06   5.589419e+05   0.000000e+00   0.000000e+00   0.000000e+00   1.177889e+06   0.000000e+00   0.000000e+00   0.000000e+00
      184000   1.839990e-06   5.399222e-01   2.142152e+01   1.677374e+01   2.390882e+05   1.008882e+06   5.589419e+05   0.000000e+00   0.000000e+00   0.000000e+00   1.177889e+06   0.000000e+00   0.000000e+00   0.000000e+00
      192000   1.919990e-06   5.590493e-01   2.150223e+01   1.681845e+01   2.390882e+05   1.008882e+06   5.589419e+05   0.000000e+00   0.000000e+00   0.000000e+00   1.177889e+06   0.000000e+00   0.000000e+00   0.000000e+00
      200000   1.999990e-06   5.781763e-01   2.158294e+01   1.686317e+01   2.390882e+05   1.008882e+06   5.589419e+05   0.000000e+00   0.000000e+00   0.000000e+00   1.177889e+06   0.000000e+00   0.000000e+00   0.000000e+00
      208000   2.079990e-06   5.973034e-01   2.166365e+01   1.690788e+01   2.390882e+05   1.008882e+06   5.589419e+05   0.000000e+00   0.000000e+00   0.000000e+00   1.177889e+06   0.000000e+00   0.000000e+00   0.000000e+00
      216000   2.159990e-06   6.164304e-01   2.174436e+01   1.695260e+01   2.390882e+05   1.008882e+06   5.589419e+05   0.000000e+00   0.000000e+00   0.000000e+00   1.177889e+06   0.000000e+00   0.000000e+00   0.000000e+00
      224000   2.239990e-06   6.355575e-01   2.182507e+01   1.699731e+01   2.390882e+05   1.008882e+06   5.589419e+05   0.000000e+00   0.000000e+00   0.000000e+00   1.177889e+06   0.000000e+00   0.000000e+00   0.000000e+00
      232000   2.319990e-06   6.546846e-01   2.190578e+01   1.704203e+01   2.390882e+05   1.008882e+06   5.589419e+05   0.000000e+00   0.000000e+00   0.000000e+00   1.177889e+06   0.000000e+00   0.000000e+00   0.000000e+00
      240000   2.399990e-06   6.738116e-01   2.198649e+01   1.708674e+01   2.390882e+05   1.008882e+06   5.589419e+05   0.000000e+00   0.000000e+00   0.000000e+00   1.177889e+06   0.000000e+00   0.000000e+00   0.000000e+00
      248000   2.479990e-06   6.929387e-01   2.206720e+01   1.713146e+01   2.390882e+05   1.008882e+06   5.589419e+05   0.000000e+00   0.000000e+00   0.000000e+00   1.177889e+06   0.000000e+00   0.000000e+00   0.000000e+00
      256000   2.559990e-06   7.120657e-01   2.214791e+01   1.717618e+01   2.390882e+05   1.008882e+06   5.589419e+05   0.000000e+00   0.000000e+00   0.000000e+00   1.177889e+06   0.000000e+00   0.000000e+00   0.000000e+00
      264000   2.639990e-06   7.311928e-01   2.222862e+01   1.722089e+01   2.390882e+05   1.008882e+06   5.589419e+05   0.000000e+00   0.000000e+00   0.000000e+00   1.177889e+06   0.000000e+00   0.000000e+00   0.000000e+00
      272000   2.719990e-06   7.503198e-01   2.230933e+01   1.726561e+01   2.390882e+05   1.008882e+06   5.589419e+05   0.000000e+00   0.000000e+00   0.000000e+00   1.177889e+06   0.000000e+00   0.000000e+00   0.000000e+00
      280000   2.799990e-06   7.694469e-01   2.239004e+01   1.731032e+01   2.390882e+05   1.008882e+06   5.589419e+05   0.000000e+00   0.000000e+00   0.000000e+00   1.177889e+06   0.000000e+00   0.000000e+00   0.000000e+00
      288000   2.879990e-06   7.885739e-01   2.247075e+01   1.735504e+01   2.390882e+05   1.008882e+06   5.589419e+05   0.000000e+00   0.000000e+00   0.000000e+00   1.177889e+06   0.000000e+00   0.000000e+00   0.000000e+00
      296000   2.959990e-06   8.077010e-01   2.255147e+01   1.739975e+01   2.390882e+05   1.008882e+06   5.589419e+05   0.000000e+00   0.000000e+00   0.000000e+00   1.177889e+06   0.000000e+00   0.000000e+00   0.000000e+00
      304000   3.039990e-06   8.268280e-01   2.263218e+01   1.744447e+01   2.390882e+05   1.008882e+06   5.589419e+05   0.000000e+00   0.000000e+00   0.000000e+00   1.177889e+06   0.000000e+00   0.000000e+00   0.000000e+00
      312000   3.119990e-06   8.459551e-01   2.271289e+01   1.748918e+01   2.390882e+05   1.008882e+06   5.589419e+05   0.000000e+00   0.000000e+00   0.000000e+00   1.177889e+06   0.000000e+00   0.000000e+00   0.000000e+00
      320000   3.199990e-06   8.650821e-01   2.279360e+01   1.753390e+01   2.390882e+05   1.008882e+06   5.589419e+05   0.000000e+00   0.000000e+00   0.000000e+00   1.177889e+06   0.000000e+00   0.000000e+00   0.000000e+00
      328000   3.279990e-06   8.842092e-01   2.287431e+01   1.757861e+01   2.390882e+05   1.008882e+06   5.589419e+05   0.000000e+00   0.000000e+00   0.000000e+00   1.177889e+06   0.000000e+00   0.000000e+00   0.000000e+00
      336000   3.359990e-06   9.033363e-01   2.295502e+01   1.762333e+01   2.390882e+05   1.008882e+06   5.589419e+05   0.000000e+00   0.000000e+00   0.000000e+00   1.177889e+06   0.000000e+00   0.000000e+00   0.000000e+00
      344000   3.439990e-06   9.224633e-01   2.303573e+01   1.766804e+01   2.390882e+05   1.008882e+06   5.589419e+05   0.000000e+00   0.000000e+00   0.000000e+00   1.177889e+06   0.000000e+00   0.000000e+00   0.000000e+00
      352000   3.519990e-06   9.415904e-01   2.311644e+01   1.771276e+01   2.390882e+05   1.008882e+06   5.589419e+05   0.000000e+00   0.000000e+00   0.000000e+00   1.177889e+06   0.000000e+00   0.000000e+00   0.000000e+00
      360000   3.599990e-06   9.607174e-01   2.319715e+01   1.775747e+01   2.390882e+05   1.008882e+06   5.589419e+05   0.000000e+00   0.000000e+00   0.000000e+00   1.177889e+06   0.000000e+00   0.000000e+00   0.000000e+00
      368000   3.679990e-06   9.798445e-01   2.327786e+01   1.780219e+01   2.390882e+05   1.008882e+06   5.589419e+05   0.000000e+00   0.000000e+00   0.000000e+00   1.177889e+06   0.000000e+00   0.000000e+00   0.000000e+00
      376000   3.759990e-06   9.989715e-01   2.335857e+01   1.784691e+01   2.390882e+05   1.008882e+06   5.589419e+05   0.000000e+00   0.000000e+00   0.000000e+00   1.177889e+06   0.000000e+00   0.000000e+00   0.000000e+00
      384000   3.839990e-06   1.018099e+00   2.343928e+01   1.789162e+01   2.390882e+05   1.008882e+06   5.589419e+05   0.000000e+00   0.000000e+00   0.000000e+00   1.177889e+06   0.000000e+00   0.000000e+00   0.000000e+00
      392000   3.919990e-06   1.037226e+00   2.351999e+01   1.793634e+01   2.390882e+05   1.008882e+06   5.589419e+05   0.000000e+00   0.000000e+00   0.000000e+00   1.177889e+06   0.000000e+00   0.000000e+00   0.000000e+00
      400000   3.999990e-06   1.056353e+00   2.360070e+01   1.798105e+01   2.390882e+05   1.008882e+06   5.589419e+05   0.000000e+00   0.000000e+00   0.000000e+00   1.177889e+06   0.000000e+00   0.000000e+00   0.000000e+00
      408000   4.079990e-06   1.075480e+00   2.368141e+01   1.802577e+01   2.390882e+05   1.008882e+06   5.589419e+05   0.000000e+00   0.000000e+00   0.000000e+00   1.177889e+06   0.000000e+00   0.000000e+00   0.000000e+00
      416000   4.159990e-06   1.094607e+00   2.376212e+01   1.807048e+01   2.390882e+05   1.008882e+06   5.589419e+05   0.000000e+00   0.000000e+00   0.000000e+00   1.177889e+06   0.000000e+00   0.000000e+00   0.000000e+00
      424000   4.239990e-06   1.113734e+00   2.384283e+01   1.811520e+01   2.390882e+05   1.008882e+06   5.589419e+05   0.000000e+00   0.000000e+00   0.000000e+00   1.177889e+06   0.000000e+00   0.000000e+00   0.000000e+00
      432000   4.319990e-06   1.132861e+00   2.392355e+01   1.815991e+01   2.390882e+05   1.008882e+06   5.589419e+05   0.000000e+00   0.000000e+00   0.000000e+00   1.177889e+06   0.000000e+00   0.000000e+00   0.000000e+00
      440000   4.399990e-06   1.151988e+00   2.400426e+01   1.820463e+01   2.390882e+05   1.008882e+06   5.589419e+05   0.000000e+00   0.000000e+00   0.000000e+00   1.177889e+06   0.000000e+00   0.000000e+00   0.000000e+00
      448000   4.479990e-06   1.171115e+00   2.408497e+01   1.824934e+01   2.390882e+05   1.008882e+06   5.589419e+05   0.000000e+00   0.000000e+00   0.000000e+00   1.177889e+06   0.000000e+00   0.000000e+00   0.000000e+00
      456000   4.559990e-06   1.190242e+00   2.416568e+01   1.829406e+01   2.390882e+05   1.008882e+06   5.589419e+05   0.000000e+00   0.000000e+00   0.000000e+00   1.177889e+06   0.000000e+00   0.000000e+00   0.000000e+00
      464000   4.639990e-06   1.209369e+00   2.424639e+01   1.833877e+01   2.390882e+05   1.008882e+06   5.589419e+05   0.000000e+00   0.000000e+00   0.000000e+00   1.177889e+06   0.000000e+00   0.000000e+00   0.000000e+00
      472000   4.719990e-06   1.228496e+00   2.432710e+01   1.838349e+01   2.390882e+05   1.008882e+06   5.589419e+05   0.000000e+00   0.000000e+00   0.000000e+00   1.177889e+06   0.000000e+00   0.000000e+00   0.000000e+00
      480000   4.799990e-06   1.247623e+00   2.440781e+01   1.842821e+01   2.390882e+05   1.008882e+06   5.589419e+05   0.000000e+00   0.000000e+00   0.000000e+00   1.177889e+06   0.000000e+00   0.000000e+00   0.000000e+00
      488000   4.879990e-06   1.266750e+00   2.448852e+01   1.847292e+01   2.390882e+05   1.008882e+06   5.589419e+05   0.000000e+00   0.000000e+00   0.000000e+00   1.177889e+06   0.000000e+00   0.000000e+00   0.000000e+00
      496000   4.959990e-06   1.285877e+00   2.456923e+01   1.851764e+01   2.390882e+05   1.008882e+06   5.589419e+05   0.000000e+00   0.000000e+00   0.000000e+00   1.177889e+06   0.000000e+00   0.000000e+00   0.000000e+00
      504000   5.039990e-06   1.305004e+00   2.464994e+01   1.856235e+01   2.390882e+05   1.008882e+06   5.589419e+05   0.000000e+00   0.000000e+00   0.000000e+00   1.177889e+06   0.000000e+00   0.000000e+00   0.000000e+00
      512000   5.119990e-06   1.324131e+00   2.473065e+01   1.860707e+01   2.390882e+05   1.008882e+06   5.589419e+05   0.000000e+00   0.000000e+00   0.000000e+00   1.177889e+06   0.000000e+00   0.000000e+00   0.000000e+00
      520000   5.199990e-06   1.343258e+00   2.481136e+01   1.865178e+01   2.390882e+05   1.008882e+06   5.589419e+05   0.000000e+00   0.000000e+00   0.000000e+00   1.177889e+06   0.000000e+00   0.000000e+00   0.000000e+00
      528000   5.279990e-06   1.362386e+00   2.489207e+01   1.869650e+01   2.390882e+05   1.008882e+06   5.589419e+05   0.000000e+00   0.000000e+00   0.000000e+00   1.177889e+06   0.000000e+00   0.000000e+00   0.000000e+00
      536000   5.359990e-06   1.381513e+00   2.497278e+01   1.874121e+01   2.390882e+05   1.008882e+06   5.589419e+05   0.000000e+00   0.000000e+00   0.000000e+00   1.177889e+06   0.000000e+00   0.000000e+00   0.000000e+00
      544000   5.439990e-06   1.400640e+00   2.505349e+01   1.878593e+01   2.390882e+05   1.008882e+06   5.589419e+05   0.000000e+00   0.000000e+00   0.000000e+00   1.177889e+06   0.000000e+00   0.000000e+00   0.000000e+00
      552000   5.519990e-06   1.419767e+00   2.513420e+01   1.883064e+01   2.390882e+05   1.008882e+06   5.589419e+05   0.000000e+00   0.000000e+00   0.000000e+00   1.177889e+06   0.000000e+00   0.000000e+00   0.000000e+00
      560000   5.599990e-06   1.438894e+00   2.521491e+01   1.887536e+01   2.390882e+05   1.008882e+06   5.589419e+05   0.000000e+00   0.000000e+00   0.000000e+00   1.177889e+06   0.000000e+00   0.000000e+00   0.000000e+00
      568000   5.679990e-06   1.458021e+00   2.529563e+01   1.892007e+01   2.390882e+05   1.008882e+06   5.589419e+05   0.000000e+00   0.000000e+00   0.000000e+00   1.177889e+06   0.000000e+00   0.000000e+00   0.000000e+00
      576000   5.759990e-06   1.477148e+00   2.537634e+01   1.896479e+01   2.390882e+05   1.008882e+06   5.589419e+05   0.000000e+00   0.000000e+00   0.000000e+00   1.177889e+06   0.000000e+00   0.000000e+00   0.000000e+00
      584000   5.839990e-06   1.496275e+00   2.545705e+01   1.900950e+01   2.390882e+05   1.008882e+06   5.589419e+05   0.000000e+00   0.000000e+00   0.000000e+00   1.177889e+06   0.000000e+00   0.000000e+00   0.000000e+00
      592000   5.919990e-06   1.515402e+00   2.553776e+01   1.905422e+01   2.390882e+05   1.008882e+06   5.589419e+05   0.000000e+00   0.000000e+00   0.000000e+00   1.177889e+06   0.000000e+00   0.000000e+00   0.000000e+00
      600000   5.999990e-06   1.534529e+00   2.561847e+01   1.909894e+01   2.390882e+05   1.008882e+06   5.589419e+05   0.000000e+00   0.000000e+00   0.000000e+00   1.177889e+06   0.000000e+00   0.000000e+00   0.000000e+00
      608000   6.079990e-06   1.553656e+00   2.569918e+01   1.914365e+01   2.390882e+05   1.008882e+06   5.589419e+05   0.000000e+00   0.000000e+00   0.000000e+00   1.177889e+06   0.000000e+00   0.000000e+00   0.000000e+00
      616000   6.159990e-06   1.572783e+00   2.577989e+01   1.918837e+01   2.390882e+05   1.008882e+06   5.589419e+05   0.000000e+00   0.000000e+00   0.000000e+00   1.177889e+06   0.000000e+00   0.000000e+00   0.000000e+00
      624000   6.239990e-06   1.591910e+00   2.586060e+01   1.923308e+01   2.390882e+05   1.008882e+06   5.589419e+05   0.000000e+00   0.000000e+00   0.000000e+00   1.177889e+06   0.000000e+00   0.000000e+00   0.000000e+00
      632000   6.319990e-06   1.611037e+00   2.594131e+01   1.927780e+01   2.390882e+05   1.008882e+06   5.589419e+05   0.000000e+00   0.000000e+00   0.000000e+00   1.177889e+06   0.000000e+00   0.000000e+00   0.000000e+00
      640000   6.399990e-06   1.630164e+00   2.602202e+01   1.932251e+01   2.390882e+05   1.008882e+06   5.589419e+05   0.000000e+00   0.000000e+00   0.000000e+00   1.177889e+06   0.000000e+00   0.000000e+00   0.000000e+00
      648000   6.479990e-06   1.649291e+00   2.610273e+01   1.936723e+01   2.390882e+05   1.008882e+06   5.589419e+05   0.000000e+00   0.000000e+00   0.000000e+00   1.177889e+06   0.000000e+00   0.000000e+00   0.000000e+00
      656000   6.559990e-06   1.668418e+00   2.618344e+01   1.941194e+01   2.390882e+05   1.008882e+06   5.589419e+05   0.000000e+00   0.000000e+00   0.000000e+00   1.177889e+06   0.000000e+00   0.000000e+00   0.000000e+00
      664000   6.639990e-06   1.687545e+00   2.626415e+01   1.945666e+01   2.390882e+05   1.008882e+06   5.589419e+05   0.000000e+00   0.000000e+00   0.000000e+00   1.177889e+06   0.000000e+00   0.000000e+00   0.000000e+00
      672000   6.719990e-06   1.706673e+00   2.634486e+01   1.950137e+01   2.390882e+05   1.008882e+06   5.589419e+05   0.000000e+00   0.000000e+00   0.000000e+00   1.177889e+06   0.000000e+00   0.000000e+00   0.000000e+00
      680000   6.799990e-06   1.725800e+00   2.642557e+01   1.954609e+01   2.390882e+05   1.008883e+06   5.589416e+05   4.371735e+05   6.761617e+06  -1.239164e+07   1.177889e+06   6.664369e-28   0.000000e+00   0.000000e+00
      688000   6.879990e-06   1.744927e+00   2.650628e+01   1.959080e+01   2.390882e+05   1.008883e+06   5.589403e+05   0.000000e+00   0.000000e+00   0.000000e+00   1.177889e+06   0.000000e+00   0.000000e+00   0.000000e+00
      696000   6.959990e-06   1.764054e+00   2.658699e+01   1.963552e+01   2.390884e+05   1.008886e+06   5.589363e+05   4.108363e+06   5.873373e+07  -1.077723e+08   1.177889e+06   5.038849e-26   0.000000e+00   0.000000e+00
      704000   7.039990e-06   1.783181e+00   2.666771e+01   1.968023e+01   2.390885e+05   1.008887e+06   5.589327e+05   1.193139e+06   1.628284e+07  -2.990130e+07   1.177889e+06   3.878906e-27   0.000000e+00   0.000000e+00
      712000   7.119990e-06   1.802308e+00   2.674842e+01   1.972495e+01   2.390888e+05   1.008891e+06   5.589270e+05   7.456538e+06   9.290769e+07  -1.708925e+08   1.177889e+06   1.266012e-25   0.000000e+00   0.000000e+00
      720000   7.199990e-06   1.821435e+00   2.682913e+01   1.976966e+01   2.390895e+05   1.008900e+06   5.589101e+05   7.867083e+06   9.492629e+07  -1.747187e+08   1.177889e+06   1.323558e-25   0.000000e+00   0.000000e+00
      728000   7.279990e-06   1.840562e+00   2.690984e+01   1.981437e+01   2.390901e+05   1.008907e+06   5.588966e+05   1.068646e+07   1.225345e+08  -2.257679e+08   1.177889e+06   2.209031e-25   0.000000e+00   0.000000e+00
      736000   7.359990e-06   1.859689e+00   2.699055e+01   1.985909e+01   2.390910e+05   1.008917e+06   5.588785e+05   1.128718e+07   1.239630e+08  -2.286132e+08   1.177889e+06   2.264448e-25   0.000000e+00   0.000000e+00
      744000   7.439990e-06   1.878817e+00   2.707127e+01   1.990380e+01   2.390914e+05   1.008921e+06   5.588708e+05   1.102397e+07   1.179241e+08  -2.176027e+08   1.177889e+06   2.051053e-25   0.000000e+00   0.000000e+00
      752000   7.519990e-06   1.897944e+00   2.715198e+01   1.994850e+01   2.390917e+05   1.008924e+06   5.588651e+05  -3.897607e+06  -4.178073e+07   7.709457e+07   1.177889e+06   2.573262e-26   0.000000e+00   0.000000e+00
      760000   7.599990e-06   1.917071e+00   2.723270e+01   1.999321e+01   2.390919e+05   1.008926e+06   5.588617e+05  -2.271609e+06  -2.317597e+07   4.281195e+07   1.177889e+06   7.929194e-27   0.000000e+00   0.000000e+00
      768000   7.679990e-06   1.936199e+00   2.731341e+01   2.003792e+01   2.390918e+05   1.008926e+06   5.588624e+05  -8.012891e+01   2.096701e+01  -3.571521e+00   1.177889e+06   2.296939e-38   0.000000e+00   0.000000e+00
      776000   7.759990e-06   1.955326e+00   2.739412e+01   2.008263e+01   2.390918e+05   1.008926e+06   5.588624e+05  -7.500476e+01   3.393306e+01  -2.917159e+01   1.177889e+06   2.549232e-38   0.000000e+00   0.000000e+00
      784000   7.839990e-06   1.974453e+00   2.747484e+01   2.012734e+01   2.390918e+05   1.008926e+06   5.588624e+05  -6.762706e+01   1.552188e+01   9.101639e-01   1.177889e+06   1.609254e-38   0.000000e+00   0.000000e+00
      792000   7.919990e-06   1.993581e+00   2.755555e+01   2.017205e+01   2.390918e+05   1.008926e+06   5.588624e+05  -8.073053e+01   1.632622e+01   5.063985e+00   1.177889e+06   2.275631e-38   0.000000e+00   0.000000e+00
      800000   7.999990e-06   2.012708e+00   2.763627e+01   2.021676e+01   2.390918e+05   1.008926e+06   5.588624e+05  -8.193547e+01   1.941680e+01   1.091978e-20   1.177889e+06   2.369591e-38   0.000000e+00   0.000000e+00
      808000   8.079990e-06   2.031835e+00   2.771698e+01   2.026147e+01   2.390918e+05   1.008926e+06   5.588624e+05  -6.510132e+01   1.542750e+01  -2.703309e-21   1.177889e+06   1.496035e-38   0.000000e+00   0.000000e+00
      816000   8.159990e-06   2.050963e+00   2.779769e+01   2.030618e+01   2.390918e+05   1.008926e+06   5.588624e+05  -8.696502e+01   2.060868e+01  -4.047826e-21   1.177889e+06   2.669182e-38   0.000000e+00   0.000000e+00
      824000   8.239990e-06   2.070090e+00   2.787841e+01   2.035089e+01   2.390918e+05   1.008926e+06   5.588624e+05  -5.086132e+01   1.205295e+01   2.776655e-22   1.177889e+06   9.132227e-39   0.000000e+00   0.000000e+00
      832000   8.319990e-06   2.089218e+00   2.795912e+01   2.039559e+01   2.390918e+05   1.008926e+06   5.588624e+05  -7.082484e+01   1.678384e+01   1.279095e-20   1.177889e+06   1.770409e-38   0.000000e+00   0.000000e+00
      840000   8.399990e-06   2.108345e+00   2.803984e+01   2.044030e+01   2.390918e+05   1.008926e+06   5.588624e+05  -7.564011e+01   1.792494e+01  -2.322273e-20   1.177889e+06   2.019397e-38   0.000000e+00   0.000000e+00
      848000   8.479990e-06   2.127472e+00   2.812055e+01   2.048501e+01   2.390918e+05   1.008926e+06   5.588624e+05  -5.721000e+01   1.355744e+01  -4.222853e-21   1.177889e+06   1.155292e-38   0.000000e+00   0.000000e+00
      856000   8.559990e-06   2.146600e+00   2.820126e+01   2.052972e+01   2.390918e+05   1.008926e+06   5.588624e+05  -7.860745e+01   1.862813e+01  -2.702457e-20   1.177889e+06   2.180948e-38   0.000000e+00   0.000000e+00
      864000   8.639990e-06   2.165727e+00   2.828198e+01   2.057443e+01   2.390918e+05   1.008926e+06   5.588624e+05  -8.777156e+01   2.079981e+01  -1.216703e-20   1.177889e+06   2.719110e-38   0.000000e+00   0.000000e+00
      872000   8.719990e-06   2.184854e+00   2.836269e+01   2.061914e+01   2.390918e+05   1.008926e+06   5.588624e+05  -6.427321e+01   1.523125e+01  -1.165392e-20   1.177889e+06   1.458152e-38   0.000000e+00   0.000000e+00
      880000   8.799990e-06   2.203982e+00   2.844341e+01   2.066385e+01   2.390918e+05   1.008926e+06   5.588624e+05  -5.099057e+01   1.208358e+01   4.104151e-21   1.177889e+06   9.179310e-39   0.000000e+00   0.000000e+00
      888000   8.879990e-06   2.223109e+00   2.852412e+01   2.070856e+01   2.390918e+05   1.008926e+06   5.588624e+05  -6.114576e+01   1.449012e+01   1.122432e-20   1.177889e+06   1.319748e-38   0.000000e+00   0.000000e+00
      896000   8.959990e-06   2.242236e+00   2.860483e+01   2.075327e+01   2.390918e+05   1.008926e+06   5.588624e+05  -6.950365e+01   1.647074e+01   7.712311e-21   1.177889e+06   1.704927e-38   0.000000e+00   0.000000e+00
      904000   9.039990e-06   2.261364e+00   2.868555e+01   2.079798e+01   2.390918e+05   1.008926e+06   5.588624e+05  -9.497384e+01   2.250659e+01   1.368278e-20   1.177889e+06   3.183533e-38   0.000000e+00   0.000000e+00
      912000   9.119990e-06   2.280491e+00   2.876626e+01   2.084268e+01   2.390918e+05   1.008926e+06   5.588624e+05  -6.393569e+01   1.515127e+01  -4.313793e-21   1.177889e+06   1.442830e-38   0.000000e+00   0.000000e+00
      920000   9.199990e-06   2.299618e+00   2.884698e+01   2.088739e+01   2.390918e+05   1.008926e+06   5.588624e+05  -7.805864e+01   1.849808e+01  -1.089552e-20   1.177889e+06   2.150653e-38   0.000000e+00   0.000000e+00
      928000   9.279990e-06   2.318746e+00   2.892769e+01   2.093210e+01   2.390918e+05   1.008926e+06   5.588624e+05  -7.027281e+01   1.665302e+01   9.594696e-21   1.177889e+06   1.743163e-38   0.000000e+00   0.000000e+00
      936000   9.359990e-06   2.337873e+00   2.900840e+01   2.097681e+01   2.390918e+05   1.008926e+06   5.588624e+05  -6.415419e+01   1.520305e+01   1.417799e-21   1.177889e+06   1.452747e-38   0.000000e+00   0.000000e+00
      944000   9.439990e-06   2.357000e+00   2.908912e+01   2.102152e+01   2.390918e+05   1.008926e+06   5.588624e+05  -4.457584e+01   1.056343e+01  -1.008954e-20   1.177889e+06   7.014128e-39   0.000000e+00   0.000000e+00
      952000   9.519990e-06   2.376128e+00   2.916983e+01   2.106623e+01   2.390918e+05   1.008926e+06   5.588624e+05  -8.228035e+01   1.949853e+01  -2.306813e-20   1.177889e+06   2.389446e-38   0.000000e+00   0.000000e+00
      960000   9.599990e-06   2.395255e+00   2.925055e+01   2.111094e+01   2.390918e+05   1.008926e+06   5.588624e+05  -4.510419e+01   1.068864e+01   8.553434e-21   1.177889e+06   7.181615e-39   0.000000e+00   0.000000e+00
      968000   9.679990e-06   2.414382e+00   2.933126e+01   2.115565e+01   2.390918e+05   1.008926e+06   5.588624e+05  -6.523171e+01   1.545839e+01   5.676342e-21   1.177889e+06   1.501813e-38   0.000000e+00   0.000000e+00
      976000   9.759990e-06   2.433510e+00   2.941197e+01   2.120036e+01   2.390918e+05   1.008926e+06   5.588624e+05  -6.193241e+01   1.467654e+01   1.232895e-20   1.177889e+06   1.353876e-38   0.000000e+00   0.000000e+00
      984000   9.839990e-06   2.452637e+00   2.949269e+01   2.124507e+01   2.390918e+05   1.008926e+06   5.588624e+05  -5.481093e+01   1.298891e+01   1.470945e-21   1.177889e+06   1.060422e-38   0.000000e+00   0.000000e+00
      992000   9.919990e-06   2.471764e+00   2.957340e+01   2.128977e+01   2.390918e+05   1.008926e+06   5.588624e+05  -6.367024e+01   1.508836e+01   3.294794e-22   1.177889e+06   1.430777e-38   0.000000e+00   0.000000e+00
     1000000   9.999990e-06   2.490892e+00   2.965412e+01   2.133448e+01   2.390918e+05   1.008926e+06   5.588624e+05  -2.190506e+01   5.190989e+00   1.126766e-21   1.177889e+06   1.694204e-39   0.000000e+00   0.000000e+00
     1008000   1.007999e-05   2.510019e+00   2.973483e+01   2.137919e+01   2.390918e+05   1.008926e+06   5.588624e+05  -5.522686e+01   1.308748e+01   1.640939e-20   1.177889e+06   1.076684e-38   0.000000e+00   0.000000e+00
     1016000   1.015999e-05   2.529147e+00   2.981554e+01   2.142390e+01   2.390918e+05   1.008926e+06   5.588624e+05  -6.507435e+01   1.542110e+01  -1.176776e-20   1.177889e+06   1.494809e-38   0.000000e+00   0.000000e+00
     1024000   1.023999e-05   2.548274e+00   2.989626e+01   2.146861e+01   2.390918e+05   1.008926e+06   5.588624e+05  -4.374471e+01   1.036648e+01   1.645412e-21   1.177889e+06   6.755141e-39   0.000000e+00   0.000000e+00
     1032000   1.031999e-05   2.567401e+00   2.997697e+01   2.151332e+01   2.390918e+05   1.008926e+06   5.588624e+05  -4.861944e+01   1.152167e+01  -3.840550e-21   1.177889e+06   8.343692e-39   0.000000e+00   0.000000e+00
     1040000   1.039999e-05   2.586529e+00   3.005769e+01   2.155803e+01   2.390918e+05   1.008926e+06   5.588624e+05  -5.897259e+01   1.397513e+01   4.010258e-21   1.177889e+06   1.227465e-38   0.000000e+00   0.000000e+00
     1048000   1.047999e-05   2.605656e+00   3.013840e+01   2.160274e+01   2.390918e+05   1.008926e+06   5.588624e+05  -6.141184e+01   1.455317e+01   1.282003e-20   1.177889e+06   1.331296e-38   0.000000e+00   0.000000e+00
     1056000   1.055999e-05   2.624783e+00   3.021912e+01   2.164745e+01   2.390918e+05   1.008926e+06   5.588624e+05  -5.095753e+01   1.207575e+01   5.192377e-22   1.177889e+06   9.165197e-39   0.000000e+00   0.000000e+00
     1064000   1.063999e-05   2.643911e+00   3.029983e+01   2.169215e+01   2.390918e+05   1.008926e+06   5.588624e+05  -5.344716e+01   1.266573e+01  -1.122793e-20   1.177889e+06   1.008265e-38   0.000000e+00   0.000000e+00
     1072000   1.071999e-05   2.663038e+00   3.038054e+01   2.173686e+01   2.390918e+05   1.008926e+06   5.588624e+05  -2.954454e+01   7.001368e+00   8.874760e-21   1.177889e+06   3.081797e-39   0.000000e+00   0.000000e+00
     1080000   1.079999e-05   2.682165e+00   3.046126e+01   2.178157e+01   2.390918e+05   1.008926e+06   5.588624e+05  -8.301136e+01   1.967176e+01   1.801013e-20   1.177889e+06   2.431992e-38   0.000000e+00   0.000000e+00
     1088000   1.087999e-05   2.701293e+00   3.054197e+01   2.182628e+01   2.390918e+05   1.008926e+06   5.588624e+05  -4.478177e+01   1.061223e+01  -6.501771e-21   1.177889e+06   7.080705e-39   0.000000e+00   0.000000e+00
     1096000   1.095999e-05   2.720420e+00   3.062269e+01   2.187099e+01   2.390918e+05   1.008926e+06   5.588624e+05  -5.427089e+01   1.286094e+01   6.236196e-21   1.177889e+06   1.039413e-38   0.000000e+00   0.000000e+00
     1104000   1.103999e-05   2.739547e+00   3.070340e+01   2.191570e+01   2.390918e+05   1.008926e+06   5.588624e+05  -3.432644e+01   8.134566e+00   1.264666e-21   1.177889e+06   4.158189e-39   0.000000e+00   0.000000e+00
     1112000   1.111999e-05   2.758675e+00   3.078411e+01   2.196041e+01   2.390918e+05   1.008926e+06   5.588624e+05  -6.079294e+01   1.440651e+01  -1.280278e-20   1.177889e+06   1.304336e-38   0.000000e+00   0.000000e+00
     1120000   1.119999e-05   2.777802e+00   3.086483e+01   2.200512e+01   2.390918e+05   1.008926e+06   5.588624e+05  -6.375084e+01   1.510746e+01   1.210796e-20   1.177889e+06   1.434365e-38   0.000000e+00   0.000000e+00
     1128000   1.127999e-05   2.796929e+00   3.094554e+01   2.204983e+01   2.390918e+05   1.008926e+06   5.588624e+05  -8.696231e+00   2.060804e+00   1.738401e-21   1.177889e+06   2.672997e-40   0.000000e+00   0.000000e+00
     1136000   1.135999e-05   2.816057e+00   3.102626e+01   2.209454e+01   2.390918e+05   1.008926e+06   5.588624e+05  -4.204633e+01   9.963999e+00   1.275589e-20   1.177889e+06   6.240264e-39   0.000000e+00   0.000000e+00
     1144000   1.143999e-05   2.835184e+00   3.110697e+01   2.213924e+01   2.390918e+05   1.008926e+06   5.588624e+05  -3.037854e+01   7.199006e+00   4.324137e-21   1.177889e+06   3.256588e-39   0.000000e+00   0.000000e+00
     1152000   1.151999e-05   2.854311e+00   3.118768e+01   2.218395e+01   2.390918e+05   1.008926e+06   5.588624e+05  -5.875003e+01   1.392239e+01   5.896621e-21   1.177889e+06   1.218132e-38   0.000000e+00   0.000000e+00
     1160000   1.159999e-05   2.873439e+00   3.126840e+01   2.222866e+01   2.390918e+05   1.008926e+06   5.588624e+05  -3.303254e+01   7.827941e+00   7.704189e-21   1.177889e+06   3.851361e-39   0.000000e+00   0.000000e+00
     1168000   1.167999e-05   2.892566e+00   3.134911e+01   2.227337e+01   2.390918e+05   1.008926e+06   5.588624e+05  -2.113573e+01   5.008675e+00   6.615331e-21   1.177889e+06   1.576980e-39   0.000000e+00   0.000000e+00
     1176000   1.175999e-05   2.911693e+00   3.142983e+01   2.231808e+01   2.390918e+05   1.008926e+06   5.588624e+05  -2.973219e+01   7.045837e+00  -6.508145e-21   1.177889e+06   3.119867e-39   0.000000e+00   0.000000e+00
     1184000   1.183999e-05   2.930821e+00   3.151054e+01   2.236279e+01   2.390918e+05   1.008926e+06   5.588624e+05  -2.546959e+01   6.035700e+00   4.467662e-21   1.177889e+06   2.289712e-39   0.000000e+00   0.000000e+00
     1192000   1.191999e-05   2.949948e+00   3.159125e+01   2.240750e+01   2.390918e+05   1.008926e+06   5.588624e+05  -4.736263e+01   1.122384e+01   5.592588e-21   1.177889e+06   7.916766e-39   0.000000e+00   0.000000e+00
     1200000   1.199999e-05   2.969076e+00   3.167197e+01   2.245221e+01   2.390918e+05   1.008926e+06   5.588624e+05  -1.358853e+01   3.220164e+00  -2.057066e-21   1.177889e+06   6.518824e-40   0.000000e+00   0.000000e+00
     1208000   1.207999e-05   2.988203e+00   3.175268e+01   2.249692e+01   2.390918e+05   1.008926e+06   5.588624e+05  -1.884000e+01   4.464641e+00   4.947891e-21   1.177889e+06   1.252868e-39   0.000000e+00   0.000000e+00
     1216000   1.215999e-05   3.007330e+00   3.183340e+01   2.254163e+01   2.390918e+05   1.008926e+06   5.588624e+05  -2.767917e+01   6.559318e+00  -7.094103e-21   1.177889e+06   2.704217e-39   0.000000e+00   0.000000e+00
     1224000   1.223999e-05   3.026458e+00   3.191411e+01   2.258633e+01   2.390918e+05   1.008926e+06   5.588624e+05  -2.197389e+01   5.207300e+00   2.587792e-21   1.177889e+06   1.703920e-39   0.000000e+00   0.000000e+00
     1232000   1.231999e-05   3.045585e+00   3.199482e+01   2.263104e+01   2.390918e+05   1.008926e+06   5.588624e+05  -4.703682e+01   1.114663e+01   6.502549e-21   1.177889e+06   7.808325e-39   0.000000e+00   0.000000e+00
     1240000   1.239999e-05   3.064712e+00   3.207554e+01   2.267575e+01   2.390918e+05   1.008926e+06   5.588624e+05  -2.239040e+01   5.306002e+00  -1.272276e-21   1.177889e+06   1.769514e-39   0.000000e+00   0.000000e+00
     1248000   1.247999e-05   3.083840e+00   3.215625e+01   2.272046e+01   2.390918e+05   1.008926e+06   5.588624e+05  -9.274160e+00   2.197760e+00   2.820556e-21   1.177889e+06   3.036025e-40   0.000000e+00   0.000000e+00
     1256000   1.255999e-05   3.102967e+00   3.223697e+01   2.276517e+01   2.390918e+05   1.008926e+06   5.588624e+05  -3.137166e+01   7.434352e+00  -6.146681e-21   1.177889e+06   3.474142e-39   0.000000e+00   0.000000e+00
     1264000   1.263999e-05   3.122094e+00   3.231768e+01   2.280988e+01   2.390918e+05   1.008926e+06   5.588624e+05  -2.055907e+01   4.872020e+00  -6.865592e-21   1.177889e+06   1.492226e-39   0.000000e+00   0.000000e+00
     1272000   1.271999e-05   3.141222e+00   3.239839e+01   2.285459e+01   2.390918e+05   1.008926e+06   5.588624e+05  -2.137515e+00   5.065412e-01  -3.232958e-22   1.177889e+06   1.616158e-41   0.000000e+00   0.000000e+00
     1280000   1.279999e-05   3.160349e+00   3.247911e+01   2.289930e+01   2.390918e+05   1.008926e+06   5.588624e+05  -5.223477e+01   1.237842e+01  -9.572335e-21   1.177889e+06   9.629363e-39   0.000000e+00   0.000000e+00
     1288000   1.287999e-05   3.179476e+00   3.255982e+01   2.294401e+01   2.390918e+05   1.008926e+06   5.588624e+05  -2.107853e+01   4.995120e+00  -2.298411e-21   1.177889e+06   1.568091e-39   0.000000e+00   0.000000e+00
     1296000   1.295999e-05   3.198604e+00   3.264054e+01   2.298872e+01   2.390918e+05   1.008926e+06   5.588624e+05  -1.268244e+01   3.005442e+00   1.549184e-21   1.177889e+06   5.676405e-40   0.000000e+00   0.000000e+00
     1304000   1.303999e-05   3.217731e+00   3.272125e+01   2.303342e+01   2.390918e+05   1.008926e+06   5.588624e+05  -1.890451e+01   4.479928e+00  -5.146234e-21   1.177889e+06   1.261601e-39   0.000000e+00   0.000000e+00
     1312000   1.311999e-05   3.236858e+00   3.280196e+01   2.307813e+01   2.390918e+05   1.008926e+06   5.588624e+05  -2.193877e+01   5.198977e+00  -5.472925e-22   1.177889e+06   1.699304e-39   0.000000e+00   0.000000e+00
     1320000   1.319999e-05   3.255986e+00   3.288268e+01   2.312284e+01   2.390918e+05   1.008926e+06   5.588624e+05   9.771095e+00  -2.315522e+00  -5.757673e-21   1.177889e+06   3.367721e-40   0.000000e+00   0.000000e+00
     1328000   1.327999e-05   3.275113e+00   3.296339e+01   2.316755e+01   2.390918e+05   1.008926e+06   5.588624e+05  -3.174548e+01   7.522938e+00  -1.090387e-20   1.177889e+06   3.556739e-39   0.000000e+00   0.000000e+00
     1336000   1.335999e-05   3.294240e+00   3.304411e+01   2.321226e+01   2.390918e+05   1.008926e+06   5.588624e+05  -2.199396e+01   5.212055e+00  -1.045522e-21   1.177889e+06   1.707765e-39   0.000000e+00   0.000000e+00
     1344000   1.343999e-05   3.313368e+00   3.312482e+01   2.325697e+01   2.390918e+05   1.008926e+06   5.588624e+05  -1.193910e+01   2.829288e+00   5.895303e-21   1.177889e+06   5.031055e-40   0.000000e+00   0.000000e+00
     1352000   1.351999e-05   3.332495e+00   3.320553e+01   2.330168e+01   2.390918e+05   1.008926e+06   5.588624e+05  -1.382990e+01   3.277364e+00   4.184018e-21   1.177889e+06   6.750250e-40   0.000000e+00   0.000000e+00
     1360000   1.359999e-05   3.351622e+00   3.328625e+01   2.334639e+01   2.390918e+05   1.008926e+06   5.588624e+05  -2.003295e+01   4.747341e+00  -6.703389e-21   1.177889e+06   1.416402e-39   0.000000e+00   0.000000e+00
     1368000   1.367999e-05   3.370750e+00   3.336696e+01   2.339110e+01   2.390918e+05   1.008926e+06   5.588624e+05   1.818345e+01  -4.309055e+00   1.844702e-21   1.177889e+06   1.166779e-39   0.000000e+00   0.000000e+00
     1376000   1.375999e-05   3.389877e+00   3.344768e+01   2.343581e+01   2.390918e+05   1.008926e+06   5.588624e+05   3.628374e+01  -8.598400e+00  -4.930263e-21   1.177889e+06   4.645038e-39   0.000000e+00   0.000000e+00
     1384000   1.383999e-05   3.409005e+00   3.352839e+01   2.348051e+01   2.390918e+05   1.008926e+06   5.588624e+05  -5.492172e+00   1.301517e+00  -1.508590e-21   1.177889e+06   1.065311e-40   0.000000e+00   0.000000e+00
     1392000   1.391999e-05   3.428132e+00   3.360911e+01   2.352522e+01   2.390918e+05   1.008926e+06   5.588624e+05   2.720504e+00  -6.446961e-01  -2.729161e-22   1.177889e+06   2.613802e-41   0.000000e+00   0.000000e+00
     1400000   1.399999e-05   3.447259e+00   3.368982e+01   2.356993e+01   2.390918e+05   1.008926e+06   5.588624e+05  -3.379344e+00   8.008258e-01  -7.599611e-22   1.177889e+06   4.029019e-41   0.000000e+00   0.000000e+00
     1408000   1.407999e-05   3.466387e+00   3.377053e+01   2.361464e+01   2.390918e+05   1.008926e+06   5.588624e+05  -2.182702e+01   5.172495e+00  -3.535281e-21   1.177889e+06   1.680940e-39   0.000000e+00   0.000000e+00
     1416000   1.415999e-05   3.485514e+00   3.385125e+01   2.365935e+01   2.390918e+05   1.008926e+06   5.588624e+05   9.548797e+00  -2.262842e+00   2.366379e-21   1.177889e+06   3.217833e-40   0.000000e+00   0.000000e+00
     1424000   1.423999e-05   3.504641e+00   3.393196e+01   2.370406e+01   2.390918e+05   1.008926e+06   5.588624e+05   4.303827e+00  -1.019907e+00  -2.066195e-21   1.177889e+06   6.537981e-41   0.000000e+00   0.000000e+00
     1432000   1.431999e-05   3.523769e+00   3.401268e+01   2.374877e+01   2.390918e+05   1.008926e+06   5.588624e+05   2.700613e+00  -6.399824e-01  -1.139508e-21   1.177889e+06   2.573884e-41   0.000000e+00   0.000000e+00
     1440000   1.439999e-05   3.542896e+00   3.409339e+01   2.379348e+01   2.390918e+05   1.008926e+06   5.588624e+05   4.349125e+00  -1.030641e+00  -2.563003e-22   1.177889e+06   6.675644e-41   0.000000e+00   0.000000e+00
     1448000   1.447999e-05   3.562023e+00   3.417410e+01   2.383819e+01   2.390918e+05   1.008926e+06   5.588624e+05   1.792076e-02  -4.246801e-03  -1.574615e-24   1.177889e+06   1.289450e-45   0.000000e+00   0.000000e+00
     1456000   1.455999e-05   3.581151e+00   3.425482e+01   2.388290e+01   2.390918e+05   1.008926e+06   5.588624e+05   2.074472e+00  -4.916016e-01  -1.175201e-21   1.177889e+06   1.518563e-41   0.000000e+00   0.000000e+00
     1464000   1.463999e-05   3.600278e+00   3.433553e+01   2.392760e+01   2.390918e+05   1.008926e+06   5.588624e+05   1.800485e+01  -4.266731e+00   6.663165e-21   1.177889e+06   1.143838e-39   0.000000e+00   0.000000e+00
     1472000   1.471999e-05   3.619405e+00   3.441625e+01   2.397231e+01   2.390918e+05   1.008926e+06   5.588624e+05   3.315309e+00  -7.856509e-01   7.917738e-22   1.177889e+06   3.887973e-41   0.000000e+00   0.000000e+00
     1480000   1.479999e-05   3.638533e+00   3.449696e+01   2.401702e+01   2.390918e+05   1.008926e+06   5.588624e+05   2.236077e+01  -5.298981e+00   2.135445e-21   1.177889e+06   1.764412e-39   0.000000e+00   0.000000e+00
     1488000   1.487999e-05   3.657660e+00   3.457767e+01   2.406173e+01   2.390918e+05   1.008926e+06   5.588624e+05  -4.031642e+00   9.554051e-01  -1.200281e-22   1.177889e+06   5.733589e-41   0.000000e+00   0.000000e+00
     1496000   1.495999e-05   3.676787e+00   3.465839e+01   2.410644e+01   2.390918e+05   1.008926e+06   5.588624e+05  -2.538533e-02   6.015732e-03   6.337280e-24   1.177889e+06   1.965991e-45   0.000000e+00   0.000000e+00
     1504000   1.503999e-05   3.695915e+00   3.473910e+01   2.415115e+01   2.390918e+05   1.008926e+06   5.588624e+05   2.838345e+01  -6.726216e+00  -1.139680e-20   1.177889e+06   2.843222e-39   0.000000e+00   0.000000e+00
     1512000   1.511999e-05   3.715042e+00   3.481982e+01   2.419586e+01   2.390918e+05   1.008926e+06   5.588624e+05   2.947966e+01  -6.985992e+00  -4.102198e-21   1.177889e+06   3.067609e-39   0.000000e+00   0.000000e+00
     1520000   1.519999e-05   3.734169e+00   3.490053e+01   2.424057e+01   2.390918e+05   1.008926e+06   5.588624e+05   3.861333e-01  -9.150459e-02  -7.942985e-23   1.177889e+06   5.270379e-43   0.000000e+00   0.000000e+00
     1528000   1.527999e-05   3.753297e+00   3.498124e+01   2.428528e+01   2.390918e+05   1.008926e+06   5.588624e+05  -1.879773e+00   4.454625e-01   8.644282e-22   1.177889e+06   1.246839e-41   0.000000e+00   0.000000e+00
     1536000   1.535999e-05   3.772424e+00   3.506196e+01   2.432999e+01   2.390918e+05   1.008926e+06   5.588624e+05   6.385625e+00  -1.513244e+00  -2.319319e-21   1.177889e+06   1.439538e-40   0.000000e+00   0.000000e+00
     1544000   1.543999e-05   3.791551e+00   3.514267e+01   2.437469e+01   2.390918e+05   1.008926e+06   5.588624e+05   4.264865e+00  -1.010674e+00   1.097557e-21   1.177889e+06   6.422266e-41   0.000000e+00   0.000000e+00
     1552000   1.551999e-05   3.810679e+00   3.522339e+01   2.441940e+01   2.390918e+05   1.008926e+06   5.588624e+05   1.307051e+01  -3.097406e+00  -4.286231e-21   1.177889e+06   6.029585e-40   0.000000e+00   0.000000e+00
     1560000   1.559999e-05   3.829806e+00   3.530410e+01   2.446411e+01   2.390918e+05   1.008926e+06   5.588624e+05   2.884543e+01  -6.835694e+00   7.290507e-21   1.177889e+06   2.937069e-39   0.000000e+00   0.000000e+00
     1568000   1.567999e-05   3.848934e+00   3.538481e+01   2.450882e+01   2.390918e+05   1.008926e+06   5.588624e+05   1.897197e+00  -4.495914e-01  -7.926457e-22   1.177889e+06   1.274779e-41   0.000000e+00   0.000000e+00
     1576000   1.575999e-05   3.868061e+00   3.546553e+01   2.455353e+01   2.390918e+05   1.008926e+06   5.588624e+05   4.576433e+01  -1.084508e+01  -2.633338e-21   1.177889e+06   7.391090e-39   0.000000e+00   0.000000e+00
     1584000   1.583999e-05   3.887188e+00   3.554624e+01   2.459824e+01   2.390918e+05   1.008926e+06   5.588624e+05   1.513502e+01  -3.586647e+00  -2.299397e-22   1.177889e+06   8.084831e-40   0.000000e+00   0.000000e+00
     1592000   1.591999e-05   3.906316e+00   3.562696e+01   2.464295e+01   2.390918e+05   1.008926e+06   5.588624e+05   2.486978e+01  -5.893558e+00   2.788732e-21   1.177889e+06   2.183215e-39   0.000000e+00   0.000000e+00
     1600000   1.599999e-05   3.925443e+00   3.570767e+01   2.468766e+01   2.390918e+05   1.008926e+06   5.588624e+05   1.280794e+01  -3.035184e+00   9.272464e-21   1.177889e+06   5.786787e-40   0.000000e+00   0.000000e+00
     1608000   1.607999e-05   3.944570e+00   3.578838e+01   2.473237e+01   2.390918e+05   1.008926e+06   5.588624e+05   5.326109e+01  -1.262164e+01   1.810745e-20   1.177889e+06   1.001089e-38   0.000000e+00   0.000000e+00
     1616000   1.615999e-05   3.963698e+00   3.586910e+01   2.477708e+01   2.390918e+05   1.008926e+06   5.588624e+05   1.001245e+01  -2.372718e+00   5.396906e-22   1.177889e+06   3.541325e-40   0.000000e+00   0.000000e+00
     1624000   1.623999e-05   3.982825e+00   3.594981e+01   2.482178e+01   2.390918e+05   1.008926e+06   5.588624e+05   2.249960e+01  -5.331880e+00   3.605620e-21   1.177889e+06   1.786969e-39   0.000000e+00   0.000000e+00
     1632000   1.631999e-05   4.001952e+00   3.603053e+01   2.486649e+01   2.390918e+05   1.008926e+06   5.588624e+05   3.303048e+01  -7.827454e+00   7.260894e-21   1.177889e+06   3.851003e-39   0.000000e+00   0.000000e+00
     1640000   1.639999e-05   4.021080e+00   3.611124e+01   2.491120e+01   2.390918e+05   1.008926e+06   5.588624e+05   3.226592e+01  -7.646270e+00  -6.584570e-21   1.177889e+06   3.675422e-39   0.000000e+00   0.000000e+00
     1648000   1.647999e-05   4.040207e+00   3.619195e+01   2.495591e+01   2.390918e+05   1.008926e+06   5.588624e+05   5.905606e+00  -1.399491e+00  -8.628422e-22   1.177889e+06   1.232378e-40   0.000000e+00   0.000000e+00
     1656000   1.655999e-05   4.059334e+00   3.627267e+01   2.500062e+01   2.390918e+05   1.008926e+06   5.588624e+05   3.719238e+01  -8.813727e+00  -1.611098e-20   1.177889e+06   4.882182e-39   0.000000e+00   0.000000e+00
     1664000   1.663999e-05   4.078462e+00   3.635338e+01   2.504533e+01   2.390918e+05   1.008926e+06   5.588624e+05   4.018429e+01  -9.522740e+00   6.400980e-21   1.177889e+06   5.699082e-39   0.000000e+00   0.000000e+00
     1672000   1.671999e-05   4.097589e+00   3.643410e+01   2.509004e+01   2.390918e+05   1.008926e+06   5.588624e+05  -1.272647e+01   3.015877e+00   2.192665e-22   1.177889e+06   5.713156e-40   0.000000e+00   0.000000e+00
     1680000   1.679999e-05   4.116716e+00   3.651481e+01   2.513475e+01   2.390918e+05   1.008926e+06   5.588624e+05   3.609982e+01  -8.554817e+00   3.092287e-21   1.177889e+06   4.600851e-39   0.000000e+00   0.000000e+00
     1688000   1.687999e-05   4.135844e+00   3.659552e+01   2.517946e+01   2.390918e+05   1.008926e+06   5.588624e+05   3.677912e+00  -8.715795e-01   7.098375e-22   1.177889e+06   4.785086e-41   0.000000e+00   0.000000e+00
     1696000   1.695999e-05   4.154971e+00   3.667624e+01   2.522417e+01   2.390918e+05   1.008926e+06   5.588624e+05   2.456217e+01  -5.820662e+00   4.451403e-21   1.177889e+06   2.129796e-39   0.000000e+00   0.000000e+00
     1704000   1.703999e-05   4.174098e+00   3.675695e+01   2.526887e+01   2.390918e+05   1.008926e+06   5.588624e+05   2.772981e+01  -6.571318e+00  -9.894932e-21   1.177889e+06   2.714025e-39   0.000000e+00   0.000000e+00
     1712000   1.711999e-05   4.193226e+00   3.683767e+01   2.531358e+01   2.390918e+05   1.008926e+06   5.588624e+05   2.800065e+01  -6.635501e+00  -1.676746e-20   1.177889e+06   2.767295e-39   0.000000e+00   0.000000e+00
     1720000   1.719999e-05   4.212353e+00   3.691838e+01   2.535829e+01   2.390918e+05   1.008926e+06   5.588624e+05   4.841853e+01  -1.147406e+01  -2.825358e-20   1.177889e+06   8.274460e-39   0.000000e+00   0.000000e+00
     1728000   1.727999e-05   4.231480e+00   3.699910e+01   2.540300e+01   2.390918e+05   1.008926e+06   5.588624e+05   2.823522e+01  -6.691089e+00   7.801522e-21   1.177889e+06   2.814529e-39   0.000000e+00   0.000000e+00
     1736000   1.735999e-05   4.250608e+00   3.707981e+01   2.544771e+01   2.390918e+05   1.008926e+06   5.588624e+05   4.537291e+01  -1.075232e+01   8.637276e-21   1.177889e+06   7.265968e-39   0.000000e+00   0.000000e+00
     1744000   1.743999e-05   4.269735e+00   3.716052e+01   2.549242e+01   2.390918e+05   1.008926e+06   5.588624e+05   2.706729e+01  -6.414316e+00   2.541817e-22   1.177889e+06   2.586209e-39   0.000000e+00   0.000000e+00
     1752000   1.751999e-05   4.288863e+00   3.724124e+01   2.553713e+01   2.390918e+05   1.008926e+06   5.588624e+05   3.202477e+01  -7.589123e+00   1.058673e-20   1.177889e+06   3.620280e-39   0.000000e+00   0.000000e+00
     1760000   1.759999e-05   4.307990e+00   3.732195e+01   2.558184e+01   2.390918e+05   1.008926e+06   5.588624e+05   4.886601e+01  -1.158011e+01   6.171273e-21   1.177889e+06   8.427798e-39   0.000000e+00   0.000000e+00
     1768000   1.767999e-05   4.327117e+00   3.740267e+01   2.562655e+01   2.390918e+05   1.008926e+06   5.588624e+05   4.804085e+01  -1.138456e+01   7.240191e-21   1.177889e+06   8.146676e-39   0.000000e+00   0.000000e+00
     1776000   1.775999e-05   4.346245e+00   3.748338e+01   2.567125e+01   2.390918e+05   1.008926e+06   5.588624e+05   3.542068e+01  -8.393875e+00  -1.560462e-20   1.177889e+06   4.428768e-39   0.000000e+00   0.000000e+00
     1784000   1.783999e-05   4.365372e+00   3.756409e+01   2.571596e+01   2.390918e+05   1.008926e+06   5.588624e+05   5.644795e+01  -1.337685e+01  -2.081819e-20   1.177889e+06   1.124574e-38   0.000000e+00   0.000000e+00
     1792000   1.791999e-05   4.384499e+00   3.764481e+01   2.576067e+01   2.390918e+05   1.008926e+06   5.588624e+05   2.925628e+01  -6.933056e+00   8.518337e-22   1.177889e+06   3.020989e-39   0.000000e+00   0.000000e+00
     1800000   1.799999e-05   4.403627e+00   3.772552e+01   2.580538e+01   2.390918e+05   1.008926e+06   5.588624e+05   4.410289e+01  -1.045136e+01  -9.240068e-21   1.177889e+06   6.864896e-39   0.000000e+00   0.000000e+00
     1808000   1.807999e-05   4.422754e+00   3.780624e+01   2.585009e+01   2.390918e+05   1.008926e+06   5.588624e+05   4.579236e+01  -1.085172e+01  -5.316645e-22   1.177889e+06   7.402428e-39   0.000000e+00   0.000000e+00
     1816000   1.815999e-05   4.441881e+00   3.788695e+01   2.589480e+01   2.390918e+05   1.008926e+06   5.588624e+05   2.147307e+01  -5.088618e+00  -2.371006e-21   1.177889e+06   1.627953e-39   0.000000e+00   0.000000e+00
     1824000   1.823999e-05   4.461009e+00   3.796766e+01   2.593951e+01   2.390918e+05   1.008926e+06   5.588624e+05   2.582159e+01  -6.119114e+00  -1.134525e-20   1.177889e+06   2.353724e-39   0.000000e+00   0.000000e+00
     1832000   1.831999e-05   4.480136e+00   3.804838e+01   2.598422e+01   2.390918e+05   1.008926e+06   5.588624e+05   3.656300e+01  -8.664579e+00   3.603595e-21   1.177889e+06   4.718695e-39   0.000000e+00   0.000000e+00
     1840000   1.839999e-05   4.499263e+00   3.812909e+01   2.602893e+01   2.390918e+05   1.008926e+06   5.588624e+05   2.601399e+01  -6.164708e+00  -3.021642e-21   1.177889e+06   2.389422e-39   0.000000e+00   0.000000e+00
     1848000   1.847999e-05   4.518391e+00   3.820981e+01   2.607364e+01   2.390918e+05   1.008926e+06   5.588624e+05   4.152251e+01  -9.839867e+00  -2.881311e-21   1.177889e+06   6.085829e-39   0.000000e+00   0.000000e+00
     1856000   1.855999e-05   4.537518e+00   3.829052e+01   2.611834e+01   2.390918e+05   1.008926e+06   5.588624e+05   3.776755e+01  -8.950029e+00   1.063026e-20   1.177889e+06   5.034839e-39   0.000000e+00   0.000000e+00
     1864000   1.863999e-05   4.556645e+00   3.837123e+01   2.616305e+01   2.390918e+05   1.008926e+06   5.588624e+05   5.513264e+01  -1.306515e+01  -1.814610e-20   1.177889e+06   1.072739e-38   0.000000e+00   0.000000e+00
     1872000   1.871999e-05   4.575773e+00   3.845195e+01   2.620776e+01   2.390918e+05   1.008926e+06   5.588624e+05   3.881055e+01  -9.197196e+00  -9.689914e-21   1.177889e+06   5.316205e-39   0.000000e+00   0.000000e+00
     1880000   1.879999e-05   4.594900e+00   3.853266e+01   2.625247e+01   2.390918e+05   1.008926e+06   5.588624e+05   5.015551e+01  -1.188569e+01   1.445777e-20   1.177889e+06   8.879596e-39   0.000000e+00   0.000000e+00
     1888000   1.887999e-05   4.614027e+00   3.861338e+01   2.629718e+01   2.390918e+05   1.008926e+06   5.588624e+05   5.280883e+01  -1.251446e+01   7.036956e-21   1.177889e+06   9.841944e-39   0.000000e+00   0.000000e+00
     1896000   1.895999e-05   4.633155e+00   3.869409e+01   2.634189e+01   2.390918e+05   1.008926e+06   5.588624e+05   3.798519e+01  -9.001604e+00   1.289187e-20   1.177889e+06   5.093119e-39   0.000000e+00   0.000000e+00
     1904000   1.903999e-05   4.652282e+00   3.877480e+01   2.638660e+01   2.390918e+05   1.008926e+06   5.588624e+05   5.837092e+01  -1.383255e+01   1.662320e-20   1.177889e+06   1.202575e-38   0.000000e+00   0.000000e+00
     1912000   1.911999e-05   4.671409e+00   3.885552e+01   2.643131e+01   2.390918e+05   1.008926e+06   5.588624e+05   6.155875e+01  -1.458799e+01   4.690372e-21   1.177889e+06   1.337511e-38   0.000000e+00   0.000000e+00
     1920000   1.919999e-05   4.690537e+00   3.893623e+01   2.647602e+01   2.390918e+05   1.008926e+06   5.588624e+05   3.919780e+01  -9.288965e+00   3.289857e-21   1.177889e+06   5.423162e-39   0.000000e+00   0.000000e+00
     1928000   1.927999e-05   4.709664e+00   3.901695e+01   2.652073e+01   2.390918e+05   1.008926e+06   5.588624e+05   5.023458e+01  -1.190442e+01  -1.857369e-20   1.177889e+06   8.907000e-39   0.000000e+00   0.000000e+00
     1936000   1.935999e-05   4.728791e+00   3.909766e+01   2.656543e+01   2.390918e+05   1.008926e+06   5.588624e+05   5.235688e+01  -1.240736e+01   1.411914e-20   1.177889e+06   9.675503e-39   0.000000e+00   0.000000e+00
     1944000   1.943999e-05   4.747919e+00   3.917837e+01   2.661014e+01   2.390918e+05   1.008926e+06   5.588624e+05   4.106839e+01  -9.732250e+00   1.098006e-21   1.177889e+06   5.952927e-39   0.000000e+00   0.000000e+00
     1952000   1.951999e-05   4.767046e+00   3.925909e+01   2.665485e+01   2.390918e+05   1.008926e+06   5.588624e+05   4.867373e+01  -1.153454e+01  -1.073590e-21   1.177889e+06   8.361581e-39   0.000000e+00   0.000000e+00
     1960000   1.959999e-05   4.786174e+00   3.933980e+01   2.669956e+01   2.390918e+05   1.008926e+06   5.588624e+05   5.965694e+01  -1.413730e+01   9.056399e-21   1.177889e+06   1.256113e-38   0.000000e+00   0.000000e+00
     1968000   1.967999e-05   4.805301e+00   3.942052e+01   2.674427e+01   2.390918e+05   1.008926e+06   5.588624e+05   4.512154e+01  -1.069275e+01  -1.938186e-20   1.177889e+06   7.185885e-39   0.000000e+00   0.000000e+00
     1976000   1.975999e-05   4.824428e+00   3.950123e+01   2.678898e+01   2.390918e+05   1.008926e+06   5.588624e+05   4.676636e+01  -1.108254e+01   1.394803e-20   1.177889e+06   7.719241e-39   0.000000e+00   0.000000e+00
     1984000   1.983999e-05   4.843556e+00   3.958194e+01   2.683369e+01   2.390918e+05   1.008926e+06   5.588624e+05   6.922394e+01  -1.640446e+01  -3.558845e-21   1.177889e+06   1.691246e-38   0.000000e+00   0.000000e+00
     1992000   1.991999e-05   4.862683e+00   3.966266e+01   2.687840e+01   2.390918e+05   1.008926e+06   5.588624e+05   2.714451e+01  -6.432615e+00  -3.467133e-21   1.177889e+06   2.601130e-39   0.000000e+00   0.000000e+00
     2000000   1.999999e-05   4.881810e+00   3.974337e+01   2.692311e+01   2.390918e+05   1.008926e+06   5.588624e+05   4.715095e+01  -1.117368e+01   5.015007e-21   1.177889e+06   7.846899e-39   0.000000e+00   0.000000e+00
     2008000   2.007999e-05   4.900938e+00   3.982409e+01   2.696782e+01   2.390918e+05   1.008926e+06   5.588624e+05   5.239625e+01  -1.241669e+01   7.553460e-21   1.177889e+06   9.690932e-39   0.000000e+00   0.000000e+00
     2016000   2.015999e-05   4.920065e+00   3.990480e+01   2.701252e+01   2.390918e+05   1.008926e+06   5.588624e+05   4.966851e+01  -1.177028e+01  -9.155692e-21   1.177889e+06   8.707619e-39   0.000000e+00   0.000000e+00
     2024000   2.023999e-05   4.939192e+00   3.998552e+01   2.705723e+01   2.390918e+05   1.008926e+06   5.588624e+05   4.657882e+01  -1.103809e+01   4.419357e-21   1.177889e+06   7.657987e-39   0.000000e+00   0.000000e+00
     2032000   2.031999e-05   4.958320e+00   4.006623e+01   2.710194e+01   2.390918e+05   1.008926e+06   5.588624e+05   3.694640e+01  -8.755434e+00   2.512949e-21   1.177889e+06   4.818858e-39   0.000000e+00   0.000000e+00
     2040000   2.039999e-05   4.977447e+00   4.014694e+01   2.714665e+01   2.390918e+05   1.008926e+06   5.588624e+05   5.605738e+01  -1.328429e+01   1.827406e-21   1.177889e+06   1.109083e-38   0.000000e+00   0.000000e+00
     2048000   2.047999e-05   4.996574e+00   4.022766e+01   2.719136e+01   2.390918e+05   1.008926e+06   5.588624e+05   4.278263e+01  -1.013849e+01  -7.534034e-21   1.177889e+06   6.460418e-39   0.000000e+00   0.000000e+00
     2056000   2.055999e-05   5.015702e+00   4.030837e+01   2.723607e+01   2.390918e+05   1.008926e+06   5.588624e+05   5.142113e+01  -1.218561e+01  -2.496676e-20   1.177889e+06   9.332606e-39   0.000000e+00   0.000000e+00
     2064000   2.063999e-05   5.034829e+00   4.038909e+01   2.728078e+01   2.390918e+05   1.008926e+06   5.588624e+05   5.649569e+01  -1.338816e+01   1.082307e-21   1.177889e+06   1.126552e-38   0.000000e+00   0.000000e+00
     2072000   2.071999e-05   5.053956e+00   4.046980e+01   2.732549e+01   2.390918e+05   1.008926e+06   5.588624e+05   4.480925e+01  -1.061875e+01   6.447318e-21   1.177889e+06   7.086788e-39   0.000000e+00   0.000000e+00
     2080000   2.079999e-05   5.073084e+00   4.055051e+01   2.737020e+01   2.390918e+05   1.008926e+06   5.588624e+05   5.518432e+01  -1.307740e+01  -1.629483e-21   1.177889e+06   1.074945e-38   0.000000e+00   0.000000e+00
     2088000   2.087999e-05   5.092211e+00   4.063123e+01   2.741491e+01   2.390918e+05   1.008926e+06   5.588624e+05   6.404891e+01  -1.517810e+01  -2.234457e-21   1.177889e+06   1.447892e-38   0.000000e+00   0.000000e+00
     2096000   2.095999e-05   5.111338e+00   4.071194e+01   2.745961e+01   2.390918e+05   1.008926e+06   5.588624e+05   3.501494e+01  -8.297725e+00  -2.311295e-20   1.177889e+06   4.326832e-39   0.000000e+00   0.000000e+00
     2104000   2.103999e-05   5.130466e+00   4.079266e+01   2.750432e+01   2.390918e+05   1.008926e+06   5.588624e+05   5.514326e+01  -1.306767e+01   6.351155e-21   1.177889e+06   1.073186e-38   0.000000e+00   0.000000e+00
     2112000   2.111999e-05   5.149593e+00   4.087337e+01   2.754903e+01   2.390918e+05   1.008926e+06   5.588624e+05   4.769148e+01  -1.130177e+01   2.494582e-22   1.177889e+06   8.027919e-39   0.000000e+00   0.000000e+00
     2120000   2.119999e-05   5.168720e+00   4.095408e+01   2.759374e+01   2.390918e+05   1.008926e+06   5.588624e+05   3.640458e+01  -8.627038e+00  -7.585467e-21   1.177889e+06   4.678614e-39   0.000000e+00   0.000000e+00
     2128000   2.127999e-05   5.187848e+00   4.103480e+01   2.763845e+01   2.390918e+05   1.008926e+06   5.588624e+05   4.648997e+01  -1.101704e+01  -1.616195e-20   1.177889e+06   7.628834e-39   0.000000e+00   0.000000e+00
     2136000   2.135999e-05   5.206975e+00   4.111551e+01   2.768316e+01   2.390918e+05   1.008926e+06   5.588624e+05   4.089687e+01  -9.691605e+00   1.458468e-20   1.177889e+06   5.904231e-39   0.000000e+00   0.000000e+00
     2144000   2.143999e-05   5.226103e+00   4.119623e+01   2.772787e+01   2.390918e+05   1.008926e+06   5.588624e+05   4.001825e+01  -9.483393e+00   6.755001e-21   1.177889e+06   5.652582e-39   0.000000e+00   0.000000e+00
     2152000   2.151999e-05   5.245230e+00   4.127694e+01   2.777258e+01   2.390918e+05   1.008926e+06   5.588624e+05   5.102077e+01  -1.209073e+01  -3.609044e-22   1.177889e+06   9.187384e-39   0.000000e+00   0.000000e+00
     2160000   2.159999e-05   5.264357e+00   4.135765e+01   2.781729e+01   2.390918e+05   1.008926e+06   5.588624e+05   3.296165e+01  -7.811142e+00  -5.065047e-21   1.177889e+06   3.835888e-39   0.000000e+00   0.000000e+00
     2168000   2.167999e-05   5.283485e+00   4.143837e+01   2.786200e+01   2.390918e+05   1.008926e+06   5.588624e+05   8.596138e+01  -2.037084e+01  -1.631578e-21   1.177889e+06   2.608023e-38   0.000000e+00   0.000000e+00
     2176000   2.175999e-05   5.302612e+00   4.151908e+01   2.790670e+01   2.390918e+05   1.008926e+06   5.588624e+05   1.474885e+01  -3.495134e+00  -1.469678e-21   1.177889e+06   7.669292e-40   0.000000e+00   0.000000e+00
     2184000   2.183999e-05   5.321739e+00   4.159980e+01   2.795141e+01   2.390918e+05   1.008926e+06   5.588624e+05   8.150779e+01  -1.931545e+01  -2.754224e-20   1.177889e+06   2.344443e-38   0.000000e+00   0.000000e+00
     2192000   2.191999e-05   5.340867e+00   4.168051e+01   2.799612e+01   2.390918e+05   1.008926e+06   5.588624e+05   4.785975e+01  -1.134164e+01   1.392063e-20   1.177889e+06   8.084671e-39   0.000000e+00   0.000000e+00
     2200000   2.199999e-05   5.359994e+00   4.176122e+01   2.804083e+01   2.390918e+05   1.008926e+06   5.588624e+05   6.472415e+01  -1.533811e+01   6.352408e-21   1.177889e+06   1.478627e-38   0.000000e+00   0.000000e+00
     2208000   2.207999e-05   5.379121e+00   4.184194e+01   2.808554e+01   2.390918e+05   1.008926e+06   5.588624e+05   6.633565e+01  -1.572000e+01   1.348685e-20   1.177889e+06   1.553057e-38   0.000000e+00   0.000000e+00
     2216000   2.215999e-05   5.398249e+00   4.192265e+01   2.813025e+01   2.390918e+05   1.008926e+06   5.588624e+05   8.374484e+01  -1.984558e+01  -3.722269e-22   1.177889e+06   2.475217e-38   0.000000e+00   0.000000e+00
     2224000   2.223999e-05   5.417376e+00   4.200337e+01   2.817496e+01   2.390918e+05   1.008926e+06   5.588624e+05   5.823103e+01  -1.379940e+01  -9.557141e-21   1.177889e+06   1.196896e-38   0.000000e+00   0.000000e+00
     2232000   2.231999e-05   5.436503e+00   4.208408e+01   2.821967e+01   2.390918e+05   1.008926e+06   5.588624e+05   4.178089e+01  -9.901097e+00  -1.547086e-21   1.177889e+06   6.162150e-39   0.000000e+00   0.000000e+00
     2240000   2.239999e-05   5.455631e+00   4.216479e+01   2.826438e+01   2.390918e+05   1.008926e+06   5.588624e+05   3.972807e+01  -9.414626e+00   1.174128e-21   1.177889e+06   5.570981e-39   0.000000e+00   0.000000e+00
     2248000   2.247999e-05   5.474758e+00   4.224551e+01   2.830909e+01   2.390918e+05   1.008926e+06   5.588624e+05   3.331005e+01  -7.893706e+00   4.935456e-22   1.177889e+06   3.916924e-39   0.000000e+00   0.000000e+00
     2256000   2.255999e-05   5.493885e+00   4.232622e+01   2.835379e+01   2.390918e+05   1.008926e+06   5.588624e+05   1.625616e+01  -3.852330e+00   5.434749e-21   1.177889e+06   9.333131e-40   0.000000e+00   0.000000e+00
     2264000   2.263999e-05   5.513013e+00   4.240694e+01   2.839850e+01   2.390918e+05   1.008926e+06   5.588624e+05   3.516641e+01  -8.333618e+00   4.283227e-21   1.177889e+06   4.365840e-39   0.000000e+00   0.000000e+00
     2272000   2.271999e-05   5.532140e+00   4.248765e+01   2.844321e+01   2.390918e+05   1.008926e+06   5.588624e+05   5.439586e+01  -1.289055e+01  -3.406758e-21   1.177889e+06   1.044307e-38   0.000000e+00   0.000000e+00
     2280000   2.279999e-05   5.551267e+00   4.256836e+01   2.848792e+01   2.390918e+05   1.008926e+06   5.588624e+05   3.740594e+01  -8.864335e+00  -1.191427e-20   1.177889e+06   4.939088e-39   0.000000e+00   0.000000e+00
     2288000   2.287999e-05   5.570395e+00   4.264908e+01   2.853263e+01   2.390918e+05   1.008926e+06   5.588624e+05   4.317755e+01  -1.023207e+01   4.382142e-21   1.177889e+06   6.579054e-39   0.000000e+00   0.000000e+00
     2296000   2.295999e-05   5.589522e+00   4.272979e+01   2.857734e+01   2.390918e+05   1.008926e+06   5.588624e+05   1.447992e+01  -3.431403e+00   3.707047e-21   1.177889e+06   7.409138e-40   0.000000e+00   0.000000e+00
     2304000   2.303999e-05   5.608649e+00   4.281051e+01   2.862205e+01   2.390918e+05   1.008926e+06   5.588624e+05   6.377255e+01  -1.511261e+01   2.050232e-20   1.177889e+06   1.435527e-38   0.000000e+00   0.000000e+00
     2312000   2.311999e-05   5.627777e+00   4.289122e+01   2.866676e+01   2.390918e+05   1.008926e+06   5.588624e+05   5.595358e+01  -1.325969e+01  -5.387479e-21   1.177889e+06   1.105099e-38   0.000000e+00   0.000000e+00
     2320000   2.319999e-05   5.646904e+00   4.297193e+01   2.871147e+01   2.390918e+05   1.008926e+06   5.588624e+05   3.407995e+01  -8.076153e+00  -2.031181e-21   1.177889e+06   4.100110e-39   0.000000e+00   0.000000e+00
     2328000   2.327999e-05   5.666032e+00   4.305265e+01   2.875618e+01   2.390918e+05   1.008926e+06   5.588624e+05   6.648809e+01  -1.575613e+01   2.217094e-20   1.177889e+06   1.560141e-38   0.000000e+00   0.000000e+00
     2336000   2.335999e-05   5.685159e+00   4.313336e+01   2.880088e+01   2.390918e+05   1.008926e+06   5.588624e+05   3.539103e+01  -8.386849e+00  -1.412200e-20   1.177889e+06   4.420058e-39   0.000000e+00   0.000000e+00
     2344000   2.343999e-05   5.704286e+00   4.321408e+01   2.884559e+01   2.390918e+05   1.008926e+06   5.588624e+05   3.060973e+01  -7.253793e+00   6.821335e-21   1.177889e+06   3.306292e-39   0.000000e+00   0.000000e+00
     2352000   2.351999e-05   5.723414e+00   4.329479e+01   2.889030e+01   2.390918e+05   1.008926e+06   5.588624e+05   6.115691e+01  -1.449276e+01  -3.749383e-21   1.177889e+06   1.319980e-38   0.000000e+00   0.000000e+00
     2360000   2.359999e-05   5.742541e+00   4.337551e+01   2.893501e+01   2.390918e+05   1.008926e+06   5.588624e+05   3.893319e+01  -9.226258e+00  -9.820944e-21   1.177889e+06   5.350680e-39   0.000000e+00   0.000000e+00
     2368000   2.367999e-05   5.761668e+00   4.345622e+01   2.897972e+01   2.390918e+05   1.008926e+06   5.588624e+05   7.159359e+01  -1.696601e+01   2.783626e-21   1.177889e+06   1.809054e-38   0.000000e+00   0.000000e+00
     2376000   2.375999e-05   5.780796e+00   4.353693e+01   2.902443e+01   2.390918e+05   1.008926e+06   5.588624e+05   2.594999e+01  -6.149543e+00  -2.648322e-21   1.177889e+06   2.377402e-39   0.000000e+00   0.000000e+00
     2384000   2.383999e-05   5.799923e+00   4.361765e+01   2.906914e+01   2.390918e+05   1.008926e+06   5.588624e+05   5.082708e+01  -1.204483e+01  -8.106962e-21   1.177889e+06   9.118783e-39   0.000000e+00   0.000000e+00
     2392000   2.391999e-05   5.819050e+00   4.369836e+01   2.911385e+01   2.390918e+05   1.008926e+06   5.588624e+05   4.231502e+01  -1.002767e+01   3.643781e-21   1.177889e+06   6.319290e-39   0.000000e+00   0.000000e+00
     2400000   2.399999e-05   5.838178e+00   4.377908e+01   2.915856e+01   2.390918e+05   1.008926e+06   5.588624e+05   3.705559e+01  -8.781310e+00  -2.378152e-21   1.177889e+06   4.846644e-39   0.000000e+00   0.000000e+00
     2408000   2.407999e-05   5.857305e+00   4.385979e+01   2.920327e+01   2.390918e+05   1.008926e+06   5.588624e+05   4.982619e+01  -1.180765e+01  -1.647473e-20   1.177889e+06   8.762647e-39   0.000000e+00   0.000000e+00
     2416000   2.415999e-05   5.876432e+00   4.394050e+01   2.924797e+01   2.390918e+05   1.008926e+06   5.588624e+05   6.496949e+01  -1.539625e+01  -2.639417e-20   1.177889e+06   1.489741e-38   0.000000e+00   0.000000e+00
     2424000   2.423999e-05   5.895560e+00   4.402122e+01   2.929268e+01   2.390918e+05   1.008926e+06   5.588624e+05   4.002026e+01  -9.483869e+00   5.233051e-21   1.177889e+06   5.653930e-39   0.000000e+00   0.000000e+00
     2432000   2.431999e-05   5.914687e+00   4.410193e+01   2.933739e+01   2.390918e+05   1.008926e+06   5.588624e+05   4.208909e+01  -9.974132e+00  -2.054632e-20   1.177889e+06   6.252700e-39   0.000000e+00   0.000000e+00
     2440000   2.439999e-05   5.933814e+00   4.418265e+01   2.938210e+01   2.390918e+05   1.008926e+06   5.588624e+05   4.280880e+01  -1.014469e+01   6.766274e-21   1.177889e+06   6.468369e-39   0.000000e+00   0.000000e+00
     2448000   2.447999e-05   5.952942e+00   4.426336e+01   2.942681e+01   2.390918e+05   1.008926e+06   5.588624e+05   5.032329e+01  -1.192545e+01   3.571001e-22   1.177889e+06   8.936996e-39   0.000000e+00   0.000000e+00
     2456000   2.455999e-05   5.972069e+00   4.434407e+01   2.947152e+01   2.390918e+05   1.008926e+06   5.588624e+05   3.459934e+01  -8.199238e+00   8.808071e-21   1.177889e+06   4.224839e-39   0.000000e+00   0.000000e+00
     2464000   2.463999e-05   5.991196e+00   4.442479e+01   2.951623e+01   2.390918e+05   1.008926e+06   5.588624e+05   3.485349e+01  -8.259464e+00   4.057170e-21   1.177889e+06   4.287729e-39   0.000000e+00   0.000000e+00
     2472000   2.471999e-05   6.010324e+00   4.450550e+01   2.956094e+01   2.390918e+05   1.008926e+06   5.588624e+05   4.893591e+01  -1.159667e+01  -4.279960e-21   1.177889e+06   8.452680e-39   0.000000e+00   0.000000e+00
     2480000   2.479999e-05   6.029451e+00   4.458622e+01   2.960565e+01   2.390918e+05   1.008926e+06   5.588624e+05   3.083532e+01  -7.307253e+00  -7.558204e-22   1.177889e+06   3.356561e-39   0.000000e+00   0.000000e+00
     2488000   2.487999e-05   6.048578e+00   4.466693e+01   2.965036e+01   2.390918e+05   1.008926e+06   5.588624e+05   5.404655e+01  -1.273551e+01  -1.304619e-01   1.177889e+06   1.030316e-38   0.000000e+00   0.000000e+00
     2496000   2.495999e-05   6.067706e+00   4.474764e+01   2.969506e+01   2.390918e+05   1.008926e+06   5.588624e+05   1.457632e+01  -3.454249e+00   3.120446e-22   1.177889e+06   7.501027e-40   0.000000e+00   0.000000e+00
     2504000   2.503999e-05   6.086833e+00   4.482836e+01   2.973977e+01   2.390918e+05   1.008926e+06   5.588624e+05   1.638067e+01  -6.052137e+00   3.918088e+00   1.177889e+06   1.071074e-39   0.000000e+00   0.000000e+00
     2512000   2.511999e-05   6.105961e+00   4.490907e+01   2.978448e+01   2.390918e+05   1.008926e+06   5.588624e+05   4.118369e+01  -8.222281e+00  -2.775309e+00   1.177889e+06   5.921085e-39   0.000000e+00   0.000000e+00
     2520000   2.519999e-05   6.125088e+00   4.498979e+01   2.982919e+01   2.390918e+05   1.008926e+06   5.588624e+05   2.108737e+01  -2.438109e+01   3.499411e+01   1.177889e+06   7.564341e-39   0.000000e+00   0.000000e+00
     2528000   2.527999e-05   6.144215e+00   4.507050e+01   2.987390e+01   2.390918e+05   1.008926e+06   5.588624e+05   3.231206e+01   3.310336e+00  -1.979992e+01   1.177889e+06   4.835214e-39   0.000000e+00   0.000000e+00
     2536000   2.535999e-05   6.163343e+00   4.515121e+01   2.991861e+01   2.390918e+05   1.008926e+06   5.588624e+05   2.809626e+01  -5.312598e+00  -2.429167e+00   1.177889e+06   2.751714e-39   0.000000e+00   0.000000e+00
     2544000   2.543999e-05   6.182470e+00   4.523193e+01   2.996332e+01   2.390918e+05   1.008926e+06   5.588624e+05   1.613917e+01  -1.492088e+00  -4.210945e+00   1.177889e+06   9.371275e-40   0.000000e+00   0.000000e+00
     2552000   2.551999e-05   6.201597e+00   4.531264e+01   3.000803e+01   2.390918e+05   1.008926e+06   5.588624e+05   4.080995e+01  -6.329806e+00  -6.031936e+00   1.177889e+06   5.821181e-39   0.000000e+00   0.000000e+00
     2560000   2.559999e-05   6.220725e+00   4.539336e+01   3.005274e+01   2.390918e+05   1.008926e+06   5.588624e+05   4.640271e+01  -9.153123e+00  -3.327635e+00   1.177889e+06   7.512716e-39   0.000000e+00   0.000000e+00
     2568000   2.567999e-05   6.239852e+00   4.547407e+01   3.009744e+01   2.390918e+05   1.008926e+06   5.588624e+05  -8.316180e+00  -1.759902e+01   3.532969e+01   1.177889e+06   5.435801e-39   0.000000e+00   0.000000e+00
     2576000   2.575999e-05   6.258979e+00   4.555478e+01   3.014215e+01   2.390918e+05   1.008926e+06   5.588624e+05   3.876414e+01  -1.292686e+01   6.753095e+00   1.177889e+06   5.731849e-39   0.000000e+00   0.000000e+00
     2584000   2.583999e-05   6.278107e+00   4.563550e+01   3.018686e+01   2.390918e+05   1.008926e+06   5.588624e+05   5.393653e+00   3.252726e+00  -8.179719e+00   1.177889e+06   3.562139e-40   0.000000e+00   0.000000e+00
     2592000   2.591999e-05   6.297234e+00   4.571621e+01   3.023157e+01   2.390918e+05   1.008926e+06   5.588624e+05   1.219918e+01  -2.890921e+00  -7.104888e-21   1.177889e+06   5.254203e-40   0.000000e+00   0.000000e+00
     2600000   2.599999e-05   6.316361e+00   4.579693e+01   3.027628e+01   2.390918e+05   1.008926e+06   5.588624e+05   2.718458e+01  -6.442113e+00  -2.260459e-21   1.177889e+06   2.608092e-39   0.000000e+00   0.000000e+00
     2608000   2.607999e-05   6.335489e+00   4.587764e+01   3.032099e+01   2.390918e+05   1.008926e+06   5.588624e+05   2.525876e+01  -5.985737e+00  -1.077598e-21   1.177889e+06   2.252341e-39   0.000000e+00   0.000000e+00
     2616000   2.615999e-05   6.354616e+00   4.595835e+01   3.036570e+01   2.390918e+05   1.008926e+06   5.588624e+05   4.418758e+01  -1.047143e+01   1.970827e-21   1.177889e+06   6.891828e-39   0.000000e+00   0.000000e+00
     2624000   2.623999e-05   6.373743e+00   4.603907e+01   3.041041e+01   2.390918e+05   1.008926e+06   5.588624e+05   4.854094e+01  -1.150307e+01  -4.036153e-21   1.177889e+06   8.315419e-39   0.000000e+00   0.000000e+00
     2632000   2.631999e-05   6.392871e+00   4.611978e+01   3.045512e+01   2.390918e+05   1.008926e+06   5.588624e+05   3.276371e+01  -7.764235e+00  -5.852313e-21   1.177889e+06   3.790011e-39   0.000000e+00   0.000000e+00
     2640000   2.639999e-05   6.411998e+00   4.620050e+01   3.049983e+01   2.390918e+05   1.008926e+06   5.588624e+05   1.568927e+01  -3.717991e+00  -2.901872e-21   1.177889e+06   8.693141e-40   0.000000e+00   0.000000e+00
     2648000   2.647999e-05   6.431125e+00   4.628121e+01   3.054453e+01   2.390918e+05   1.008926e+06   5.588624e+05   5.812348e+01  -1.377391e+01   6.028167e-21   1.177889e+06   1.192233e-38   0.000000e+00   0.000000e+00
     2656000   2.655999e-05   6.450253e+00   4.636192e+01   3.058924e+01   2.390918e+05   1.008926e+06   5.588624e+05   1.323517e+01  -3.136426e+00  -2.823531e-21   1.177889e+06   6.184780e-40   0.000000e+00   0.000000e+00
     2664000   2.663999e-05   6.469380e+00   4.644264e+01   3.063395e+01   2.390918e+05   1.008926e+06   5.588624e+05   2.874740e+01  -6.812465e+00  -3.007913e-22   1.177889e+06   2.917379e-39   0.000000e+00   0.000000e+00
     2672000   2.671999e-05   6.488507e+00   4.652335e+01   3.067866e+01   2.390918e+05   1.008926e+06   5.588624e+05   3.973545e+01  -9.416376e+00   1.145188e-20   1.177889e+06   5.572943e-39   0.000000e+00   0.000000e+00
     2680000   2.679999e-05   6.507635e+00   4.660407e+01   3.072337e+01   2.390918e+05   1.008926e+06   5.588624e+05   1.907245e+01  -4.519726e+00   3.086925e-21   1.177889e+06   1.284077e-39   0.000000e+00   0.000000e+00
     2688000   2.687999e-05   6.526762e+00   4.668478e+01   3.076808e+01   2.390918e+05   1.008926e+06   5.588624e+05   1.070586e+01  -2.537040e+00  -1.487080e-21   1.177889e+06   4.046307e-40   0.000000e+00   0.000000e+00
     2696000   2.695999e-05   6.545890e+00   4.676550e+01   3.081279e+01   2.390918e+05   1.008926e+06   5.588624e+05   2.883038e+01  -6.832128e+00  -6.385129e-21   1.177889e+06   2.933769e-39   0.000000e+00   0.000000e+00
     2704000   2.703999e-05   6.565017e+00   4.684621e+01   3.085750e+01   2.390918e+05   1.008926e+06   5.588624e+05   4.161215e+01  -9.861109e+00  -1.358590e-21   1.177889e+06   6.111020e-39   0.000000e+00   0.000000e+00
     2712000   2.711999e-05   6.584144e+00   4.692692e+01   3.090221e+01   2.390918e+05   1.008926e+06   5.588624e+05   2.484852e+01  -5.888520e+00  -6.662541e-21   1.177889e+06   2.179399e-39   0.000000e+00   0.000000e+00
     2720000   2.719999e-05   6.603272e+00   4.700764e+01   3.094692e+01   2.390918e+05   1.008926e+06   5.588624e+05   2.930625e+01  -6.944898e+00  -6.918214e-22   1.177889e+06   3.031989e-39   0.000000e+00   0.000000e+00
     2728000   2.727999e-05   6.622399e+00   4.708835e+01   3.099162e+01   2.390918e+05   1.008926e+06   5.588624e+05   8.613194e+00  -2.041126e+00   5.658738e-22   1.177889e+06   2.620111e-40   0.000000e+00   0.000000e+00
     2736000   2.735999e-05   6.641526e+00   4.716907e+01   3.103633e+01   2.390918e+05   1.008926e+06   5.588624e+05   2.431217e+00  -5.761417e-01  -3.841957e-23   1.177889e+06   2.099194e-41   0.000000e+00   0.000000e+00
     2744000   2.743999e-05   6.660654e+00   4.724978e+01   3.108104e+01   2.390918e+05   1.008926e+06   5.588624e+05   4.831293e+01  -1.144904e+01  -1.360022e-20   1.177889e+06   8.238491e-39   0.000000e+00   0.000000e+00
     2752000   2.751999e-05   6.679781e+00   4.733049e+01   3.112575e+01   2.390918e+05   1.008926e+06   5.588624e+05   2.377317e+01  -5.633688e+00  -8.724392e-21   1.177889e+06   1.994348e-39   0.000000e+00   0.000000e+00
     2760000   2.759999e-05   6.698908e+00   4.741121e+01   3.117046e+01   2.390918e+05   1.008926e+06   5.588624e+05   2.782665e+01  -6.594268e+00  -5.738239e-21   1.177889e+06   2.734149e-39   0.000000e+00   0.000000e+00
     2768000   2.767999e-05   6.718036e+00   4.749192e+01   3.121517e+01   2.390918e+05   1.008926e+06   5.588624e+05   2.310763e+01  -5.475969e+00  -8.968286e-21   1.177889e+06   1.885404e-39   0.000000e+00   0.000000e+00
     2776000   2.775999e-05   6.737163e+00   4.757264e+01   3.125988e+01   2.390918e+05   1.008926e+06   5.588624e+05   3.402908e+01  -8.064099e+00   7.048160e-21   1.177889e+06   4.086947e-39   0.000000e+00   0.000000e+00
     2784000   2.783999e-05   6.756290e+00   4.765335e+01   3.130459e+01   2.390918e+05   1.008926e+06   5.588624e+05   3.666559e+01  -8.688890e+00   4.612278e-21   1.177889e+06   4.744360e-39   0.000000e+00   0.000000e+00
     2792000   2.791999e-05   6.775418e+00   4.773406e+01   3.134930e+01   2.390918e+05   1.008926e+06   5.588624e+05   1.905515e+01  -4.515625e+00   2.265747e-21   1.177889e+06   1.281956e-39   0.000000e+00   0.000000e+00
     2800000   2.799999e-05   6.794545e+00   4.781478e+01   3.139401e+01   2.390918e+05   1.008926e+06   5.588624e+05  -5.439982e+00   1.289149e+00  -2.492463e-23   1.177889e+06   1.043134e-40   0.000000e+00   0.000000e+00
     2808000   2.807999e-05   6.813672e+00   4.789549e+01   3.143871e+01   2.390918e+05   1.008926e+06   5.588624e+05   3.180709e+01  -7.537538e+00   1.331941e-20   1.177889e+06   3.570165e-39   0.000000e+00   0.000000e+00
     2816000   2.815999e-05   6.832800e+00   4.797621e+01   3.148342e+01   2.390918e+05   1.008926e+06   5.588624e+05   4.393549e+01  -1.041169e+01  -2.939131e-20   1.177889e+06   6.812772e-39   0.000000e+00   0.000000e+00
     2824000   2.823999e-05   6.851927e+00   4.805692e+01   3.152813e+01   2.390918e+05   1.008926e+06   5.588624e+05   3.212885e+01  -7.613789e+00  -1.307933e-20   1.177889e+06   3.642577e-39   0.000000e+00   0.000000e+00
     2832000   2.831999e-05   6.871054e+00   4.813763e+01   3.157284e+01   2.390918e+05   1.008926e+06   5.588624e+05   2.187966e+01  -5.184969e+00   9.832352e-21   1.177889e+06   1.689808e-39   0.000000e+00   0.000000e+00
     2840000   2.839999e-05   6.890182e+00   4.821835e+01   3.161755e+01   2.390918e+05   1.008926e+06   5.588624e+05   4.053207e+01  -9.605157e+00   1.712312e-20   1.177889e+06   5.798469e-39   0.000000e+00   0.000000e+00
     2848000   2.847999e-05   6.909309e+00   4.829906e+01   3.166226e+01   2.390918e+05   1.008926e+06   5.588624e+05   2.456362e+01  -5.821006e+00  -5.299850e-21   1.177889e+06   2.130035e-39   0.000000e+00   0.000000e+00
     2856000   2.855999e-05   6.928436e+00   4.837978e+01   3.170697e+01   2.390918e+05   1.008926e+06   5.588624e+05   3.673378e+01  -8.705049e+00   9.380425e-21   1.177889e+06   4.762406e-39   0.000000e+00   0.000000e+00
     2864000   2.863999e-05   6.947564e+00   4.846049e+01   3.175168e+01   2.390918e+05   1.008926e+06   5.588624e+05   1.022780e+01  -2.423751e+00   2.326679e-21   1.177889e+06   3.694351e-40   0.000000e+00   0.000000e+00
     2872000   2.871999e-05   6.966691e+00   4.854120e+01   3.179639e+01   2.390918e+05   1.008926e+06   5.588624e+05   3.191586e+01  -7.563316e+00  -7.460221e-21   1.177889e+06   3.595325e-39   0.000000e+00   0.000000e+00
     2880000   2.879999e-05   6.985819e+00   4.862192e+01   3.184110e+01   2.390918e+05   1.008926e+06   5.588624e+05   2.143543e+01  -5.079698e+00   6.192058e-21   1.177889e+06   1.622105e-39   0.000000e+00   0.000000e+00
     2888000   2.887999e-05   7.004946e+00   4.870263e+01   3.188580e+01   2.390918e+05   1.008926e+06   5.588624e+05   1.986895e+01  -4.708477e+00  -2.816032e-21   1.177889e+06   1.393521e-39   0.000000e+00   0.000000e+00
     2896000   2.895999e-05   7.024073e+00   4.878335e+01   3.193051e+01   2.390918e+05   1.008926e+06   5.588624e+05   3.964186e+00  -9.394196e-01   9.857297e-22   1.177889e+06   5.553177e-41   0.000000e+00   0.000000e+00
     2904000   2.903999e-05   7.043201e+00   4.886406e+01   3.197522e+01   2.390918e+05   1.008926e+06   5.588624e+05   3.612848e+01  -8.561607e+00   4.839673e-21   1.177889e+06   4.606066e-39   0.000000e+00   0.000000e+00
     2912000   2.911999e-05   7.062328e+00   4.894477e+01   3.201993e+01   2.390918e+05   1.008926e+06   5.588624e+05   2.555707e+01  -6.056430e+00   4.117510e-21   1.177889e+06   2.305237e-39   0.000000e+00   0.000000e+00
     2920000   2.919999e-05   7.081455e+00   4.902549e+01   3.206464e+01   2.390918e+05   1.008926e+06   5.588624e+05   3.020888e+01  -7.158800e+00  -1.265166e-20   1.177889e+06   3.222104e-39   0.000000e+00   0.000000e+00
     2928000   2.927999e-05   7.100583e+00   4.910620e+01   3.210935e+01   2.390918e+05   1.008926e+06   5.588624e+05   2.673205e+01  -6.334873e+00  -4.069635e-21   1.177889e+06   2.522577e-39   0.000000e+00   0.000000e+00
     2936000   2.935999e-05   7.119710e+00   4.918692e+01   3.215406e+01   2.390918e+05   1.008926e+06   5.588624e+05   1.453842e+01  -3.445265e+00   2.979870e-21   1.177889e+06   7.462007e-40   0.000000e+00   0.000000e+00
     2944000   2.943999e-05   7.138837e+00   4.926763e+01   3.219877e+01   2.390918e+05   1.008926e+06   5.588624e+05   2.625644e+01  -6.222165e+00  -1.519939e-21   1.177889e+06   2.433249e-39   0.000000e+00   0.000000e+00
     2952000   2.951999e-05   7.157965e+00   4.934834e+01   3.224348e+01   2.390918e+05   1.008926e+06   5.588624e+05   3.631759e+01  -8.606422e+00  -3.953187e-21   1.177889e+06   4.654625e-39   0.000000e+00   0.000000e+00
     2960000   2.959999e-05   7.177092e+00   4.942906e+01   3.228819e+01   2.390918e+05   1.008926e+06   5.588624e+05   8.355221e+00  -1.979992e+00  -8.922084e-22   1.177889e+06   2.465326e-40   0.000000e+00   0.000000e+00
     2968000   2.967999e-05   7.196219e+00   4.950977e+01   3.233289e+01   2.390918e+05   1.008926e+06   5.588624e+05   1.515538e+01  -3.591472e+00  -3.217508e-21   1.177889e+06   8.112870e-40   0.000000e+00   0.000000e+00
     2976000   2.975999e-05   7.215347e+00   4.959049e+01   3.237760e+01   2.390912e+05   1.008926e+06   5.588624e+05  -1.487439e+07   3.524873e+06   2.194800e-16   1.177889e+06   7.807493e-28   0.000000e+00   0.000000e+00
     2984000   2.983999e-05   7.234474e+00   4.967120e+01   3.242231e+01   2.390884e+05   1.008926e+06   5.588624e+05  -9.153619e+07   2.169161e+07  -2.210496e-14   1.177889e+06   2.956599e-26   0.000000e+00   0.000000e+00
     2992000   2.991999e-05   7.253601e+00   4.975192e+01   3.246702e+01   2.390822e+05   1.008928e+06   5.588624e+05  -5.409454e+07   1.281860e+07   1.342639e-14   1.177889e+06   1.032913e-26   0.000000e+00   0.000000e+00
     3000000   2.999999e-05   7.272727e+00   4.983263e+01   3.251173e+01   2.390761e+05   1.008929e+06   5.588624e+05  -1.042430e+08   2.470143e+07   1.995016e-14   1.177889e+06   3.836386e-26   0.000000e+00   0.000000e+00
     3008000   3.007999e-05   7.291853e+00   4.991334e+01   3.255644e+01   2.390718e+05   1.008930e+06   5.588624e+05   0.000000e+00   0.000000e+00   0.000000e+00   1.177889e+06   0.000000e+00   0.000000e+00   0.000000e+00
     3016000   3.015999e-05   7.310979e+00   4.999406e+01   3.260115e+01   2.390718e+05   1.008930e+06   5.588624e+05   0.000000e+00   0.000000e+00   0.000000e+00   1.177889e+06   0.000000e+00   0.000000e+00   0.000000e+00
