     timestep     time              x             y              z              vx             vy             vz             ax             ay             az         v_magnitude      ELoss        Electronic      Nuclear
           0   0.000000e+00   1.000000e-01   1.034058e+01   1.775390e+01   6.383441e+05  -5.730894e+04   5.869675e+05   0.000000e+00   0.000000e+00   0.000000e+00   8.690790e+05   0.000000e+00   0.000000e+00   0.000000e+00
        8000   7.999000e-08   1.510675e-01   1.033599e+01   1.780086e+01   6.383441e+05  -5.730894e+04   5.869675e+05   0.000000e+00   0.000000e+00   0.000000e+00   8.690790e+05   0.000000e+00   0.000000e+00   0.000000e+00
       16000   1.599900e-07   2.021351e-01   1.033141e+01   1.784782e+01   6.383441e+05  -5.730894e+04   5.869675e+05   0.000000e+00   0.000000e+00   0.000000e+00   8.690790e+05   0.000000e+00   0.000000e+00   0.000000e+00
       24000   2.399900e-07   2.532026e-01   1.032682e+01   1.789477e+01   6.383441e+05  -5.730894e+04   5.869675e+05   0.000000e+00   0.000000e+00   0.000000e+00   8.690790e+05   0.000000e+00   0.000000e+00   0.000000e+00
       32000   3.199900e-07   3.042701e-01   1.032224e+01   1.794173e+01   6.383441e+05  -5.730894e+04   5.869675e+05   0.000000e+00   0.000000e+00   0.000000e+00   8.690790e+05   0.000000e+00   0.000000e+00   0.000000e+00
       40000   3.999900e-07   3.553376e-01   1.031765e+01   1.798869e+01   6.383441e+05  -5.730894e+04   5.869675e+05   0.000000e+00   0.000000e+00   0.000000e+00   8.690790e+05   0.000000e+00   0.000000e+00   0.000000e+00
       48000   4.799900e-07   4.064052e-01   1.031307e+01   1.803565e+01   6.383441e+05  -5.730894e+04   5.869675e+05   0.000000e+00   0.000000e+00   0.000000e+00   8.690790e+05   0.000000e+00   0.000000e+00   0.000000e+00
       56000   5.599900e-07   4.574727e-01   1.030848e+01   1.808260e+01   6.383441e+05  -5.730894e+04   5.869675e+05   0.000000e+00   0.000000e+00   0.000000e+00   8.690790e+05   0.000000e+00   0.000000e+00   0.000000e+00
       64000   6.399900e-07   5.085402e-01   1.030390e+01   1.812956e+01   6.383441e+05  -5.730894e+04   5.869675e+05   0.000000e+00   0.000000e+00   0.000000e+00   8.690790e+05   0.000000e+00   0.000000e+00   0.000000e+00
       72000   7.199900e-07   5.596077e-01   1.029932e+01   1.817652e+01   6.383441e+05  -5.730894e+04   5.869675e+05   0.000000e+00   0.000000e+00   0.000000e+00   8.690790e+05   0.000000e+00   0.000000e+00   0.000000e+00
       80000   7.999900e-07   6.106753e-01   1.029473e+01   1.822348e+01   6.383441e+05  -5.730894e+04   5.869675e+05   0.000000e+00   0.000000e+00   0.000000e+00   8.690790e+05   0.000000e+00   0.000000e+00   0.000000e+00
       88000   8.799900e-07   6.617428e-01   1.029015e+01   1.827043e+01   6.383441e+05  -5.730894e+04   5.869675e+05   0.000000e+00   0.000000e+00   0.000000e+00   8.690790e+05   0.000000e+00   0.000000e+00   0.000000e+00
       96000   9.599900e-07   7.128103e-01   1.028556e+01   1.831739e+01   6.383441e+05  -5.730894e+04   5.869675e+05   0.000000e+00   0.000000e+00   0.000000e+00   8.690790e+05   0.000000e+00   0.000000e+00   0.000000e+00
      104000   1.039990e-06   7.638778e-01   1.028098e+01   1.836435e+01   6.383441e+05  -5.730894e+04   5.869675e+05   0.000000e+00   0.000000e+00   0.000000e+00   8.690790e+05   0.000000e+00   0.000000e+00   0.000000e+00
      112000   1.119990e-06   8.149454e-01   1.027639e+01   1.841131e+01   6.383441e+05  -5.730894e+04   5.869675e+05   0.000000e+00   0.000000e+00   0.000000e+00   8.690790e+05   0.000000e+00   0.000000e+00   0.000000e+00
      120000   1.199990e-06   8.660129e-01   1.027181e+01   1.845826e+01   6.383441e+05  -5.730894e+04   5.869675e+05   0.000000e+00   0.000000e+00   0.000000e+00   8.690790e+05   0.000000e+00   0.000000e+00   0.000000e+00
      128000   1.279990e-06   9.170804e-01   1.026722e+01   1.850522e+01   6.383441e+05  -5.730894e+04   5.869675e+05   0.000000e+00   0.000000e+00   0.000000e+00   8.690790e+05   0.000000e+00   0.000000e+00   0.000000e+00
      136000   1.359990e-06   9.681480e-01   1.026264e+01   1.855218e+01   6.383441e+05  -5.730894e+04   5.869675e+05   0.000000e+00   0.000000e+00   0.000000e+00   8.690790e+05   0.000000e+00   0.000000e+00   0.000000e+00
      144000   1.439990e-06   1.019215e+00   1.025805e+01   1.859914e+01   6.383441e+05  -5.730894e+04   5.869675e+05   0.000000e+00   0.000000e+00   0.000000e+00   8.690790e+05   0.000000e+00   0.000000e+00   0.000000e+00
      152000   1.519990e-06   1.070283e+00   1.025347e+01   1.864609e+01   6.383441e+05  -5.730894e+04   5.869675e+05   0.000000e+00   0.000000e+00   0.000000e+00   8.690790e+05   0.000000e+00   0.000000e+00   0.000000e+00
      160000   1.599990e-06   1.121351e+00   1.024888e+01   1.869305e+01   6.383441e+05  -5.730894e+04   5.869675e+05   0.000000e+00   0.000000e+00   0.000000e+00   8.690790e+05   0.000000e+00   0.000000e+00   0.000000e+00
      168000   1.679990e-06   1.172418e+00   1.024430e+01   1.874001e+01   6.383441e+05  -5.730894e+04   5.869675e+05   0.000000e+00   0.000000e+00   0.000000e+00   8.690790e+05   0.000000e+00   0.000000e+00   0.000000e+00
      176000   1.759990e-06   1.223486e+00   1.023971e+01   1.878696e+01   6.383441e+05  -5.730894e+04   5.869675e+05   0.000000e+00   0.000000e+00   0.000000e+00   8.690790e+05   0.000000e+00   0.000000e+00   0.000000e+00
      184000   1.839990e-06   1.274553e+00   1.023513e+01   1.883392e+01   6.383441e+05  -5.730894e+04   5.869675e+05   0.000000e+00   0.000000e+00   0.000000e+00   8.690790e+05   0.000000e+00   0.000000e+00   0.000000e+00
      192000   1.919990e-06   1.325621e+00   1.023054e+01   1.888088e+01   6.383441e+05  -5.730894e+04   5.869675e+05   0.000000e+00   0.000000e+00   0.000000e+00   8.690790e+05   0.000000e+00   0.000000e+00   0.000000e+00
      200000   1.999990e-06   1.376688e+00   1.022596e+01   1.892784e+01   6.383441e+05  -5.730894e+04   5.869675e+05   0.000000e+00   0.000000e+00   0.000000e+00   8.690790e+05   0.000000e+00   0.000000e+00   0.000000e+00
      208000   2.079990e-06   1.427756e+00   1.022138e+01   1.897479e+01   6.383441e+05  -5.730894e+04   5.869675e+05   0.000000e+00   0.000000e+00   0.000000e+00   8.690790e+05   0.000000e+00   0.000000e+00   0.000000e+00
      216000   2.159990e-06   1.478823e+00   1.021679e+01   1.902175e+01   6.383441e+05  -5.730894e+04   5.869675e+05   0.000000e+00   0.000000e+00   0.000000e+00   8.690790e+05   0.000000e+00   0.000000e+00   0.000000e+00
      224000   2.239990e-06   1.529891e+00   1.021221e+01   1.906871e+01   6.383441e+05  -5.730894e+04   5.869675e+05   0.000000e+00   0.000000e+00   0.000000e+00   8.690790e+05   0.000000e+00   0.000000e+00   0.000000e+00
      232000   2.319990e-06   1.580958e+00   1.020762e+01   1.911567e+01   6.383441e+05  -5.730894e+04   5.869675e+05   0.000000e+00   0.000000e+00   0.000000e+00   8.690790e+05   0.000000e+00   0.000000e+00   0.000000e+00
      240000   2.399990e-06   1.632026e+00   1.020304e+01   1.916262e+01   6.383441e+05  -5.730894e+04   5.869675e+05   0.000000e+00   0.000000e+00   0.000000e+00   8.690790e+05   0.000000e+00   0.000000e+00   0.000000e+00
      248000   2.479990e-06   1.683093e+00   1.019845e+01   1.920958e+01   6.383441e+05  -5.730894e+04   5.869675e+05   0.000000e+00   0.000000e+00   0.000000e+00   8.690790e+05   0.000000e+00   0.000000e+00   0.000000e+00
      256000   2.559990e-06   1.734161e+00   1.019387e+01   1.925654e+01   6.383441e+05  -5.730894e+04   5.869675e+05   0.000000e+00   0.000000e+00   0.000000e+00   8.690790e+05   0.000000e+00   0.000000e+00   0.000000e+00
      264000   2.639990e-06   1.785228e+00   1.018928e+01   1.930350e+01   6.383441e+05  -5.730894e+04   5.869675e+05   0.000000e+00   0.000000e+00   0.000000e+00   8.690790e+05   0.000000e+00   0.000000e+00   0.000000e+00
      272000   2.719990e-06   1.836296e+00   1.018470e+01   1.935045e+01   6.383441e+05  -5.730894e+04   5.869675e+05   0.000000e+00   0.000000e+00   0.000000e+00   8.690790e+05   0.000000e+00   0.000000e+00   0.000000e+00
      280000   2.799990e-06   1.887363e+00   1.018011e+01   1.939741e+01   6.383441e+05  -5.730894e+04   5.869675e+05   0.000000e+00   0.000000e+00   0.000000e+00   8.690790e+05   0.000000e+00   0.000000e+00   0.000000e+00
      288000   2.879990e-06   1.938431e+00   1.017553e+01   1.944437e+01   6.383441e+05  -5.730894e+04   5.869675e+05   0.000000e+00   0.000000e+00   0.000000e+00   8.690790e+05   0.000000e+00   0.000000e+00   0.000000e+00
      296000   2.959990e-06   1.989498e+00   1.017094e+01   1.949133e+01   6.383441e+05  -5.730894e+04   5.869675e+05   0.000000e+00   0.000000e+00   0.000000e+00   8.690790e+05   0.000000e+00   0.000000e+00   0.000000e+00
      304000   3.039990e-06   2.040566e+00   1.016636e+01   1.953828e+01   6.383440e+05  -5.730880e+04   5.869676e+05  -2.735314e+06   4.232343e+06   3.387958e+06   8.690790e+05   6.706247e-29   0.000000e+00   0.000000e+00
      312000   3.119990e-06   2.091634e+00   1.016177e+01   1.958524e+01   6.383436e+05  -5.730825e+04   5.869680e+05  -6.090926e+06   9.424473e+06   7.544200e+06   8.690790e+05   3.325865e-28   0.000000e+00   0.000000e+00
      320000   3.199990e-06   2.142701e+00   1.015719e+01   1.963220e+01   6.383428e+05  -5.730693e+04   5.869691e+05  -2.343651e+07   3.612699e+07   2.901491e+07   8.690790e+05   4.903962e-27   0.000000e+00   0.000000e+00
      328000   3.279990e-06   2.193768e+00   1.015261e+01   1.967916e+01   6.383398e+05  -5.730237e+04   5.869727e+05  -5.050163e+07   7.779349e+07   6.251560e+07   8.690790e+05   2.275724e-26   0.000000e+00   0.000000e+00
      336000   3.359990e-06   2.244835e+00   1.014802e+01   1.972611e+01   6.383367e+05  -5.729753e+04   5.869766e+05  -5.841179e+07   8.969003e+07   7.227784e+07   8.690790e+05   3.034256e-26   0.000000e+00   0.000000e+00
      344000   3.439990e-06   2.295902e+00   1.014344e+01   1.977307e+01   6.383308e+05  -5.728846e+04   5.869839e+05  -8.934352e+07   1.369321e+08   1.105232e+08   8.690790e+05   7.085216e-26   0.000000e+00   0.000000e+00
      352000   3.519990e-06   2.346968e+00   1.013885e+01   1.982003e+01   6.383264e+05  -5.728173e+04   5.869894e+05  -4.998277e+07   7.637420e+07   6.180719e+07   8.690790e+05   2.211014e-26   0.000000e+00   0.000000e+00
      360000   3.599990e-06   2.398034e+00   1.013427e+01   1.986699e+01   6.383234e+05  -5.727729e+04   5.869930e+05  -2.279844e+07   3.462984e+07   2.817118e+07   8.690790e+05   4.572571e-27   0.000000e+00   0.000000e+00
      368000   3.679990e-06   2.449100e+00   1.012969e+01   1.991395e+01   6.383202e+05  -5.727234e+04   5.869970e+05  -1.537439e+07   2.336896e+07   1.899870e+07   8.690790e+05   2.081417e-27   0.000000e+00   0.000000e+00
      376000   3.759990e-06   2.500166e+00   1.012511e+01   1.996091e+01   6.383203e+05  -5.727257e+04   5.869968e+05  -1.345893e+07   2.048560e+07   1.663445e+07   8.690790e+05   1.596259e-27   0.000000e+00   0.000000e+00
      384000   3.839990e-06   2.551231e+00   1.012053e+01   2.000787e+01   6.383193e+05  -5.727093e+04   5.869982e+05  -6.016324e+00  -8.424624e+00   5.720375e+00   8.690790e+05   2.545277e-40   0.000000e+00   0.000000e+00
      392000   3.919990e-06   2.602297e+00   1.011595e+01   2.005483e+01   6.383193e+05  -5.727093e+04   5.869982e+05  -4.976208e+00  -1.507829e+01   3.940152e+00   8.690790e+05   4.867720e-40   0.000000e+00   0.000000e+00
      400000   3.999990e-06   2.653362e+00   1.011136e+01   2.010179e+01   6.383193e+05  -5.727093e+04   5.869982e+05  -2.793803e+00  -3.903455e+01  -7.703724e-01   8.690790e+05   2.786970e-39   0.000000e+00   0.000000e+00
      408000   4.079990e-06   2.704428e+00   1.010678e+01   2.014875e+01   6.383193e+05  -5.727093e+04   5.869982e+05  -3.111370e+00  -3.874200e+01  -3.964968e-01   8.690790e+05   2.749068e-39   0.000000e+00   0.000000e+00
      416000   4.159990e-06   2.755493e+00   1.010220e+01   2.019571e+01   6.383193e+05  -5.727093e+04   5.869982e+05  -1.425149e+00  -1.046693e+01   5.285359e-01   8.690790e+05   2.036555e-40   0.000000e+00   0.000000e+00
      424000   4.239990e-06   2.806559e+00   1.009762e+01   2.024267e+01   6.383193e+05  -5.727093e+04   5.869982e+05  -7.560816e-01  -8.426988e+00   3.016420e-22   8.690790e+05   1.302436e-40   0.000000e+00   0.000000e+00
      432000   4.319990e-06   2.857625e+00   1.009304e+01   2.028963e+01   6.383193e+05  -5.727093e+04   5.869982e+05  -5.863091e-01  -6.534770e+00  -1.971572e-22   8.690790e+05   7.832119e-41   0.000000e+00   0.000000e+00
      440000   4.399990e-06   2.908690e+00   1.008846e+01   2.033659e+01   6.383193e+05  -5.727093e+04   5.869982e+05  -1.903920e+00  -2.122035e+01   2.783544e-22   8.690790e+05   8.258647e-40   0.000000e+00   0.000000e+00
      448000   4.479990e-06   2.959756e+00   1.008387e+01   2.038355e+01   6.383193e+05  -5.727093e+04   5.869982e+05  -1.607989e+00  -1.792202e+01  -1.395352e-21   8.690790e+05   5.890889e-40   0.000000e+00   0.000000e+00
      456000   4.559990e-06   3.010821e+00   1.007929e+01   2.043051e+01   6.383193e+05  -5.727093e+04   5.869982e+05  -1.166960e+00  -1.300647e+01   8.319745e-22   8.690790e+05   3.102864e-40   0.000000e+00   0.000000e+00
      464000   4.639990e-06   3.061887e+00   1.007471e+01   2.047747e+01   6.383193e+05  -5.727093e+04   5.869982e+05  -5.601565e-01  -6.243285e+00   2.236037e-22   8.690790e+05   7.150411e-41   0.000000e+00   0.000000e+00
      472000   4.719990e-06   3.112952e+00   1.007013e+01   2.052443e+01   6.383193e+05  -5.727093e+04   5.869982e+05  -2.317638e+00  -2.583148e+01  -1.276908e-21   8.690790e+05   1.223717e-39   0.000000e+00   0.000000e+00
      480000   4.799990e-06   3.164018e+00   1.006555e+01   2.057139e+01   6.383193e+05  -5.727093e+04   5.869982e+05  -2.421156e+00  -2.698525e+01   2.512875e-21   8.690790e+05   1.335474e-39   0.000000e+00   0.000000e+00
      488000   4.879990e-06   3.215083e+00   1.006097e+01   2.061835e+01   6.383193e+05  -5.727093e+04   5.869982e+05  -2.419450e+00  -2.696624e+01   9.096096e-22   8.690790e+05   1.333754e-39   0.000000e+00   0.000000e+00
      496000   4.959990e-06   3.266149e+00   1.005638e+01   2.066531e+01   6.383193e+05  -5.727093e+04   5.869982e+05  -1.358209e+00  -1.513806e+01  -7.146083e-22   8.690790e+05   4.203514e-40   0.000000e+00   0.000000e+00
      504000   5.039990e-06   3.317214e+00   1.005180e+01   2.071227e+01   6.383193e+05  -5.727093e+04   5.869982e+05  -1.961158e+00  -2.185829e+01   1.186102e-21   8.690790e+05   8.760557e-40   0.000000e+00   0.000000e+00
      512000   5.119990e-06   3.368280e+00   1.004722e+01   2.075923e+01   6.383193e+05  -5.727093e+04   5.869982e+05  -3.548940e+00  -3.955509e+01  -1.796930e-22   8.690790e+05   2.869085e-39   0.000000e+00   0.000000e+00
      520000   5.199990e-06   3.419345e+00   1.004264e+01   2.080619e+01   6.383193e+05  -5.727093e+04   5.869982e+05  -3.146343e+00  -3.506790e+01   1.419682e-21   8.690790e+05   2.255126e-39   0.000000e+00   0.000000e+00
      528000   5.279990e-06   3.470411e+00   1.003806e+01   2.085315e+01   6.383193e+05  -5.727093e+04   5.869982e+05  -4.189228e+00  -4.669149e+01   3.033761e-21   8.690790e+05   3.997933e-39   0.000000e+00   0.000000e+00
      536000   5.359990e-06   3.521477e+00   1.003348e+01   2.090011e+01   6.383193e+05  -5.727093e+04   5.869982e+05  -1.004355e+00  -1.119414e+01   6.929942e-23   8.690790e+05   2.298512e-40   0.000000e+00   0.000000e+00
      544000   5.439990e-06   3.572542e+00   1.002889e+01   2.094707e+01   6.383193e+05  -5.727093e+04   5.869982e+05  -2.830510e-01  -3.154775e+00   1.561226e-22   8.690790e+05   1.826420e-41   0.000000e+00   0.000000e+00
      552000   5.519990e-06   3.623608e+00   1.002431e+01   2.099403e+01   6.383193e+05  -5.727093e+04   5.869982e+05  -2.704090e+00  -3.013873e+01  -5.785114e-22   8.690790e+05   1.665572e-39   0.000000e+00   0.000000e+00
      560000   5.599990e-06   3.674673e+00   1.001973e+01   2.104099e+01   6.383193e+05  -5.727093e+04   5.869982e+05  -9.062027e-01  -1.010018e+01   1.183309e-21   8.690790e+05   1.871392e-40   0.000000e+00   0.000000e+00
      568000   5.679990e-06   3.725739e+00   1.001515e+01   2.108795e+01   6.383193e+05  -5.727093e+04   5.869982e+05  -2.436751e+00  -2.715907e+01   1.022161e-21   8.690790e+05   1.352659e-39   0.000000e+00   0.000000e+00
      576000   5.759990e-06   3.776804e+00   1.001057e+01   2.113491e+01   6.383193e+05  -5.727093e+04   5.869982e+05  -4.331120e+00  -4.827296e+01   1.313300e-21   8.690790e+05   4.273296e-39   0.000000e+00   0.000000e+00
      584000   5.839990e-06   3.827870e+00   1.000599e+01   2.118187e+01   6.383193e+05  -5.727093e+04   5.869982e+05  -2.632031e+00  -2.933559e+01   3.521646e-21   8.690790e+05   1.578539e-39   0.000000e+00   0.000000e+00
      592000   5.919990e-06   3.878935e+00   1.000140e+01   2.122883e+01   6.383193e+05  -5.727093e+04   5.869982e+05  -2.722820e+00  -3.034748e+01  -1.724547e-22   8.690790e+05   1.689014e-39   0.000000e+00   0.000000e+00
      600000   5.999990e-06   3.930001e+00   9.996822e+00   2.127579e+01   6.383193e+05  -5.727093e+04   5.869982e+05  -2.337693e+00  -2.605500e+01  -9.929892e-22   8.690790e+05   1.245001e-39   0.000000e+00   0.000000e+00
      608000   6.079990e-06   3.981066e+00   9.992240e+00   2.132275e+01   6.383193e+05  -5.727093e+04   5.869982e+05  -8.968800e-01  -9.996272e+00   8.351049e-24   8.690790e+05   1.832923e-40   0.000000e+00   0.000000e+00
      616000   6.159990e-06   4.032132e+00   9.987658e+00   2.136971e+01   6.383193e+05  -5.727093e+04   5.869982e+05  -1.962798e+00  -2.187658e+01   1.612401e-21   8.690790e+05   8.777233e-40   0.000000e+00   0.000000e+00
      624000   6.239990e-06   4.083197e+00   9.983077e+00   2.141667e+01   6.383193e+05  -5.727093e+04   5.869982e+05  -1.712740e+00  -1.908952e+01   6.826629e-22   8.690790e+05   6.683304e-40   0.000000e+00   0.000000e+00
      632000   6.319990e-06   4.134263e+00   9.978495e+00   2.146362e+01   6.383193e+05  -5.727093e+04   5.869982e+05  -2.302069e+00  -2.565795e+01   2.243170e-21   8.690790e+05   1.207298e-39   0.000000e+00   0.000000e+00
      640000   6.399990e-06   4.185329e+00   9.973913e+00   2.151058e+01   6.383193e+05  -5.727093e+04   5.869982e+05  -2.621734e+00  -2.922082e+01   3.153426e-22   8.690790e+05   1.565866e-39   0.000000e+00   0.000000e+00
      648000   6.479990e-06   4.236394e+00   9.969332e+00   2.155754e+01   6.383193e+05  -5.727093e+04   5.869982e+05  -2.605036e+00  -2.903470e+01  -3.815645e-22   8.690790e+05   1.546071e-39   0.000000e+00   0.000000e+00
      656000   6.559990e-06   4.287460e+00   9.964750e+00   2.160450e+01   6.383193e+05  -5.727093e+04   5.869982e+05  -2.739646e+00  -3.053502e+01  -1.247482e-21   8.690790e+05   1.709984e-39   0.000000e+00   0.000000e+00
      664000   6.639990e-06   4.338525e+00   9.960168e+00   2.165146e+01   6.383193e+05  -5.727093e+04   5.869982e+05  -2.621660e-01  -2.921999e+00   9.101947e-23   8.690790e+05   1.568165e-41   0.000000e+00   0.000000e+00
      672000   6.719990e-06   4.389591e+00   9.955587e+00   2.169842e+01   6.383193e+05  -5.727093e+04   5.869982e+05   1.294775e+00   1.443106e+01   6.556775e-22   8.690790e+05   3.818149e-40   0.000000e+00   0.000000e+00
      680000   6.799990e-06   4.440656e+00   9.951005e+00   2.174538e+01   6.383193e+05  -5.727093e+04   5.869982e+05  -1.727019e+00  -1.924867e+01   4.323016e-22   8.690790e+05   6.796269e-40   0.000000e+00   0.000000e+00
      688000   6.879990e-06   4.491722e+00   9.946423e+00   2.179234e+01   6.383193e+05  -5.727093e+04   5.869982e+05  -4.262465e-01  -4.750776e+00  -1.154637e-22   8.690790e+05   4.142357e-41   0.000000e+00   0.000000e+00
      696000   6.959990e-06   4.542787e+00   9.941842e+00   2.183930e+01   6.383193e+05  -5.727093e+04   5.869982e+05  -3.198000e+00  -3.564365e+01  -7.413706e-22   8.690790e+05   2.329879e-39   0.000000e+00   0.000000e+00
      704000   7.039990e-06   4.593853e+00   9.937260e+00   2.188626e+01   6.383193e+05  -5.727093e+04   5.869982e+05  -3.734945e+00  -4.162822e+01   2.223269e-21   8.690790e+05   3.177952e-39   0.000000e+00   0.000000e+00
      712000   7.119990e-06   4.644918e+00   9.932678e+00   2.193322e+01   6.383193e+05  -5.727093e+04   5.869982e+05  -2.841906e+00  -3.167476e+01   1.342998e-21   8.690790e+05   1.840008e-39   0.000000e+00   0.000000e+00
      720000   7.199990e-06   4.695984e+00   9.928097e+00   2.198018e+01   6.383193e+05  -5.727093e+04   5.869982e+05  -2.686974e+00  -2.994796e+01   3.061409e-21   8.690790e+05   1.644856e-39   0.000000e+00   0.000000e+00
      728000   7.279990e-06   4.747050e+00   9.923515e+00   2.202714e+01   6.383193e+05  -5.727093e+04   5.869982e+05  -2.005206e+00  -2.234924e+01   1.126339e-21   8.690790e+05   9.160199e-40   0.000000e+00   0.000000e+00
      736000   7.359990e-06   4.798115e+00   9.918933e+00   2.207410e+01   6.383193e+05  -5.727093e+04   5.869982e+05  -2.147744e+00  -2.393791e+01   3.571857e-22   8.690790e+05   1.050879e-39   0.000000e+00   0.000000e+00
      744000   7.439990e-06   4.849181e+00   9.914352e+00   2.212106e+01   6.383193e+05  -5.727093e+04   5.869982e+05  -2.477394e+00  -2.761206e+01  -1.498759e-21   8.690790e+05   1.398330e-39   0.000000e+00   0.000000e+00
      752000   7.519990e-06   4.900246e+00   9.909770e+00   2.216802e+01   6.383193e+05  -5.727093e+04   5.869982e+05  -2.853263e+00  -3.180134e+01  -2.094130e-21   8.690790e+05   1.854636e-39   0.000000e+00   0.000000e+00
      760000   7.599990e-06   4.951312e+00   9.905188e+00   2.221498e+01   6.383193e+05  -5.727093e+04   5.869982e+05  -2.728619e+00  -3.041212e+01  -1.112410e-21   8.690790e+05   1.696275e-39   0.000000e+00   0.000000e+00
      768000   7.679990e-06   5.002377e+00   9.900607e+00   2.226194e+01   6.383193e+05  -5.727093e+04   5.869982e+05  -2.876216e+00  -3.205717e+01   1.339554e-21   8.690790e+05   1.884621e-39   0.000000e+00   0.000000e+00
      776000   7.759990e-06   5.053443e+00   9.896025e+00   2.230890e+01   6.383193e+05  -5.727093e+04   5.869982e+05  -3.010343e+00  -3.355210e+01  -5.411726e-22   8.690790e+05   2.064540e-39   0.000000e+00   0.000000e+00
      784000   7.839990e-06   5.104508e+00   9.891443e+00   2.235586e+01   6.383193e+05  -5.727093e+04   5.869982e+05  -4.210140e+00  -4.692457e+01   3.763323e-22   8.690790e+05   4.038070e-39   0.000000e+00   0.000000e+00
      792000   7.919990e-06   5.155574e+00   9.886862e+00   2.240282e+01   6.383193e+05  -5.727093e+04   5.869982e+05  -2.614550e+00  -2.914074e+01   2.739739e-21   8.690790e+05   1.557487e-39   0.000000e+00   0.000000e+00
      800000   7.999990e-06   5.206639e+00   9.882280e+00   2.244978e+01   6.383193e+05  -5.727093e+04   5.869982e+05  -2.355618e+00  -2.625479e+01   1.445867e-23   8.690790e+05   1.264076e-39   0.000000e+00   0.000000e+00
      808000   8.079990e-06   5.257705e+00   9.877698e+00   2.249674e+01   6.383193e+05  -5.727093e+04   5.869982e+05  -3.031628e+00  -3.378933e+01   5.781166e-22   8.690790e+05   2.093737e-39   0.000000e+00   0.000000e+00
      816000   8.159990e-06   5.308770e+00   9.873117e+00   2.254370e+01   6.383193e+05  -5.727093e+04   5.869982e+05  -2.501361e+00  -2.787919e+01  -8.361415e-22   8.690790e+05   1.425504e-39   0.000000e+00   0.000000e+00
      824000   8.239990e-06   5.359836e+00   9.868535e+00   2.259066e+01   6.383193e+05  -5.727093e+04   5.869982e+05  -2.011547e+00  -2.241991e+01   1.331658e-22   8.690790e+05   9.218946e-40   0.000000e+00   0.000000e+00
      832000   8.319990e-06   5.410902e+00   9.863953e+00   2.263762e+01   6.383193e+05  -5.727093e+04   5.869982e+05  -2.889670e+00  -3.220713e+01  -1.519694e-21   8.690790e+05   1.902343e-39   0.000000e+00   0.000000e+00
      840000   8.399990e-06   5.461967e+00   9.859372e+00   2.268458e+01   6.383193e+05  -5.727093e+04   5.869982e+05  -2.951919e+00  -3.290092e+01   1.645845e-21   8.690790e+05   1.985185e-39   0.000000e+00   0.000000e+00
      848000   8.479990e-06   5.513033e+00   9.854790e+00   2.273154e+01   6.383193e+05  -5.727093e+04   5.869982e+05  -3.205966e+00  -3.573244e+01   1.510449e-21   8.690790e+05   2.341513e-39   0.000000e+00   0.000000e+00
      856000   8.559990e-06   5.564098e+00   9.850208e+00   2.277850e+01   6.383193e+05  -5.727093e+04   5.869982e+05  -3.675443e+00  -4.096505e+01   2.227533e-22   8.690790e+05   3.077515e-39   0.000000e+00   0.000000e+00
      864000   8.639990e-06   5.615164e+00   9.845627e+00   2.282546e+01   6.383193e+05  -5.727093e+04   5.869982e+05  -3.048774e+00  -3.398044e+01  -1.940788e-21   8.690790e+05   2.117630e-39   0.000000e+00   0.000000e+00
      872000   8.719990e-06   5.666229e+00   9.841045e+00   2.287242e+01   6.383193e+05  -5.727093e+04   5.869982e+05  -2.907676e+00  -3.240782e+01  -2.269564e-21   8.690790e+05   1.926158e-39   0.000000e+00   0.000000e+00
      880000   8.799990e-06   5.717295e+00   9.836463e+00   2.291938e+01   6.383193e+05  -5.727093e+04   5.869982e+05  -2.870861e+00  -3.199749e+01   2.196630e-21   8.690790e+05   1.877642e-39   0.000000e+00   0.000000e+00
      888000   8.879990e-06   5.768360e+00   9.831882e+00   2.296634e+01   6.383193e+05  -5.727093e+04   5.869982e+05  -3.036262e+00  -3.384098e+01  -4.799548e-22   8.690790e+05   2.100231e-39   0.000000e+00   0.000000e+00
      896000   8.959990e-06   5.819426e+00   9.827300e+00   2.301330e+01   6.383193e+05  -5.727093e+04   5.869982e+05  -3.312855e+00  -3.692378e+01   3.650602e-21   8.690790e+05   2.500356e-39   0.000000e+00   0.000000e+00
      904000   9.039990e-06   5.870491e+00   9.822718e+00   2.306026e+01   6.383193e+05  -5.727093e+04   5.869982e+05  -3.235057e+00  -3.605667e+01   3.103944e-21   8.690790e+05   2.384301e-39   0.000000e+00   0.000000e+00
      912000   9.119990e-06   5.921557e+00   9.818137e+00   2.310722e+01   6.383193e+05  -5.727093e+04   5.869982e+05  -3.392306e+00  -3.780931e+01   2.878482e-21   8.690790e+05   2.621737e-39   0.000000e+00   0.000000e+00
      920000   9.199990e-06   5.972623e+00   9.813555e+00   2.315418e+01   6.383193e+05  -5.727093e+04   5.869982e+05  -3.247589e+00  -3.619635e+01   3.296141e-21   8.690790e+05   2.402822e-39   0.000000e+00   0.000000e+00
      928000   9.279990e-06   6.023688e+00   9.808973e+00   2.320114e+01   6.383193e+05  -5.727093e+04   5.869982e+05  -3.133585e+00  -3.492571e+01   2.096242e-21   8.690790e+05   2.237090e-39   0.000000e+00   0.000000e+00
      936000   9.359990e-06   6.074754e+00   9.804392e+00   2.324810e+01   6.383193e+05  -5.727093e+04   5.869982e+05  -2.963807e+00  -3.303343e+01  -2.010664e-21   8.690790e+05   2.001247e-39   0.000000e+00   0.000000e+00
      944000   9.439990e-06   6.125819e+00   9.799810e+00   2.329506e+01   6.383193e+05  -5.727093e+04   5.869982e+05  -3.591304e+00  -4.002727e+01  -2.119780e-21   8.690790e+05   2.938209e-39   0.000000e+00   0.000000e+00
      952000   9.519990e-06   6.176885e+00   9.795228e+00   2.334202e+01   6.383193e+05  -5.727093e+04   5.869982e+05  -2.407233e+00  -2.683007e+01   2.292137e-21   8.690790e+05   1.320253e-39   0.000000e+00   0.000000e+00
      960000   9.599990e-06   6.227950e+00   9.790646e+00   2.338898e+01   6.383193e+05  -5.727093e+04   5.869982e+05  -4.305940e+00  -4.799231e+01  -5.944457e-21   8.690790e+05   4.223953e-39   0.000000e+00   0.000000e+00
      968000   9.679990e-06   6.279016e+00   9.786065e+00   2.343594e+01   6.383193e+05  -5.727093e+04   5.869982e+05  -2.981328e+00  -3.322871e+01  -3.600469e-21   8.690790e+05   2.025029e-39   0.000000e+00   0.000000e+00
      976000   9.759990e-06   6.330081e+00   9.781483e+00   2.348290e+01   6.383193e+05  -5.727093e+04   5.869982e+05  -2.514481e+00  -2.802541e+01   2.974901e-21   8.690790e+05   1.440579e-39   0.000000e+00   0.000000e+00
      984000   9.839990e-06   6.381147e+00   9.776901e+00   2.352986e+01   6.383193e+05  -5.727093e+04   5.869982e+05  -4.584087e+00  -5.109244e+01   4.682209e-21   8.690790e+05   4.787256e-39   0.000000e+00   0.000000e+00
      992000   9.919990e-06   6.432212e+00   9.772320e+00   2.357682e+01   6.383193e+05  -5.727093e+04   5.869982e+05  -2.406763e+00  -2.682483e+01  -4.195868e-22   8.690790e+05   1.319814e-39   0.000000e+00   0.000000e+00
     1000000   9.999990e-06   6.483278e+00   9.767738e+00   2.362378e+01   6.383193e+05  -5.727093e+04   5.869982e+05  -5.565793e+00  -6.203414e+01   7.896443e-22   8.690790e+05   7.056912e-39   0.000000e+00   0.000000e+00
     1008000   1.007999e-05   6.534343e+00   9.763156e+00   2.367074e+01   6.383193e+05  -5.727093e+04   5.869982e+05  -3.993568e+00  -4.451074e+01  -1.737585e-21   8.690790e+05   3.633491e-39   0.000000e+00   0.000000e+00
     1016000   1.015999e-05   6.585409e+00   9.758575e+00   2.371770e+01   6.383193e+05  -5.727093e+04   5.869982e+05  -3.056391e+00  -3.406534e+01  -1.938431e-21   8.690790e+05   2.128227e-39   0.000000e+00   0.000000e+00
     1024000   1.023999e-05   6.636475e+00   9.753993e+00   2.376466e+01   6.383193e+05  -5.727093e+04   5.869982e+05  -5.712013e+00  -6.366385e+01  -8.550115e-21   8.690790e+05   7.432554e-39   0.000000e+00   0.000000e+00
     1032000   1.031999e-05   6.687540e+00   9.749411e+00   2.381162e+01   6.383193e+05  -5.727093e+04   5.869982e+05  -2.915656e+00  -3.249675e+01  -1.934435e-21   8.690790e+05   1.936908e-39   0.000000e+00   0.000000e+00
     1040000   1.039999e-05   6.738606e+00   9.744830e+00   2.385858e+01   6.383193e+05  -5.727093e+04   5.869982e+05  -4.636340e+00  -5.167482e+01  -4.329817e-21   8.690790e+05   4.896967e-39   0.000000e+00   0.000000e+00
     1048000   1.047999e-05   6.789671e+00   9.740248e+00   2.390554e+01   6.383193e+05  -5.727093e+04   5.869982e+05  -3.211024e+00  -3.578882e+01  -4.422216e-22   8.690790e+05   2.349216e-39   0.000000e+00   0.000000e+00
     1056000   1.055999e-05   6.840737e+00   9.735666e+00   2.395250e+01   6.383193e+05  -5.727093e+04   5.869982e+05  -3.385724e+00  -3.773595e+01   4.973310e-22   8.690790e+05   2.611544e-39   0.000000e+00   0.000000e+00
     1064000   1.063999e-05   6.891802e+00   9.731085e+00   2.399946e+01   6.383193e+05  -5.727093e+04   5.869982e+05  -3.400605e+00  -3.790181e+01  -3.984996e-21   8.690790e+05   2.634550e-39   0.000000e+00   0.000000e+00
     1072000   1.071999e-05   6.942868e+00   9.726503e+00   2.404642e+01   6.383193e+05  -5.727093e+04   5.869982e+05  -4.372345e+00  -4.873244e+01  -4.006588e-21   8.690790e+05   4.355317e-39   0.000000e+00   0.000000e+00
     1080000   1.079999e-05   6.993933e+00   9.721921e+00   2.409338e+01   6.383193e+05  -5.727093e+04   5.869982e+05  -4.515728e+00  -5.033052e+01   1.499091e-21   8.690790e+05   4.645651e-39   0.000000e+00   0.000000e+00
     1088000   1.087999e-05   7.044999e+00   9.717340e+00   2.414034e+01   6.383193e+05  -5.727093e+04   5.869982e+05  -4.261923e+00  -4.750171e+01  -3.784891e-22   8.690790e+05   4.138186e-39   0.000000e+00   0.000000e+00
     1096000   1.095999e-05   7.096064e+00   9.712758e+00   2.418730e+01   6.383193e+05  -5.727093e+04   5.869982e+05  -4.093456e+00  -4.562405e+01  -1.072461e-21   8.690790e+05   3.817503e-39   0.000000e+00   0.000000e+00
     1104000   1.103999e-05   7.147130e+00   9.708176e+00   2.423426e+01   6.383193e+05  -5.727093e+04   5.869982e+05  -3.462800e+00  -3.859501e+01  -6.747493e-23   8.690790e+05   2.731879e-39   0.000000e+00   0.000000e+00
     1112000   1.111999e-05   7.198196e+00   9.703595e+00   2.428122e+01   6.383193e+05  -5.727093e+04   5.869982e+05  -3.081211e+00  -3.434197e+01  -4.416281e-21   8.690790e+05   2.162972e-39   0.000000e+00   0.000000e+00
     1120000   1.119999e-05   7.249261e+00   9.699013e+00   2.432818e+01   6.383193e+05  -5.727093e+04   5.869982e+05  -2.190207e+00  -2.441119e+01  -6.417534e-22   8.690790e+05   1.092942e-39   0.000000e+00   0.000000e+00
     1128000   1.127999e-05   7.300327e+00   9.694431e+00   2.437514e+01   6.383193e+05  -5.727093e+04   5.869982e+05  -4.376214e+00  -4.877556e+01  -6.749368e-21   8.690790e+05   4.362999e-39   0.000000e+00   0.000000e+00
     1136000   1.135999e-05   7.351392e+00   9.689850e+00   2.442210e+01   6.383193e+05  -5.727093e+04   5.869982e+05  -5.490898e+00  -6.119940e+01  -9.005472e-21   8.690790e+05   6.868586e-39   0.000000e+00   0.000000e+00
     1144000   1.143999e-05   7.402458e+00   9.685268e+00   2.446906e+01   6.383193e+05  -5.727093e+04   5.869982e+05  -4.179131e+00  -4.657895e+01   5.036108e-21   8.690790e+05   3.979043e-39   0.000000e+00   0.000000e+00
     1152000   1.151999e-05   7.453523e+00   9.680686e+00   2.451602e+01   6.383193e+05  -5.727093e+04   5.869982e+05  -5.283942e+00  -5.889274e+01   4.932302e-21   8.690790e+05   6.360613e-39   0.000000e+00   0.000000e+00
     1160000   1.159999e-05   7.504589e+00   9.676105e+00   2.456298e+01   6.383193e+05  -5.727093e+04   5.869982e+05  -3.860063e+00  -4.302275e+01   2.456354e-21   8.690790e+05   3.394604e-39   0.000000e+00   0.000000e+00
     1168000   1.167999e-05   7.555654e+00   9.671523e+00   2.460993e+01   6.383193e+05  -5.727093e+04   5.869982e+05  -3.789399e+00  -4.223515e+01  -7.401877e-22   8.690790e+05   3.271450e-39   0.000000e+00   0.000000e+00
     1176000   1.175999e-05   7.606720e+00   9.666941e+00   2.465689e+01   6.383193e+05  -5.727093e+04   5.869982e+05  -4.434297e+00  -4.942294e+01  -1.177370e-21   8.690790e+05   4.479336e-39   0.000000e+00   0.000000e+00
     1184000   1.183999e-05   7.657785e+00   9.662360e+00   2.470385e+01   6.383193e+05  -5.727093e+04   5.869982e+05  -3.966947e+00  -4.421403e+01  -3.430735e-23   8.690790e+05   3.585277e-39   0.000000e+00   0.000000e+00
     1192000   1.191999e-05   7.708851e+00   9.657778e+00   2.475081e+01   6.383193e+05  -5.727093e+04   5.869982e+05  -4.951363e+00  -5.518595e+01  -1.383264e-21   8.690790e+05   5.585070e-39   0.000000e+00   0.000000e+00
     1200000   1.199999e-05   7.759916e+00   9.653196e+00   2.479777e+01   6.383193e+05  -5.727093e+04   5.869982e+05  -5.659811e+00  -6.308202e+01  -1.569214e-21   8.690790e+05   7.297679e-39   0.000000e+00   0.000000e+00
     1208000   1.207999e-05   7.810982e+00   9.648615e+00   2.484473e+01   6.383193e+05  -5.727093e+04   5.869982e+05  -4.100108e+00  -4.569819e+01  -8.651647e-22   8.690790e+05   3.829891e-39   0.000000e+00   0.000000e+00
     1216000   1.215999e-05   7.862048e+00   9.644033e+00   2.489169e+01   6.383193e+05  -5.727093e+04   5.869982e+05  -4.053781e+00  -4.518185e+01  -1.139068e-21   8.690790e+05   3.743833e-39   0.000000e+00   0.000000e+00
     1224000   1.223999e-05   7.913113e+00   9.639451e+00   2.493865e+01   6.383193e+05  -5.727093e+04   5.869982e+05  -4.458148e+00  -4.968876e+01  -2.924383e-21   8.690790e+05   4.527925e-39   0.000000e+00   0.000000e+00
     1232000   1.231999e-05   7.964179e+00   9.634870e+00   2.498561e+01   6.383193e+05  -5.727093e+04   5.869982e+05  -4.633461e+00  -5.164273e+01   1.514339e-21   8.690790e+05   4.891042e-39   0.000000e+00   0.000000e+00
     1240000   1.239999e-05   8.015244e+00   9.630288e+00   2.503257e+01   6.383193e+05  -5.727093e+04   5.869982e+05  -4.881356e+00  -5.440568e+01   5.745187e-21   8.690790e+05   5.428514e-39   0.000000e+00   0.000000e+00
     1248000   1.247999e-05   8.066310e+00   9.625706e+00   2.507953e+01   6.383193e+05  -5.727093e+04   5.869982e+05  -4.637180e+00  -5.168418e+01   2.854314e-21   8.690790e+05   4.899009e-39   0.000000e+00   0.000000e+00
     1256000   1.255999e-05   8.117375e+00   9.621125e+00   2.512649e+01   6.383193e+05  -5.727093e+04   5.869982e+05  -4.602996e+00  -5.130318e+01   5.225896e-21   8.690790e+05   4.826730e-39   0.000000e+00   0.000000e+00
     1264000   1.263999e-05   8.168441e+00   9.616543e+00   2.517345e+01   6.383193e+05  -5.727093e+04   5.869982e+05  -5.566412e+00  -6.204104e+01   1.083080e-21   8.690790e+05   7.058728e-39   0.000000e+00   0.000000e+00
     1272000   1.271999e-05   8.219506e+00   9.611961e+00   2.522041e+01   6.383193e+05  -5.727093e+04   5.869982e+05  -4.708155e+00  -5.247525e+01  -1.929510e-21   8.690790e+05   5.049870e-39   0.000000e+00   0.000000e+00
     1280000   1.279999e-05   8.270572e+00   9.607380e+00   2.526737e+01   6.383193e+05  -5.727093e+04   5.869982e+05  -5.400190e+00  -6.018839e+01   1.918117e-21   8.690790e+05   6.643527e-39   0.000000e+00   0.000000e+00
     1288000   1.287999e-05   8.321637e+00   9.602798e+00   2.531433e+01   6.383193e+05  -5.727093e+04   5.869982e+05  -4.760752e+00  -5.306147e+01   9.505144e-22   8.690790e+05   5.163766e-39   0.000000e+00   0.000000e+00
     1296000   1.295999e-05   8.372703e+00   9.598216e+00   2.536129e+01   6.383193e+05  -5.727093e+04   5.869982e+05  -5.002993e+00  -5.576139e+01   2.585257e-21   8.690790e+05   5.702386e-39   0.000000e+00   0.000000e+00
     1304000   1.303999e-05   8.423769e+00   9.593634e+00   2.540825e+01   6.383193e+05  -5.727093e+04   5.869982e+05  -5.261312e+00  -5.864052e+01  -5.723176e-21   8.690790e+05   6.306235e-39   0.000000e+00   0.000000e+00
     1312000   1.311999e-05   8.474834e+00   9.589053e+00   2.545521e+01   6.383193e+05  -5.727093e+04   5.869982e+05  -5.868759e+00  -6.541088e+01   7.181606e-21   8.690790e+05   7.846499e-39   0.000000e+00   0.000000e+00
     1320000   1.319999e-05   8.525900e+00   9.584471e+00   2.550217e+01   6.383193e+05  -5.727093e+04   5.869982e+05  -5.602312e+00  -6.244117e+01   2.619257e-21   8.690790e+05   7.150186e-39   0.000000e+00   0.000000e+00
     1328000   1.327999e-05   8.576965e+00   9.579889e+00   2.554913e+01   6.383193e+05  -5.727093e+04   5.869982e+05  -6.214736e+00  -6.926700e+01  -4.001313e-21   8.690790e+05   8.798917e-39   0.000000e+00   0.000000e+00
     1336000   1.335999e-05   8.628031e+00   9.575308e+00   2.559609e+01   6.383193e+05  -5.727093e+04   5.869982e+05  -6.430746e+00  -7.167457e+01  -1.156480e-21   8.690790e+05   9.421278e-39   0.000000e+00   0.000000e+00
     1344000   1.343999e-05   8.679096e+00   9.570726e+00   2.564305e+01   6.383193e+05  -5.727093e+04   5.869982e+05  -2.222812e+00  -2.477459e+01   9.437149e-22   8.690790e+05   1.125878e-39   0.000000e+00   0.000000e+00
     1352000   1.351999e-05   8.730162e+00   9.566144e+00   2.569001e+01   6.383193e+05  -5.727093e+04   5.869982e+05  -5.317157e+00  -5.926294e+01  -3.196630e-21   8.690790e+05   6.440831e-39   0.000000e+00   0.000000e+00
     1360000   1.359999e-05   8.781227e+00   9.561563e+00   2.573697e+01   6.383193e+05  -5.727093e+04   5.869982e+05  -5.352489e+00  -5.965673e+01   7.914495e-22   8.690790e+05   6.526780e-39   0.000000e+00   0.000000e+00
     1368000   1.367999e-05   8.832293e+00   9.556981e+00   2.578393e+01   6.383193e+05  -5.727093e+04   5.869982e+05  -5.666539e+00  -6.315702e+01  -2.516592e-21   8.690790e+05   7.315233e-39   0.000000e+00   0.000000e+00
     1376000   1.375999e-05   8.883358e+00   9.552399e+00   2.583089e+01   6.383193e+05  -5.727093e+04   5.869982e+05  -6.531027e+00  -7.279226e+01  -4.397135e-21   8.690790e+05   9.717307e-39   0.000000e+00   0.000000e+00
     1384000   1.383999e-05   8.934424e+00   9.547818e+00   2.587785e+01   6.383193e+05  -5.727093e+04   5.869982e+05  -5.199184e+00  -5.794806e+01  -4.071609e-21   8.690790e+05   6.158425e-39   0.000000e+00   0.000000e+00
     1392000   1.391999e-05   8.985489e+00   9.543236e+00   2.592481e+01   6.383193e+05  -5.727093e+04   5.869982e+05  -5.743373e+00  -6.401337e+01  -3.788111e-21   8.690790e+05   7.515050e-39   0.000000e+00   0.000000e+00
     1400000   1.399999e-05   9.036555e+00   9.538654e+00   2.597177e+01   6.383193e+05  -5.727093e+04   5.869982e+05  -5.161318e+00  -5.752602e+01   5.878681e-21   8.690790e+05   6.068997e-39   0.000000e+00   0.000000e+00
     1408000   1.407999e-05   9.087621e+00   9.534073e+00   2.601873e+01   6.383193e+05  -5.727093e+04   5.869982e+05  -4.574188e+00  -5.098211e+01  -4.135058e-22   8.690790e+05   4.766809e-39   0.000000e+00   0.000000e+00
     1416000   1.415999e-05   9.138686e+00   9.529491e+00   2.606569e+01   6.383193e+05  -5.727093e+04   5.869982e+05  -6.765270e+00  -7.540304e+01  -3.287485e-21   8.690790e+05   1.042656e-38   0.000000e+00   0.000000e+00
     1424000   1.423999e-05   9.189752e+00   9.524909e+00   2.611265e+01   6.383193e+05  -5.727093e+04   5.869982e+05  -5.064685e+00  -5.644899e+01   8.196838e-22   8.690790e+05   5.844062e-39   0.000000e+00   0.000000e+00
     1432000   1.431999e-05   9.240817e+00   9.520328e+00   2.615961e+01   6.383193e+05  -5.727093e+04   5.869982e+05  -6.771246e+00  -7.546964e+01   1.454750e-21   8.690790e+05   1.044508e-38   0.000000e+00   0.000000e+00
     1440000   1.439999e-05   9.291883e+00   9.515746e+00   2.620657e+01   6.383193e+05  -5.727093e+04   5.869982e+05  -6.359390e+00  -7.087926e+01   4.191817e-21   8.690790e+05   9.213819e-39   0.000000e+00   0.000000e+00
     1448000   1.447999e-05   9.342948e+00   9.511164e+00   2.625353e+01   6.383193e+05  -5.727093e+04   5.869982e+05  -5.636650e+00  -6.282388e+01  -3.821042e-21   8.690790e+05   7.238554e-39   0.000000e+00   0.000000e+00
     1456000   1.455999e-05   9.394014e+00   9.506583e+00   2.630049e+01   6.383193e+05  -5.727093e+04   5.869982e+05  -5.126227e+00  -5.713491e+01  -7.305138e-22   8.690790e+05   5.986835e-39   0.000000e+00   0.000000e+00
     1464000   1.463999e-05   9.445079e+00   9.502001e+00   2.634745e+01   6.383193e+05  -5.727093e+04   5.869982e+05  -6.545759e+00  -7.295645e+01   2.767175e-21   8.690790e+05   9.760879e-39   0.000000e+00   0.000000e+00
     1472000   1.471999e-05   9.496145e+00   9.497419e+00   2.639441e+01   6.383193e+05  -5.727093e+04   5.869982e+05  -8.335233e+00  -9.290123e+01   5.347296e-21   8.690790e+05   1.582740e-38   0.000000e+00   0.000000e+00
     1480000   1.479999e-05   9.547210e+00   9.492838e+00   2.644137e+01   6.383193e+05  -5.727093e+04   5.869982e+05  -7.456818e+00  -8.311077e+01   5.982436e-22   8.690790e+05   1.266761e-38   0.000000e+00   0.000000e+00
     1488000   1.487999e-05   9.598276e+00   9.488256e+00   2.648833e+01   6.383193e+05  -5.727093e+04   5.869982e+05  -7.932103e+00  -8.840810e+01   4.911411e-21   8.690790e+05   1.433391e-38   0.000000e+00   0.000000e+00
     1496000   1.495999e-05   9.649341e+00   9.483674e+00   2.653529e+01   6.383193e+05  -5.727093e+04   5.869982e+05  -5.983350e+00  -6.668807e+01   3.244754e-21   8.690790e+05   8.155906e-39   0.000000e+00   0.000000e+00
     1504000   1.503999e-05   9.700407e+00   9.479093e+00   2.658225e+01   6.383193e+05  -5.727093e+04   5.869982e+05  -5.688007e+00  -6.339629e+01   2.163882e-21   8.690790e+05   7.370845e-39   0.000000e+00   0.000000e+00
     1512000   1.511999e-05   9.751473e+00   9.474511e+00   2.662921e+01   6.383193e+05  -5.727093e+04   5.869982e+05  -5.601763e+00  -6.243505e+01   3.028065e-21   8.690790e+05   7.148965e-39   0.000000e+00   0.000000e+00
     1520000   1.519999e-05   9.802538e+00   9.469929e+00   2.667617e+01   6.383193e+05  -5.727093e+04   5.869982e+05  -5.982650e+00  -6.668027e+01  -2.746935e-21   8.690790e+05   8.154282e-39   0.000000e+00   0.000000e+00
     1528000   1.527999e-05   9.853604e+00   9.465348e+00   2.672313e+01   6.383193e+05  -5.727093e+04   5.869982e+05  -5.905061e+00  -6.581549e+01  -2.628600e-21   8.690790e+05   7.944031e-39   0.000000e+00   0.000000e+00
     1536000   1.535999e-05   9.904669e+00   9.460766e+00   2.677009e+01   6.383193e+05  -5.727093e+04   5.869982e+05  -5.557479e+00  -6.194147e+01   6.778118e-22   8.690790e+05   7.036213e-39   0.000000e+00   0.000000e+00
     1544000   1.543999e-05   9.955735e+00   9.456184e+00   2.681705e+01   6.383193e+05  -5.727093e+04   5.869982e+05  -7.050657e+00  -7.858385e+01   1.126491e-21   8.690790e+05   1.132485e-38   0.000000e+00   0.000000e+00
     1552000   1.551999e-05   1.000680e+01   9.451603e+00   2.686401e+01   6.383193e+05  -5.727093e+04   5.869982e+05  -6.733057e+00  -7.504401e+01  -6.314902e-21   8.690790e+05   1.032840e-38   0.000000e+00   0.000000e+00
     1560000   1.559999e-05   1.005787e+01   9.447021e+00   2.691097e+01   6.383193e+05  -5.727093e+04   5.869982e+05  -5.032417e+00  -5.608934e+01  -2.637012e-21   8.690790e+05   5.770107e-39   0.000000e+00   0.000000e+00
     1568000   1.567999e-05   1.010893e+01   9.442439e+00   2.695793e+01   6.383193e+05  -5.727093e+04   5.869982e+05  -5.364013e+00  -5.978518e+01   7.137048e-22   8.690790e+05   6.554912e-39   0.000000e+00   0.000000e+00
     1576000   1.575999e-05   1.016000e+01   9.437858e+00   2.700489e+01   6.383193e+05  -5.727093e+04   5.869982e+05  -5.950503e+00  -6.632197e+01  -3.697485e-21   8.690790e+05   8.066629e-39   0.000000e+00   0.000000e+00
     1584000   1.583999e-05   1.021106e+01   9.433276e+00   2.705185e+01   6.383193e+05  -5.727093e+04   5.869982e+05  -6.283739e+00  -7.003608e+01   6.628893e-21   8.690790e+05   8.995619e-39   0.000000e+00   0.000000e+00
     1592000   1.591999e-05   1.026213e+01   9.428694e+00   2.709881e+01   6.383193e+05  -5.727093e+04   5.869982e+05  -6.268056e+00  -6.986129e+01   8.647136e-21   8.690790e+05   8.950773e-39   0.000000e+00   0.000000e+00
     1600000   1.599999e-05   1.031319e+01   9.424113e+00   2.714577e+01   6.383193e+05  -5.727093e+04   5.869982e+05  -5.544905e+00  -6.180133e+01   4.235509e-21   8.690790e+05   7.005170e-39   0.000000e+00   0.000000e+00
     1608000   1.607999e-05   1.036426e+01   9.419531e+00   2.719273e+01   6.383193e+05  -5.727093e+04   5.869982e+05  -3.707648e+00  -4.132399e+01   5.555606e-22   8.690790e+05   3.132170e-39   0.000000e+00   0.000000e+00
     1616000   1.615999e-05   1.041532e+01   9.414949e+00   2.723969e+01   6.383193e+05  -5.727093e+04   5.869982e+05  -5.241813e+00  -5.842318e+01   6.011362e-22   8.690790e+05   6.259981e-39   0.000000e+00   0.000000e+00
     1624000   1.623999e-05   1.046639e+01   9.410368e+00   2.728665e+01   6.383193e+05  -5.727093e+04   5.869982e+05  -4.496492e+00  -5.011614e+01   1.924251e-21   8.690790e+05   4.606386e-39   0.000000e+00   0.000000e+00
     1632000   1.631999e-05   1.051746e+01   9.405786e+00   2.733361e+01   6.383193e+05  -5.727093e+04   5.869982e+05  -6.466607e+00  -7.207426e+01   1.124002e-21   8.690790e+05   9.526937e-39   0.000000e+00   0.000000e+00
     1640000   1.639999e-05   1.056852e+01   9.401204e+00   2.738057e+01   6.383193e+05  -5.727093e+04   5.869982e+05  -6.125751e+00  -6.827521e+01   2.123625e-21   8.690790e+05   8.549078e-39   0.000000e+00   0.000000e+00
     1648000   1.647999e-05   1.061959e+01   9.396622e+00   2.742753e+01   6.383193e+05  -5.727093e+04   5.869982e+05  -7.114923e+00  -7.930013e+01  -8.287421e-21   8.690790e+05   1.153289e-38   0.000000e+00   0.000000e+00
     1656000   1.655999e-05   1.067065e+01   9.392041e+00   2.747449e+01   6.383193e+05  -5.727093e+04   5.869982e+05  -6.900563e+00  -7.691096e+01   5.531038e-21   8.690790e+05   1.084843e-38   0.000000e+00   0.000000e+00
     1664000   1.663999e-05   1.072172e+01   9.387459e+00   2.752145e+01   6.383193e+05  -5.727093e+04   5.869982e+05  -6.254833e+00  -6.971391e+01  -3.978267e-21   8.690790e+05   8.913326e-39   0.000000e+00   0.000000e+00
     1672000   1.671999e-05   1.077278e+01   9.382877e+00   2.756841e+01   6.383193e+05  -5.727093e+04   5.869982e+05  -5.466556e+00  -6.092808e+01   3.289376e-21   8.690790e+05   6.808287e-39   0.000000e+00   0.000000e+00
     1680000   1.679999e-05   1.082385e+01   9.378296e+00   2.761537e+01   6.383193e+05  -5.727093e+04   5.869982e+05  -6.519218e+00  -7.266065e+01   4.720379e-21   8.690790e+05   9.682761e-39   0.000000e+00   0.000000e+00
     1688000   1.687999e-05   1.087491e+01   9.373714e+00   2.766233e+01   6.383193e+05  -5.727093e+04   5.869982e+05  -5.704923e+00  -6.358483e+01  -1.277654e-21   8.690790e+05   7.414975e-39   0.000000e+00   0.000000e+00
     1696000   1.695999e-05   1.092598e+01   9.369132e+00   2.770929e+01   6.383193e+05  -5.727093e+04   5.869982e+05  -6.929893e+00  -7.723786e+01  -3.219590e-21   8.690790e+05   1.094035e-38   0.000000e+00   0.000000e+00
     1704000   1.703999e-05   1.097705e+01   9.364551e+00   2.775625e+01   6.383193e+05  -5.727093e+04   5.869982e+05  -7.980308e+00  -8.894538e+01  -2.550190e-21   8.690790e+05   1.450840e-38   0.000000e+00   0.000000e+00
     1712000   1.711999e-05   1.102811e+01   9.359969e+00   2.780320e+01   6.383193e+05  -5.727093e+04   5.869982e+05  -7.140969e+00  -7.959043e+01   3.185464e-21   8.690790e+05   1.161760e-38   0.000000e+00   0.000000e+00
     1720000   1.719999e-05   1.107918e+01   9.355387e+00   2.785016e+01   6.383193e+05  -5.727093e+04   5.869982e+05  -6.635500e+00  -7.395667e+01  -1.174059e-21   8.690790e+05   1.003114e-38   0.000000e+00   0.000000e+00
     1728000   1.727999e-05   1.113024e+01   9.350806e+00   2.789712e+01   6.383193e+05  -5.727093e+04   5.869982e+05  -6.581023e+00  -7.334950e+01  -7.244246e-21   8.690790e+05   9.867144e-39   0.000000e+00   0.000000e+00
     1736000   1.735999e-05   1.118131e+01   9.346224e+00   2.794408e+01   6.383193e+05  -5.727093e+04   5.869982e+05  -5.554420e+00  -6.190739e+01   1.847225e-21   8.690790e+05   7.028996e-39   0.000000e+00   0.000000e+00
     1744000   1.743999e-05   1.123237e+01   9.341642e+00   2.799104e+01   6.383193e+05  -5.727093e+04   5.869982e+05  -5.645179e+00  -6.291894e+01  -4.595317e-21   8.690790e+05   7.260199e-39   0.000000e+00   0.000000e+00
     1752000   1.751999e-05   1.128344e+01   9.337061e+00   2.803800e+01   6.383193e+05  -5.727093e+04   5.869982e+05  -8.138507e+00  -9.070860e+01  -2.964133e-21   8.690790e+05   1.508923e-38   0.000000e+00   0.000000e+00
     1760000   1.759999e-05   1.133450e+01   9.332479e+00   2.808496e+01   6.383193e+05  -5.727093e+04   5.869982e+05  -6.722402e+00  -7.492525e+01  -4.038030e-21   8.690790e+05   1.029565e-38   0.000000e+00   0.000000e+00
     1768000   1.767999e-05   1.138557e+01   9.327897e+00   2.813192e+01   6.383193e+05  -5.727093e+04   5.869982e+05  -7.265436e+00  -8.097770e+01  -4.281815e-21   8.690790e+05   1.202583e-38   0.000000e+00   0.000000e+00
     1776000   1.775999e-05   1.143664e+01   9.323316e+00   2.817888e+01   6.383193e+05  -5.727093e+04   5.869982e+05  -6.971664e+00  -7.770343e+01  -3.900627e-21   8.690790e+05   1.107303e-38   0.000000e+00   0.000000e+00
     1784000   1.783999e-05   1.148770e+01   9.318734e+00   2.822584e+01   6.383193e+05  -5.727093e+04   5.869982e+05  -6.460656e+00  -7.200793e+01   3.980812e-22   8.690790e+05   9.509221e-39   0.000000e+00   0.000000e+00
     1792000   1.791999e-05   1.153877e+01   9.314152e+00   2.827280e+01   6.383193e+05  -5.727093e+04   5.869982e+05  -7.847592e+00  -8.746618e+01   2.606374e-21   8.690790e+05   1.402983e-38   0.000000e+00   0.000000e+00
     1800000   1.799999e-05   1.158983e+01   9.309571e+00   2.831976e+01   6.383193e+05  -5.727093e+04   5.869982e+05  -6.594831e+00  -7.350339e+01   2.182494e-21   8.690790e+05   9.908870e-39   0.000000e+00   0.000000e+00
     1808000   1.807999e-05   1.164090e+01   9.304989e+00   2.836672e+01   6.383193e+05  -5.727093e+04   5.869982e+05  -6.728378e+00  -7.499186e+01  -1.070310e-20   8.690790e+05   1.031373e-38   0.000000e+00   0.000000e+00
     1816000   1.815999e-05   1.169196e+01   9.300407e+00   2.841368e+01   6.383193e+05  -5.727093e+04   5.869982e+05  -6.774152e+00  -7.550204e+01  -1.972467e-21   8.690790e+05   1.045455e-38   0.000000e+00   0.000000e+00
     1824000   1.823999e-05   1.174303e+01   9.295826e+00   2.846064e+01   6.383193e+05  -5.727093e+04   5.869982e+05  -5.696616e+00  -6.349224e+01  -6.621605e-21   8.690790e+05   7.393472e-39   0.000000e+00   0.000000e+00
     1832000   1.831999e-05   1.179409e+01   9.291244e+00   2.850760e+01   6.383193e+05  -5.727093e+04   5.869982e+05  -5.501314e+00  -6.131549e+01   5.509184e-21   8.690790e+05   6.894952e-39   0.000000e+00   0.000000e+00
     1840000   1.839999e-05   1.184516e+01   9.286662e+00   2.855456e+01   6.383193e+05  -5.727093e+04   5.869982e+05  -7.686174e+00  -8.566707e+01   4.728721e-21   8.690790e+05   1.345875e-38   0.000000e+00   0.000000e+00
     1848000   1.847999e-05   1.189623e+01   9.282081e+00   2.860152e+01   6.383193e+05  -5.727093e+04   5.869982e+05  -4.668756e+00  -5.203612e+01  -2.726330e-22   8.690790e+05   4.966156e-39   0.000000e+00   0.000000e+00
     1856000   1.855999e-05   1.194729e+01   9.277499e+00   2.864848e+01   6.383193e+05  -5.727093e+04   5.869982e+05  -9.924078e+00  -1.106099e+02   5.881641e-21   8.690790e+05   2.243650e-38   0.000000e+00   0.000000e+00
     1864000   1.863999e-05   1.199836e+01   9.272917e+00   2.869544e+01   6.383193e+05  -5.727093e+04   5.869982e+05  -1.173125e+01  -1.307518e+02   2.266052e-22   8.690790e+05   3.135206e-38   0.000000e+00   0.000000e+00
     1872000   1.871999e-05   1.204942e+01   9.268336e+00   2.874240e+01   6.383193e+05  -5.727093e+04   5.869982e+05  -5.894506e+00  -6.569785e+01   2.287290e-22   8.690790e+05   7.915889e-39   0.000000e+00   0.000000e+00
     1880000   1.879999e-05   1.210049e+01   9.263754e+00   2.878936e+01   6.383193e+05  -5.727093e+04   5.869982e+05  -6.659006e+00  -7.421866e+01   5.065486e-22   8.690790e+05   1.010203e-38   0.000000e+00   0.000000e+00
     1888000   1.887999e-05   1.215155e+01   9.259172e+00   2.883632e+01   6.383193e+05  -5.727093e+04   5.869982e+05  -8.045072e+00  -8.966721e+01   5.922442e-21   8.690790e+05   1.474469e-38   0.000000e+00   0.000000e+00
     1896000   1.895999e-05   1.220262e+01   9.254591e+00   2.888328e+01   6.383193e+05  -5.727093e+04   5.869982e+05  -8.315429e+00  -9.268050e+01   8.974784e-23   8.690790e+05   1.575273e-38   0.000000e+00   0.000000e+00
     1904000   1.903999e-05   1.225368e+01   9.250009e+00   2.893024e+01   6.383193e+05  -5.727093e+04   5.869982e+05  -7.716277e+00  -8.600259e+01  -8.362483e-22   8.690790e+05   1.356464e-38   0.000000e+00   0.000000e+00
     1912000   1.911999e-05   1.230475e+01   9.245427e+00   2.897720e+01   6.383193e+05  -5.727093e+04   5.869982e+05  -7.871020e+00  -8.772730e+01  -9.044293e-21   8.690790e+05   1.411408e-38   0.000000e+00   0.000000e+00
     1920000   1.919999e-05   1.235582e+01   9.240846e+00   2.902416e+01   6.383193e+05  -5.727093e+04   5.869982e+05  -6.354169e+00  -7.082107e+01  -1.039019e-20   8.690790e+05   9.198825e-39   0.000000e+00   0.000000e+00
     1928000   1.927999e-05   1.240688e+01   9.236264e+00   2.907112e+01   6.383193e+05  -5.727093e+04   5.869982e+05  -7.434924e+00  -8.286674e+01   7.920271e-22   8.690790e+05   1.259298e-38   0.000000e+00   0.000000e+00
     1936000   1.935999e-05   1.245795e+01   9.231682e+00   2.911808e+01   6.383193e+05  -5.727093e+04   5.869982e+05  -8.009897e+00  -8.927517e+01  -7.487208e-21   8.690790e+05   1.461662e-38   0.000000e+00   0.000000e+00
     1944000   1.943999e-05   1.250901e+01   9.227101e+00   2.916504e+01   6.383193e+05  -5.727093e+04   5.869982e+05  -7.756710e+00  -8.645324e+01  -5.949401e-21   8.690790e+05   1.370770e-38   0.000000e+00   0.000000e+00
     1952000   1.951999e-05   1.256008e+01   9.222519e+00   2.921200e+01   6.383193e+05  -5.727093e+04   5.869982e+05  -6.904851e+00  -7.695875e+01  -1.248984e-20   8.690790e+05   1.086223e-38   0.000000e+00   0.000000e+00
     1960000   1.959999e-05   1.261114e+01   9.217937e+00   2.925896e+01   6.383193e+05  -5.727093e+04   5.869982e+05  -6.211650e+00  -6.923260e+01   4.261342e-21   8.690790e+05   8.790408e-39   0.000000e+00   0.000000e+00
     1968000   1.967999e-05   1.266221e+01   9.213356e+00   2.930592e+01   6.383193e+05  -5.727093e+04   5.869982e+05  -7.034445e+00  -7.840316e+01  -6.109706e-22   8.690790e+05   1.127304e-38   0.000000e+00   0.000000e+00
     1976000   1.975999e-05   1.271327e+01   9.208774e+00   2.935288e+01   6.383193e+05  -5.727093e+04   5.869982e+05  -7.315881e+00  -8.153994e+01   1.104122e-20   8.690790e+05   1.219331e-38   0.000000e+00   0.000000e+00
     1984000   1.983999e-05   1.276434e+01   9.204192e+00   2.939984e+01   6.383193e+05  -5.727093e+04   5.869982e+05  -7.729624e+00  -8.615135e+01   4.131878e-21   8.690790e+05   1.361148e-38   0.000000e+00   0.000000e+00
     1992000   1.991999e-05   1.281541e+01   9.199610e+00   2.944680e+01   6.383193e+05  -5.727093e+04   5.869982e+05  -6.844118e+00  -7.628185e+01   4.981900e-21   8.690790e+05   1.067172e-38   0.000000e+00   0.000000e+00
     2000000   1.999999e-05   1.286647e+01   9.195029e+00   2.949376e+01   6.383193e+05  -5.727093e+04   5.869982e+05  -6.539384e+00  -7.288540e+01   2.942731e-21   8.690790e+05   9.742565e-39   0.000000e+00   0.000000e+00
     2008000   2.007999e-05   1.291754e+01   9.190447e+00   2.954072e+01   6.383193e+05  -5.727093e+04   5.869982e+05  -7.881857e+00  -8.784808e+01  -6.601153e-21   8.690790e+05   1.415286e-38   0.000000e+00   0.000000e+00
     2016000   2.015999e-05   1.296860e+01   9.185865e+00   2.958768e+01   6.383193e+05  -5.727093e+04   5.869982e+05  -8.433714e+00  -9.399886e+01   4.242288e-22   8.690790e+05   1.620411e-38   0.000000e+00   0.000000e+00
     2024000   2.023999e-05   1.301967e+01   9.181284e+00   2.963464e+01   6.383193e+05  -5.727093e+04   5.869982e+05  -7.237058e+00  -8.066141e+01  -1.134153e-21   8.690790e+05   1.193227e-38   0.000000e+00   0.000000e+00
     2032000   2.031999e-05   1.307073e+01   9.176702e+00   2.968160e+01   6.383193e+05  -5.727093e+04   5.869982e+05  -6.945115e+00  -7.740752e+01  -1.102952e-20   8.690790e+05   1.098900e-38   0.000000e+00   0.000000e+00
     2040000   2.039999e-05   1.312180e+01   9.172120e+00   2.972856e+01   6.383193e+05  -5.727093e+04   5.869982e+05  -5.999655e+00  -8.241073e+01  -1.516263e+00   8.690790e+05   1.242482e-38   0.000000e+00   0.000000e+00
     2048000   2.047999e-05   1.317286e+01   9.167539e+00   2.977552e+01   6.383193e+05  -5.727093e+04   5.869982e+05  -6.610437e+00  -1.010023e+02  -2.665987e+00   8.690790e+05   1.865115e-38   0.000000e+00   0.000000e+00
     2056000   2.055999e-05   1.322393e+01   9.162957e+00   2.982248e+01   6.383193e+05  -5.727093e+04   5.869982e+05  -6.901638e+00  -8.183562e+01  -4.793100e-01   8.690790e+05   1.227145e-38   0.000000e+00   0.000000e+00
     2064000   2.063999e-05   1.327499e+01   9.158375e+00   2.986944e+01   6.383193e+05  -5.727093e+04   5.869982e+05  -1.888631e+01  -7.084611e+01   1.362538e+01   8.690790e+05   1.011825e-38   0.000000e+00   0.000000e+00
     2072000   2.071999e-05   1.332606e+01   9.153794e+00   2.991640e+01   6.383193e+05  -5.727093e+04   5.869982e+05  -8.151305e+00  -7.814772e+01   1.239430e+00   8.690790e+05   1.123375e-38   0.000000e+00   0.000000e+00
     2080000   2.079999e-05   1.337713e+01   9.149212e+00   2.996336e+01   6.383193e+05  -5.727093e+04   5.869982e+05  -1.269819e+01  -9.243336e+01   4.790056e+00   8.690790e+05   1.587845e-38   0.000000e+00   0.000000e+00
     2088000   2.087999e-05   1.342819e+01   9.144630e+00   3.001032e+01   6.383193e+05  -5.727093e+04   5.869982e+05  -1.596912e+01  -6.479126e+01   1.104389e+01   8.690790e+05   8.323008e-39   0.000000e+00   0.000000e+00
     2096000   2.095999e-05   1.347926e+01   9.140049e+00   3.005728e+01   6.383193e+05  -5.727093e+04   5.869982e+05  -2.919200e+01  -6.248797e+01   2.564756e+01   8.690790e+05   9.850730e-39   0.000000e+00   0.000000e+00
     2104000   2.103999e-05   1.353032e+01   9.135467e+00   3.010424e+01   6.383193e+05  -5.727093e+04   5.869982e+05  -9.542848e+00  -8.950369e+01   1.644680e+00   8.690790e+05   1.474483e-38   0.000000e+00   0.000000e+00
     2112000   2.111999e-05   1.358139e+01   9.130885e+00   3.015120e+01   6.383193e+05  -5.727093e+04   5.869982e+05  -4.973145e+00  -9.110556e+01  -3.480839e+00   8.690790e+05   1.516760e-38   0.000000e+00   0.000000e+00
     2120000   2.119999e-05   1.363245e+01   9.126304e+00   3.019816e+01   6.383193e+05  -5.727093e+04   5.869982e+05  -4.294897e+00  -5.774246e+01  -9.632893e-01   8.690790e+05   6.101785e-39   0.000000e+00   0.000000e+00
     2128000   2.127999e-05   1.368352e+01   9.121722e+00   3.024512e+01   6.383193e+05  -5.727093e+04   5.869982e+05  -6.594877e+00  -7.350391e+01  -2.930606e-21   8.690790e+05   9.908462e-39   0.000000e+00   0.000000e+00
     2136000   2.135999e-05   1.373458e+01   9.117140e+00   3.029208e+01   6.383193e+05  -5.727093e+04   5.869982e+05  -5.106550e+00  -5.691560e+01   2.835298e-21   8.690790e+05   5.940993e-39   0.000000e+00   0.000000e+00
     2144000   2.143999e-05   1.378565e+01   9.112559e+00   3.033904e+01   6.383193e+05  -5.727093e+04   5.869982e+05  -8.009375e+00  -8.926935e+01   1.297877e-20   8.690790e+05   1.461380e-38   0.000000e+00   0.000000e+00
     2152000   2.151999e-05   1.383672e+01   9.107977e+00   3.038600e+01   6.383193e+05  -5.727093e+04   5.869982e+05  -6.986465e+00  -7.786839e+01  -3.187465e-21   8.690790e+05   1.112040e-38   0.000000e+00   0.000000e+00
     2160000   2.159999e-05   1.388778e+01   9.103395e+00   3.043296e+01   6.383193e+05  -5.727093e+04   5.869982e+05  -7.585092e+00  -8.454045e+01   3.157931e-21   8.690790e+05   1.310723e-38   0.000000e+00   0.000000e+00
     2168000   2.167999e-05   1.393885e+01   9.098814e+00   3.047992e+01   6.383193e+05  -5.727093e+04   5.869982e+05  -7.378434e+00  -8.223712e+01  -4.890681e-21   8.690790e+05   1.240289e-38   0.000000e+00   0.000000e+00
     2176000   2.175999e-05   1.398991e+01   9.094232e+00   3.052688e+01   6.383193e+05  -5.727093e+04   5.869982e+05  -6.450280e+00  -7.189228e+01  -5.411952e-21   8.690790e+05   9.478767e-39   0.000000e+00   0.000000e+00
     2184000   2.183999e-05   1.404098e+01   9.089650e+00   3.057384e+01   6.383193e+05  -5.727093e+04   5.869982e+05  -7.939051e+00  -8.848554e+01  -1.360969e-20   8.690790e+05   1.435913e-38   0.000000e+00   0.000000e+00
     2192000   2.191999e-05   1.409204e+01   9.085069e+00   3.062080e+01   6.383193e+05  -5.727093e+04   5.869982e+05  -4.849685e+00  -5.405268e+01   8.121127e-22   8.690790e+05   5.358559e-39   0.000000e+00   0.000000e+00
     2200000   2.199999e-05   1.414311e+01   9.080487e+00   3.066776e+01   6.383193e+05  -5.727093e+04   5.869982e+05  -8.039166e+00  -8.960138e+01  -8.833071e-21   8.690790e+05   1.472321e-38   0.000000e+00   0.000000e+00
     2208000   2.207999e-05   1.419417e+01   9.075905e+00   3.071472e+01   6.383193e+05  -5.727093e+04   5.869982e+05  -7.847859e+00  -8.746915e+01  -1.813945e-22   8.690790e+05   1.403113e-38   0.000000e+00   0.000000e+00
     2216000   2.215999e-05   1.424524e+01   9.071324e+00   3.076168e+01   6.383193e+05  -5.727093e+04   5.869982e+05  -6.813855e+00  -7.594454e+01  -1.079542e-21   8.690790e+05   1.057764e-38   0.000000e+00   0.000000e+00
     2224000   2.223999e-05   1.429631e+01   9.066742e+00   3.080864e+01   6.383193e+05  -5.727093e+04   5.869982e+05  -9.256228e+00  -1.031663e+02   1.332708e-20   8.690790e+05   1.951881e-38   0.000000e+00   0.000000e+00
     2232000   2.231999e-05   1.434737e+01   9.062160e+00   3.085560e+01   6.383193e+05  -5.727093e+04   5.869982e+05  -6.805895e+00  -7.585583e+01   1.234494e-20   8.690790e+05   1.055305e-38   0.000000e+00   0.000000e+00
     2240000   2.239999e-05   1.439844e+01   9.057579e+00   3.090256e+01   6.383193e+05  -5.727093e+04   5.869982e+05  -6.381978e+00  -7.113101e+01  -6.216232e-21   8.690790e+05   9.279235e-39   0.000000e+00   0.000000e+00
     2248000   2.247999e-05   1.444950e+01   9.052997e+00   3.094952e+01   6.383193e+05  -5.727093e+04   5.869982e+05  -7.598459e+00  -8.468943e+01  -3.276514e-21   8.690790e+05   1.315314e-38   0.000000e+00   0.000000e+00
     2256000   2.255999e-05   1.450057e+01   9.048415e+00   3.099647e+01   6.383193e+05  -5.727093e+04   5.869982e+05  -7.995780e+00  -8.911782e+01  -3.882524e-22   8.690790e+05   1.456567e-38   0.000000e+00   0.000000e+00
     2264000   2.263999e-05   1.455163e+01   9.043834e+00   3.104343e+01   6.383193e+05  -5.727093e+04   5.869982e+05  -5.317256e+00  -5.926404e+01  -3.647238e-21   8.690790e+05   6.441787e-39   0.000000e+00   0.000000e+00
     2272000   2.271999e-05   1.460270e+01   9.039252e+00   3.109039e+01   6.383193e+05  -5.727093e+04   5.869982e+05  -5.967516e+00  -6.651159e+01  -4.294749e-21   8.690790e+05   8.112495e-39   0.000000e+00   0.000000e+00
     2280000   2.279999e-05   1.465376e+01   9.034670e+00   3.113735e+01   6.383193e+05  -5.727093e+04   5.869982e+05  -6.204485e+00  -6.915274e+01  -2.430295e-21   8.690790e+05   8.769895e-39   0.000000e+00   0.000000e+00
     2288000   2.287999e-05   1.470483e+01   9.030089e+00   3.118431e+01   6.383193e+05  -5.727093e+04   5.869982e+05  -7.950820e+00  -8.861671e+01  -5.432230e-21   8.690790e+05   1.440156e-38   0.000000e+00   0.000000e+00
     2296000   2.295999e-05   1.475590e+01   9.025507e+00   3.123127e+01   6.383193e+05  -5.727093e+04   5.869982e+05  -6.050661e+00  -6.743829e+01   8.920189e-21   8.690790e+05   8.341084e-39   0.000000e+00   0.000000e+00
     2304000   2.303999e-05   1.480696e+01   9.020925e+00   3.127823e+01   6.383193e+05  -5.727093e+04   5.869982e+05  -7.062426e+00  -7.871502e+01   8.644630e-21   8.690790e+05   1.136279e-38   0.000000e+00   0.000000e+00
     2312000   2.311999e-05   1.485803e+01   9.016344e+00   3.132519e+01   6.383193e+05  -5.727093e+04   5.869982e+05  -7.065347e+00  -7.874758e+01  -9.965921e-22   8.690790e+05   1.137280e-38   0.000000e+00   0.000000e+00
     2320000   2.319999e-05   1.490909e+01   9.011762e+00   3.137215e+01   6.383193e+05  -5.727093e+04   5.869982e+05  -6.508974e+00  -7.254646e+01  -6.155312e-21   8.690790e+05   9.652498e-39   0.000000e+00   0.000000e+00
     2328000   2.327999e-05   1.496016e+01   9.007180e+00   3.141911e+01   6.383193e+05  -5.727093e+04   5.869982e+05  -6.510232e+00  -7.256048e+01  -7.203691e-21   8.690790e+05   9.655817e-39   0.000000e+00   0.000000e+00
     2336000   2.335999e-05   1.501122e+01   9.002598e+00   3.146607e+01   6.383193e+05  -5.727093e+04   5.869982e+05  -5.770428e+00  -6.431492e+01   3.257250e-21   8.690790e+05   7.585983e-39   0.000000e+00   0.000000e+00
     2344000   2.343999e-05   1.506229e+01   8.998017e+00   3.151303e+01   6.383193e+05  -5.727093e+04   5.869982e+05  -5.312095e+00  -5.920652e+01   3.016367e-22   8.690790e+05   6.428845e-39   0.000000e+00   0.000000e+00
     2352000   2.351999e-05   1.511335e+01   8.993435e+00   3.155999e+01   6.383193e+05  -5.727093e+04   5.869982e+05  -5.707032e+00  -6.360833e+01   8.753308e-21   8.690790e+05   7.420202e-39   0.000000e+00   0.000000e+00
     2360000   2.359999e-05   1.516442e+01   8.988853e+00   3.160695e+01   6.383193e+05  -5.727093e+04   5.869982e+05  -6.882478e+00  -7.670940e+01  -1.117117e-21   8.690790e+05   1.079155e-38   0.000000e+00   0.000000e+00
     2368000   2.367999e-05   1.521549e+01   8.984272e+00   3.165391e+01   6.383193e+05  -5.727093e+04   5.869982e+05  -5.790116e+00  -6.453435e+01  -3.476291e-21   8.690790e+05   7.638129e-39   0.000000e+00   0.000000e+00
     2376000   2.375999e-05   1.526655e+01   8.979690e+00   3.170087e+01   6.383193e+05  -5.727093e+04   5.869982e+05  -6.407544e+00  -7.141597e+01   2.533870e-21   8.690790e+05   9.353382e-39   0.000000e+00   0.000000e+00
     2384000   2.383999e-05   1.531762e+01   8.975108e+00   3.174783e+01   6.383193e+05  -5.727093e+04   5.869982e+05  -6.144103e+00  -6.847975e+01  -1.498988e-21   8.690790e+05   8.600100e-39   0.000000e+00   0.000000e+00
     2392000   2.391999e-05   1.536868e+01   8.970527e+00   3.179479e+01   6.383193e+05  -5.727093e+04   5.869982e+05  -6.595015e+00  -7.350544e+01   5.222618e-21   8.690790e+05   9.908746e-39   0.000000e+00   0.000000e+00
     2400000   2.399999e-05   1.541975e+01   8.965945e+00   3.184175e+01   6.383193e+05  -5.727093e+04   5.869982e+05  -6.924721e+00  -7.718022e+01   1.375148e-21   8.690790e+05   1.092330e-38   0.000000e+00   0.000000e+00
     2408000   2.407999e-05   1.547081e+01   8.961363e+00   3.188871e+01   6.383193e+05  -5.727093e+04   5.869982e+05  -9.814327e+00  -1.093866e+02  -1.609192e-21   8.690790e+05   2.194237e-38   0.000000e+00   0.000000e+00
     2416000   2.415999e-05   1.552188e+01   8.956782e+00   3.193567e+01   6.383193e+05  -5.727093e+04   5.869982e+05  -6.430938e+00  -7.167671e+01   1.909985e-21   8.690790e+05   9.422460e-39   0.000000e+00   0.000000e+00
     2424000   2.423999e-05   1.557294e+01   8.952200e+00   3.198263e+01   6.383193e+05  -5.727093e+04   5.869982e+05  -5.182493e+00  -5.776203e+01   1.033842e-22   8.690790e+05   6.119250e-39   0.000000e+00   0.000000e+00
     2432000   2.431999e-05   1.562401e+01   8.947618e+00   3.202959e+01   6.383193e+05  -5.727093e+04   5.869982e+05  -4.967573e+00  -5.536662e+01   1.975725e-21   8.690790e+05   5.622303e-39   0.000000e+00   0.000000e+00
     2440000   2.439999e-05   1.567508e+01   8.943037e+00   3.207655e+01   6.383193e+05  -5.727093e+04   5.869982e+05  -3.544088e+00  -3.950101e+01  -7.655738e-22   8.690790e+05   2.861852e-39   0.000000e+00   0.000000e+00
     2448000   2.447999e-05   1.572614e+01   8.938455e+00   3.212351e+01   6.383193e+05  -5.727093e+04   5.869982e+05  -5.339736e+00  -5.951460e+01  -8.641425e-21   8.690790e+05   6.495873e-39   0.000000e+00   0.000000e+00
     2456000   2.455999e-05   1.577721e+01   8.933873e+00   3.217047e+01   6.383193e+05  -5.727093e+04   5.869982e+05  -5.173872e+00  -5.766594e+01   7.715753e-22   8.690790e+05   6.098590e-39   0.000000e+00   0.000000e+00
     2464000   2.463999e-05   1.582827e+01   8.929292e+00   3.221743e+01   6.383193e+05  -5.727093e+04   5.869982e+05  -5.187332e+00  -5.781596e+01  -7.823265e-21   8.690790e+05   6.130039e-39   0.000000e+00   0.000000e+00
     2472000   2.471999e-05   1.587934e+01   8.924710e+00   3.226439e+01   6.383193e+05  -5.727093e+04   5.869982e+05  -6.115315e+00  -6.815890e+01  -3.845981e-21   8.690790e+05   8.519534e-39   0.000000e+00   0.000000e+00
     2480000   2.479999e-05   1.593040e+01   8.920128e+00   3.231135e+01   6.383193e+05  -5.727093e+04   5.869982e+05  -4.879887e+00  -5.438931e+01  -1.087218e-21   8.690790e+05   5.424824e-39   0.000000e+00   0.000000e+00
     2488000   2.487999e-05   1.598147e+01   8.915547e+00   3.235831e+01   6.383193e+05  -5.727093e+04   5.869982e+05  -6.161359e+00  -6.867208e+01   3.482563e-21   8.690790e+05   8.648185e-39   0.000000e+00   0.000000e+00
     2496000   2.495999e-05   1.603253e+01   8.910965e+00   3.240527e+01   6.383193e+05  -5.727093e+04   5.869982e+05  -5.831412e+00  -6.499462e+01  -4.019645e-21   8.690790e+05   7.747423e-39   0.000000e+00   0.000000e+00
     2504000   2.503999e-05   1.608360e+01   8.906383e+00   3.245223e+01   6.383193e+05  -5.727093e+04   5.869982e+05  -5.012383e+00  -5.586605e+01   5.274635e-21   8.690790e+05   5.724016e-39   0.000000e+00   0.000000e+00
     2512000   2.511999e-05   1.613467e+01   8.901802e+00   3.249919e+01   6.383193e+05  -5.727093e+04   5.869982e+05  -4.548166e+00  -5.069207e+01   3.157494e-21   8.690790e+05   4.712962e-39   0.000000e+00   0.000000e+00
     2520000   2.519999e-05   1.618573e+01   8.897220e+00   3.254615e+01   6.383193e+05  -5.727093e+04   5.869982e+05  -5.680700e+00  -6.331485e+01   2.742954e-21   8.690790e+05   7.351742e-39   0.000000e+00   0.000000e+00
     2528000   2.527999e-05   1.623680e+01   8.892638e+00   3.259311e+01   6.383193e+05  -5.727093e+04   5.869982e+05  -5.155355e+00  -5.745955e+01   3.658891e-21   8.690790e+05   6.054742e-39   0.000000e+00   0.000000e+00
     2536000   2.535999e-05   1.628786e+01   8.888057e+00   3.264007e+01   6.383193e+05  -5.727093e+04   5.869982e+05  -3.801023e+00  -4.236471e+01  -1.302689e-21   8.690790e+05   3.291404e-39   0.000000e+00   0.000000e+00
     2544000   2.543999e-05   1.633893e+01   8.883475e+00   3.268703e+01   6.383193e+05  -5.727093e+04   5.869982e+05  -4.384039e+00  -4.886278e+01  -6.107769e-22   8.690790e+05   4.378932e-39   0.000000e+00   0.000000e+00
     2552000   2.551999e-05   1.638999e+01   8.878893e+00   3.273399e+01   6.383193e+05  -5.727093e+04   5.869982e+05  -2.404973e+00  -2.680489e+01   2.886070e-22   8.690790e+05   1.317863e-39   0.000000e+00   0.000000e+00
     2560000   2.559999e-05   1.644106e+01   8.874312e+00   3.278095e+01   6.383193e+05  -5.727093e+04   5.869982e+05  -6.985245e+00  -7.785479e+01  -9.681270e-21   8.690790e+05   1.111553e-38   0.000000e+00   0.000000e+00
     2568000   2.567999e-05   1.649212e+01   8.869730e+00   3.282791e+01   6.383193e+05  -5.727093e+04   5.869982e+05  -6.506230e-01  -7.251589e+00  -6.106580e-22   8.690790e+05   9.649942e-41   0.000000e+00   0.000000e+00
     2576000   2.575999e-05   1.654319e+01   8.865148e+00   3.287487e+01   6.383193e+05  -5.727093e+04   5.869982e+05  -5.272101e+00  -5.876077e+01  -7.222303e-21   8.690790e+05   6.331937e-39   0.000000e+00   0.000000e+00
     2584000   2.583999e-05   1.659426e+01   8.860567e+00   3.292183e+01   6.383193e+05  -5.727093e+04   5.869982e+05  -6.818089e-01  -7.599174e+00  -1.363788e-21   8.690790e+05   1.060096e-40   0.000000e+00   0.000000e+00
     2592000   2.591999e-05   1.664532e+01   8.855985e+00   3.296879e+01   6.383193e+05  -5.727093e+04   5.869982e+05  -5.952826e+00  -6.634786e+01   8.350887e-22   8.690790e+05   8.072521e-39   0.000000e+00   0.000000e+00
     2600000   2.599999e-05   1.669639e+01   8.851403e+00   3.301575e+01   6.383193e+05  -5.727093e+04   5.869982e+05  -6.732454e+00  -7.503729e+01  -5.214033e-21   8.690790e+05   1.032588e-38   0.000000e+00   0.000000e+00
     2608000   2.607999e-05   1.674745e+01   8.846822e+00   3.306271e+01   6.383193e+05  -5.727093e+04   5.869982e+05  -3.261105e+00  -3.634699e+01  -3.975768e-21   8.690790e+05   2.422979e-39   0.000000e+00   0.000000e+00
     2616000   2.615999e-05   1.679852e+01   8.842240e+00   3.310967e+01   6.383193e+05  -5.727093e+04   5.869982e+05  -1.916490e+00  -2.136044e+01  -1.919051e-21   8.690790e+05   8.369245e-40   0.000000e+00   0.000000e+00
     2624000   2.623999e-05   1.684958e+01   8.837658e+00   3.315663e+01   6.383193e+05  -5.727093e+04   5.869982e+05  -3.883860e+00  -4.328797e+01  -1.340492e-21   8.690790e+05   3.436346e-39   0.000000e+00   0.000000e+00
     2632000   2.631999e-05   1.690065e+01   8.833077e+00   3.320359e+01   6.383193e+05  -5.727093e+04   5.869982e+05  -3.288109e+00  -3.664797e+01  -1.587729e-21   8.690790e+05   2.463087e-39   0.000000e+00   0.000000e+00
     2640000   2.639999e-05   1.695171e+01   8.828495e+00   3.325055e+01   6.383193e+05  -5.727093e+04   5.869982e+05  -3.505302e+00  -3.906872e+01   3.001750e-21   8.690790e+05   2.799231e-39   0.000000e+00   0.000000e+00
     2648000   2.647999e-05   1.700278e+01   8.823913e+00   3.329751e+01   6.383193e+05  -5.727093e+04   5.869982e+05  -5.401359e+00  -6.020142e+01  -1.698695e-21   8.690790e+05   6.646207e-39   0.000000e+00   0.000000e+00
     2656000   2.655999e-05   1.705384e+01   8.819332e+00   3.334447e+01   6.383193e+05  -5.727093e+04   5.869982e+05  -2.692976e+00  -3.001486e+01  -1.307281e-21   8.690790e+05   1.652505e-39   0.000000e+00   0.000000e+00
     2664000   2.663999e-05   1.710491e+01   8.814750e+00   3.339143e+01   6.383193e+05  -5.727093e+04   5.869982e+05  -3.146792e+00  -3.507291e+01  -3.355291e-21   8.690790e+05   2.256078e-39   0.000000e+00   0.000000e+00
     2672000   2.671999e-05   1.715598e+01   8.810168e+00   3.343839e+01   6.383193e+05  -5.727093e+04   5.869982e+05  -2.655209e+00  -2.959392e+01   1.722249e-21   8.690790e+05   1.606271e-39   0.000000e+00   0.000000e+00
     2680000   2.679999e-05   1.720704e+01   8.805586e+00   3.348535e+01   6.383193e+05  -5.727093e+04   5.869982e+05  -1.113310e+00  -1.240852e+01   1.293233e-22   8.690790e+05   2.824625e-40   0.000000e+00   0.000000e+00
     2688000   2.687999e-05   1.725811e+01   8.801005e+00   3.353231e+01   6.383193e+05  -5.727093e+04   5.869982e+05  -2.296372e+00  -2.559446e+01  -7.256672e-22   8.690790e+05   1.201225e-39   0.000000e+00   0.000000e+00
     2696000   2.695999e-05   1.730917e+01   8.796423e+00   3.357927e+01   6.383193e+05  -5.727093e+04   5.869982e+05  -2.494705e+00  -2.780500e+01   2.636179e-21   8.690790e+05   1.417802e-39   0.000000e+00   0.000000e+00
     2704000   2.703999e-05   1.736024e+01   8.791841e+00   3.362623e+01   6.383193e+05  -5.727093e+04   5.869982e+05  -1.429001e+00  -1.592708e+01  -4.593529e-22   8.690790e+05   4.651933e-40   0.000000e+00   0.000000e+00
     2712000   2.711999e-05   1.741130e+01   8.787260e+00   3.367319e+01   6.383193e+05  -5.727093e+04   5.869982e+05  -2.579966e+00  -2.875529e+01  -2.372634e-21   8.690790e+05   1.516493e-39   0.000000e+00   0.000000e+00
     2720000   2.719999e-05   1.746237e+01   8.782678e+00   3.372015e+01   6.383193e+05  -5.727093e+04   5.869982e+05  -3.414076e+00  -3.805195e+01   5.934691e-22   8.690790e+05   2.655403e-39   0.000000e+00   0.000000e+00
     2728000   2.727999e-05   1.751343e+01   8.778096e+00   3.376711e+01   6.383193e+05  -5.727093e+04   5.869982e+05  -1.523379e+00  -1.697899e+01  -1.830583e-23   8.690790e+05   5.287336e-40   0.000000e+00   0.000000e+00
     2736000   2.735999e-05   1.756450e+01   8.773515e+00   3.381407e+01   6.383193e+05  -5.727093e+04   5.869982e+05  -1.046814e+00  -1.166737e+01  -5.013448e-22   8.690790e+05   2.496385e-40   0.000000e+00   0.000000e+00
     2744000   2.743999e-05   1.761557e+01   8.768933e+00   3.386103e+01   6.383193e+05  -5.727093e+04   5.869982e+05  -2.778232e+00  -3.096508e+01   1.909419e-23   8.690790e+05   1.758408e-39   0.000000e+00   0.000000e+00
     2752000   2.751999e-05   1.766663e+01   8.764351e+00   3.390799e+01   6.383193e+05  -5.727093e+04   5.869982e+05  -9.306812e-01  -1.037301e+01   6.312968e-22   8.690790e+05   1.973677e-40   0.000000e+00   0.000000e+00
     2760000   2.759999e-05   1.771770e+01   8.759770e+00   3.395495e+01   6.383193e+05  -5.727093e+04   5.869982e+05  -1.983213e+00  -2.210412e+01   6.596689e-22   8.690790e+05   8.959787e-40   0.000000e+00   0.000000e+00
     2768000   2.767999e-05   1.776876e+01   8.755188e+00   3.400191e+01   6.383193e+05  -5.727093e+04   5.869982e+05  -8.973465e-01  -1.000147e+01  -1.015654e-21   8.690790e+05   1.834400e-40   0.000000e+00   0.000000e+00
     2776000   2.775999e-05   1.781983e+01   8.750606e+00   3.404887e+01   6.383193e+05  -5.727093e+04   5.869982e+05  -1.453914e+00  -1.620475e+01   7.995692e-22   8.690790e+05   4.816520e-40   0.000000e+00   0.000000e+00
     2784000   2.783999e-05   1.787089e+01   8.746025e+00   3.409583e+01   6.383193e+05  -5.727093e+04   5.869982e+05  -6.295477e-01  -7.016691e+00   9.693980e-24   8.690790e+05   9.032211e-41   0.000000e+00   0.000000e+00
     2792000   2.791999e-05   1.792196e+01   8.741443e+00   3.414279e+01   6.383193e+05  -5.727093e+04   5.869982e+05  -5.728249e-01  -6.384481e+00   2.425798e-22   8.690790e+05   7.473510e-41   0.000000e+00   0.000000e+00
     2800000   2.799999e-05   1.797302e+01   8.736861e+00   3.418974e+01   6.383193e+05  -5.727093e+04   5.869982e+05  -1.172696e+00  -1.307041e+01   2.176054e-22   8.690790e+05   3.132637e-40   0.000000e+00   0.000000e+00
     2808000   2.807999e-05   1.802409e+01   8.732280e+00   3.423670e+01   6.383193e+05  -5.727093e+04   5.869982e+05  -2.943559e-01  -3.280775e+00  -6.180060e-24   8.690790e+05   1.974966e-41   0.000000e+00   0.000000e+00
     2816000   2.815999e-05   1.807516e+01   8.727698e+00   3.428366e+01   6.383193e+05  -5.727093e+04   5.869982e+05   3.011636e-01   3.356652e+00  -2.231623e-22   8.690790e+05   2.065309e-41   0.000000e+00   0.000000e+00
     2824000   2.823999e-05   1.812622e+01   8.723116e+00   3.433062e+01   6.383193e+05  -5.727093e+04   5.869982e+05   8.903490e-01   9.923479e+00   8.205608e-22   8.690790e+05   1.806303e-40   0.000000e+00   0.000000e+00
     2832000   2.831999e-05   1.817729e+01   8.718535e+00   3.437758e+01   6.383193e+05  -5.727093e+04   5.869982e+05   2.703780e-01   3.013527e+00   1.047904e-22   8.690790e+05   1.666427e-41   0.000000e+00   0.000000e+00
     2840000   2.839999e-05   1.822835e+01   8.713953e+00   3.442454e+01   6.383193e+05  -5.727093e+04   5.869982e+05  -4.228814e-01  -4.713270e+00  -2.962933e-22   8.690790e+05   4.079586e-41   0.000000e+00   0.000000e+00
     2848000   2.847999e-05   1.827942e+01   8.709371e+00   3.447150e+01   6.383193e+05  -5.727093e+04   5.869982e+05   1.853739e+00   2.066105e+01   4.420547e-22   8.690790e+05   7.826335e-40   0.000000e+00   0.000000e+00
     2856000   2.855999e-05   1.833048e+01   8.704790e+00   3.451846e+01   6.383193e+05  -5.727093e+04   5.869982e+05  -2.803187e-01  -3.124322e+00  -9.700017e-23   8.690790e+05   1.794421e-41   0.000000e+00   0.000000e+00
     2864000   2.863999e-05   1.838155e+01   8.700208e+00   3.456542e+01   6.383193e+05  -5.727093e+04   5.869982e+05   2.368831e+00   2.640206e+01   7.899956e-22   8.690790e+05   1.278031e-39   0.000000e+00   0.000000e+00
     2872000   2.871999e-05   1.843261e+01   8.695626e+00   3.461238e+01   6.383193e+05  -5.727093e+04   5.869982e+05  -4.668760e-01  -5.203617e+00  -1.427241e-22   8.690790e+05   4.959321e-41   0.000000e+00   0.000000e+00
     2880000   2.879999e-05   1.848368e+01   8.691045e+00   3.465934e+01   6.383193e+05  -5.727093e+04   5.869982e+05  -2.940819e+00  -3.277721e+01  -7.145209e-22   8.690790e+05   1.969881e-39   0.000000e+00   0.000000e+00
     2888000   2.887999e-05   1.853475e+01   8.686463e+00   3.470630e+01   6.383193e+05  -5.727093e+04   5.869982e+05   3.384228e+00   3.771927e+01  -1.414180e-21   8.690790e+05   2.609191e-39   0.000000e+00   0.000000e+00
     2896000   2.895999e-05   1.858581e+01   8.681881e+00   3.475326e+01   6.383193e+05  -5.727093e+04   5.869982e+05   3.626665e+00   4.042138e+01  -3.288711e-21   8.690790e+05   2.996416e-39   0.000000e+00   0.000000e+00
     2904000   2.903999e-05   1.863688e+01   8.677300e+00   3.480022e+01   6.383193e+05  -5.727093e+04   5.869982e+05   9.622020e-01   1.072433e+01  -9.466419e-22   8.690790e+05   2.110020e-40   0.000000e+00   0.000000e+00
     2912000   2.911999e-05   1.868794e+01   8.672718e+00   3.484718e+01   6.383193e+05  -5.727093e+04   5.869982e+05  -4.502549e-01  -5.018364e+00   4.088312e-22   8.690790e+05   4.614991e-41   0.000000e+00   0.000000e+00
     2920000   2.919999e-05   1.873901e+01   8.668136e+00   3.489414e+01   6.383193e+05  -5.727093e+04   5.869982e+05   2.660538e+00   2.965331e+01  -1.457863e-21   8.690790e+05   1.612352e-39   0.000000e+00   0.000000e+00
     2928000   2.927999e-05   1.879007e+01   8.663555e+00   3.494110e+01   6.383193e+05  -5.727093e+04   5.869982e+05   1.393399e+00   1.553028e+01  -7.839319e-22   8.690790e+05   4.423012e-40   0.000000e+00   0.000000e+00
     2936000   2.935999e-05   1.884114e+01   8.658973e+00   3.498806e+01   6.383193e+05  -5.727093e+04   5.869982e+05   3.866273e+00   4.309196e+01  -2.199413e-22   8.690790e+05   3.405258e-39   0.000000e+00   0.000000e+00
     2944000   2.943999e-05   1.889220e+01   8.654391e+00   3.503502e+01   6.383193e+05  -5.727093e+04   5.869982e+05   3.005061e+00   3.349323e+01   7.604907e-22   8.690790e+05   2.057258e-39   0.000000e+00   0.000000e+00
     2952000   2.951999e-05   1.894327e+01   8.649810e+00   3.508198e+01   6.383193e+05  -5.727093e+04   5.869982e+05   3.245828e+00   3.617672e+01  -2.373870e-21   8.690790e+05   2.400170e-39   0.000000e+00   0.000000e+00
     2960000   2.959999e-05   1.899434e+01   8.645228e+00   3.512894e+01   6.383193e+05  -5.727093e+04   5.869982e+05  -2.611814e-01  -2.911025e+00   2.113761e-22   8.690790e+05   1.552276e-41   0.000000e+00   0.000000e+00
     2968000   2.967999e-05   1.904540e+01   8.640646e+00   3.517590e+01   6.383193e+05  -5.727093e+04   5.869982e+05   5.065258e+00   5.645538e+01   3.217888e-21   8.690790e+05   5.844525e-39   0.000000e+00   0.000000e+00
     2976000   2.975999e-05   1.909647e+01   8.636065e+00   3.522286e+01   6.383193e+05  -5.727093e+04   5.869982e+05   2.170251e+00   2.418877e+01   3.152193e-21   8.690790e+05   1.073089e-39   0.000000e+00   0.000000e+00
     2984000   2.983999e-05   1.914753e+01   8.631483e+00   3.526982e+01   6.383193e+05  -5.727093e+04   5.869982e+05   4.502329e+00   5.018119e+01   2.154313e-21   8.690790e+05   4.618044e-39   0.000000e+00   0.000000e+00
     2992000   2.991999e-05   1.919860e+01   8.626901e+00   3.531678e+01   6.383193e+05  -5.727093e+04   5.869982e+05   2.526876e+00   2.816356e+01   3.315884e-21   8.690790e+05   1.454756e-39   0.000000e+00   0.000000e+00
     3000000   2.999999e-05   1.924966e+01   8.622320e+00   3.536374e+01   6.383193e+05  -5.727093e+04   5.869982e+05   4.450095e+00   4.959901e+01   9.765304e-21   8.690790e+05   4.511433e-39   0.000000e+00   0.000000e+00
     3008000   3.007999e-05   1.930073e+01   8.617738e+00   3.541070e+01   6.383193e+05  -5.727093e+04   5.869982e+05   1.857860e+00   2.070698e+01   6.709950e-22   8.690790e+05   7.860071e-40   0.000000e+00   0.000000e+00
     3016000   3.015999e-05   1.935179e+01   8.613156e+00   3.545766e+01   6.383193e+05  -5.727093e+04   5.869982e+05   5.177922e+00   5.771109e+01   3.283872e-21   8.690790e+05   6.107114e-39   0.000000e+00   0.000000e+00
     3024000   3.023999e-05   1.940286e+01   8.608574e+00   3.550462e+01   6.383193e+05  -5.727093e+04   5.869982e+05   3.369606e+00   3.755630e+01   1.323413e-21   8.690790e+05   2.586275e-39   0.000000e+00   0.000000e+00
     3032000   3.031999e-05   1.945393e+01   8.603993e+00   3.555158e+01   6.383193e+05  -5.727093e+04   5.869982e+05   5.788600e+00   6.451746e+01  -1.679084e-21   8.690790e+05   7.633019e-39   0.000000e+00   0.000000e+00
     3040000   3.039999e-05   1.950499e+01   8.599411e+00   3.559854e+01   6.383193e+05  -5.727093e+04   5.869982e+05   5.292777e+00   5.899121e+01   2.717647e-21   8.690790e+05   6.382467e-39   0.000000e+00   0.000000e+00
     3048000   3.047999e-05   1.955606e+01   8.594829e+00   3.564550e+01   6.383193e+05  -5.727093e+04   5.869982e+05   7.112559e+00   7.927379e+01   6.254439e-22   8.690790e+05   1.152508e-38   0.000000e+00   0.000000e+00
     3056000   3.055999e-05   1.960712e+01   8.590248e+00   3.569246e+01   6.383193e+05  -5.727093e+04   5.869982e+05   3.920652e+00   4.369805e+01  -5.144458e-22   8.690790e+05   3.502087e-39   0.000000e+00   0.000000e+00
     3064000   3.063999e-05   1.965819e+01   8.585666e+00   3.573942e+01   6.383193e+05  -5.727093e+04   5.869982e+05   4.303308e+00   4.796298e+01  -3.607594e-21   8.690790e+05   4.218738e-39   0.000000e+00   0.000000e+00
     3072000   3.071999e-05   1.970925e+01   8.581084e+00   3.578638e+01   6.383193e+05  -5.727093e+04   5.869982e+05   4.265547e+00   4.754211e+01   8.787987e-22   8.690790e+05   4.145180e-39   0.000000e+00   0.000000e+00
     3080000   3.079999e-05   1.976032e+01   8.576503e+00   3.583334e+01   6.383193e+05  -5.727093e+04   5.869982e+05   1.996802e+00   2.225556e+01  -1.165299e-21   8.690790e+05   9.084231e-40   0.000000e+00   0.000000e+00
     3088000   3.087999e-05   1.981138e+01   8.571921e+00   3.588030e+01   6.383193e+05  -5.727093e+04   5.869982e+05   6.391509e+00   7.123725e+01  -6.374262e-21   8.690790e+05   9.306438e-39   0.000000e+00   0.000000e+00
     3096000   3.095999e-05   1.986245e+01   8.567339e+00   3.592726e+01   6.383193e+05  -5.727093e+04   5.869982e+05   8.482513e+00   9.454275e+01  -1.303059e-20   8.690790e+05   1.639161e-38   0.000000e+00   0.000000e+00
     3104000   3.103999e-05   1.991352e+01   8.562758e+00   3.597422e+01   6.383193e+05  -5.727093e+04   5.869982e+05   4.791203e+00   5.340087e+01  -2.386059e-21   8.690790e+05   5.230269e-39   0.000000e+00   0.000000e+00
     3112000   3.111999e-05   1.996458e+01   8.558176e+00   3.602118e+01   6.383193e+05  -5.727093e+04   5.869982e+05   7.008643e+00   7.811558e+01   4.183614e-21   8.690790e+05   1.119035e-38   0.000000e+00   0.000000e+00
     3120000   3.119999e-05   2.001565e+01   8.553594e+00   3.606814e+01   6.383193e+05  -5.727093e+04   5.869982e+05   6.167806e+00   6.874394e+01  -9.415122e-21   8.690790e+05   8.667126e-39   0.000000e+00   0.000000e+00
     3128000   3.127999e-05   2.006671e+01   8.549013e+00   3.611510e+01   6.383193e+05  -5.727093e+04   5.869982e+05   4.933866e+00   5.499093e+01  -3.719988e-21   8.690790e+05   5.545688e-39   0.000000e+00   0.000000e+00
     3136000   3.135999e-05   2.011778e+01   8.544431e+00   3.616206e+01   6.383193e+05  -5.727093e+04   5.869982e+05   6.260178e+00   6.977348e+01  -8.903402e-21   8.690790e+05   8.928212e-39   0.000000e+00   0.000000e+00
     3144000   3.143999e-05   2.016884e+01   8.539849e+00   3.620902e+01   6.383193e+05  -5.727093e+04   5.869982e+05   4.681365e+00   5.217665e+01   7.804634e-21   8.690790e+05   4.992975e-39   0.000000e+00   0.000000e+00
     3152000   3.151999e-05   2.021991e+01   8.535268e+00   3.625598e+01   6.383193e+05  -5.727093e+04   5.869982e+05   6.262217e+00   6.979621e+01   5.104967e-21   8.690790e+05   8.933849e-39   0.000000e+00   0.000000e+00
     3160000   3.159999e-05   2.027097e+01   8.530686e+00   3.630294e+01   6.383193e+05  -5.727093e+04   5.869982e+05   7.235465e+00   8.064364e+01  -3.801200e-22   8.690790e+05   1.192650e-38   0.000000e+00   0.000000e+00
     3168000   3.167999e-05   2.032204e+01   8.526104e+00   3.634990e+01   6.383193e+05  -5.727093e+04   5.869982e+05   7.168717e+00   7.989970e+01  -5.002478e-21   8.690790e+05   1.170819e-38   0.000000e+00   0.000000e+00
     3176000   3.175999e-05   2.037311e+01   8.521523e+00   3.639686e+01   6.383193e+05  -5.727093e+04   5.869982e+05   6.369346e+00   7.099022e+01   2.572182e-21   8.690790e+05   9.242678e-39   0.000000e+00   0.000000e+00
     3184000   3.183999e-05   2.042417e+01   8.516941e+00   3.644382e+01   6.383193e+05  -5.727093e+04   5.869982e+05   7.059462e+00   7.868199e+01  -1.057652e-21   8.690790e+05   1.135474e-38   0.000000e+00   0.000000e+00
     3192000   3.191999e-05   2.047524e+01   8.512359e+00   3.649078e+01   6.383193e+05  -5.727093e+04   5.869982e+05   4.497665e+00   5.012921e+01  -4.232146e-21   8.690790e+05   4.609254e-39   0.000000e+00   0.000000e+00
     3200000   3.199999e-05   2.052630e+01   8.507778e+00   3.653774e+01   6.383193e+05  -5.727093e+04   5.869982e+05   7.682866e+00   8.563020e+01   4.067593e-21   8.690790e+05   1.344863e-38   0.000000e+00   0.000000e+00
     3208000   3.207999e-05   2.057737e+01   8.503196e+00   3.658470e+01   6.383193e+05  -5.727093e+04   5.869982e+05   5.072339e+00   5.653430e+01  -3.298806e-21   8.690790e+05   5.862287e-39   0.000000e+00   0.000000e+00
     3216000   3.215999e-05   2.062843e+01   8.498614e+00   3.663166e+01   6.383193e+05  -5.727093e+04   5.869982e+05   5.829690e+00   6.497543e+01  -2.179079e-21   8.690790e+05   7.742281e-39   0.000000e+00   0.000000e+00
     3224000   3.223999e-05   2.067950e+01   8.494033e+00   3.667862e+01   6.383193e+05  -5.727093e+04   5.869982e+05   6.717551e+00   7.487118e+01  -4.332582e-22   8.690790e+05   1.028021e-38   0.000000e+00   0.000000e+00
     3232000   3.231999e-05   2.073056e+01   8.489451e+00   3.672558e+01   6.383193e+05  -5.727093e+04   5.869982e+05   1.069302e+01   1.191802e+02   5.510096e-22   8.690790e+05   2.604800e-38   0.000000e+00   0.000000e+00
     3240000   3.239999e-05   2.078163e+01   8.484869e+00   3.677254e+01   6.383193e+05  -5.727093e+04   5.869982e+05   1.275592e+01   1.421725e+02  -8.767633e-21   8.690790e+05   3.706813e-38   0.000000e+00   0.000000e+00
     3248000   3.247999e-05   2.083270e+01   8.480288e+00   3.681950e+01   6.383193e+05  -5.727093e+04   5.869982e+05   9.957233e+00   1.109794e+02  -2.018457e-21   8.690790e+05   2.258714e-38   0.000000e+00   0.000000e+00
     3256000   3.255999e-05   2.088376e+01   8.475706e+00   3.686646e+01   6.383193e+05  -5.727093e+04   5.869982e+05   1.093385e+01   1.218644e+02   1.941196e-21   8.690790e+05   2.723522e-38   0.000000e+00   0.000000e+00
     3264000   3.263999e-05   2.093483e+01   8.471124e+00   3.691342e+01   6.383193e+05  -5.727093e+04   5.869982e+05   9.263586e+00   1.032483e+02   5.652368e-21   8.690790e+05   1.954960e-38   0.000000e+00   0.000000e+00
     3272000   3.271999e-05   2.098589e+01   8.466543e+00   3.696038e+01   6.383193e+05  -5.727093e+04   5.869982e+05   1.052966e+01   1.173594e+02   1.424078e-21   8.690790e+05   2.525864e-38   0.000000e+00   0.000000e+00
     3280000   3.279999e-05   2.103696e+01   8.461961e+00   3.700734e+01   6.383193e+05  -5.727093e+04   5.869982e+05   1.083494e+01   1.207620e+02   5.991388e-21   8.690790e+05   2.674535e-38   0.000000e+00   0.000000e+00
     3288000   3.287999e-05   2.108802e+01   8.457379e+00   3.705430e+01   6.383193e+05  -5.727093e+04   5.869982e+05   1.076720e+01   1.200070e+02   9.219406e-21   8.690790e+05   2.641199e-38   0.000000e+00   0.000000e+00
     3296000   3.295999e-05   2.113909e+01   8.452798e+00   3.710126e+01   6.383193e+05  -5.727093e+04   5.869982e+05   9.664844e+00   1.077205e+02  -6.785386e-21   8.690790e+05   2.128067e-38   0.000000e+00   0.000000e+00
     3304000   3.303999e-05   2.119015e+01   8.448216e+00   3.714822e+01   6.383193e+05  -5.727093e+04   5.869982e+05   9.567863e+00   1.066396e+02  -1.352976e-20   8.690790e+05   2.085574e-38   0.000000e+00   0.000000e+00
     3312000   3.311999e-05   2.124122e+01   8.443634e+00   3.719518e+01   6.383193e+05  -5.727093e+04   5.869982e+05   1.012527e+01   1.128522e+02  -7.614254e-21   8.690790e+05   2.335594e-38   0.000000e+00   0.000000e+00
     3320000   3.319999e-05   2.129228e+01   8.439053e+00   3.724214e+01   6.383193e+05  -5.727093e+04   5.869982e+05   1.028718e+01   1.146569e+02   9.539393e-21   8.690790e+05   2.410918e-38   0.000000e+00   0.000000e+00
     3328000   3.327999e-05   2.134335e+01   8.434471e+00   3.728910e+01   6.383193e+05  -5.727093e+04   5.869982e+05   8.891990e+00   9.910662e+01   1.969869e-21   8.690790e+05   1.801408e-38   0.000000e+00   0.000000e+00
     3336000   3.335999e-05   2.139442e+01   8.429889e+00   3.733606e+01   6.383193e+05  -5.727093e+04   5.869982e+05   9.927326e+00   1.106461e+02  -7.576810e-22   8.690790e+05   2.245224e-38   0.000000e+00   0.000000e+00
     3344000   3.343999e-05   2.144548e+01   8.425308e+00   3.738301e+01   6.383193e+05  -5.727093e+04   5.869982e+05   9.406102e+00   1.048367e+02   9.338477e-21   8.690790e+05   2.015652e-38   0.000000e+00   0.000000e+00
     3352000   3.351999e-05   2.149655e+01   8.420726e+00   3.742997e+01   6.383193e+05  -5.727093e+04   5.869982e+05   1.330546e+01   1.482974e+02   1.038438e-20   8.690790e+05   4.033058e-38   0.000000e+00   0.000000e+00
     3360000   3.359999e-05   2.154761e+01   8.416144e+00   3.747693e+01   6.383193e+05  -5.727093e+04   5.869982e+05   9.461534e+00   1.054545e+02  -5.755040e-21   8.690790e+05   2.039573e-38   0.000000e+00   0.000000e+00
     3368000   3.367999e-05   2.159868e+01   8.411562e+00   3.752389e+01   6.383193e+05  -5.727093e+04   5.869982e+05   1.357273e+01   1.512763e+02  -1.811619e-21   8.690790e+05   4.196730e-38   0.000000e+00   0.000000e+00
     3376000   3.375999e-05   2.164974e+01   8.406981e+00   3.757085e+01   6.383193e+05  -5.727093e+04   5.869982e+05   1.013217e+01   1.129292e+02  -1.859602e-21   8.690790e+05   2.338955e-38   0.000000e+00   0.000000e+00
     3384000   3.383999e-05   2.170081e+01   8.402399e+00   3.761781e+01   6.383193e+05  -5.727093e+04   5.869982e+05   1.244074e+01   1.386596e+02  -7.177588e-22   8.690790e+05   3.526165e-38   0.000000e+00   0.000000e+00
     3392000   3.391999e-05   2.175187e+01   8.397817e+00   3.766477e+01   6.383193e+05  -5.727093e+04   5.869982e+05   1.484408e+01   1.654463e+02   3.320969e-21   8.690790e+05   5.019801e-38   0.000000e+00   0.000000e+00
     3400000   3.399999e-05   2.180294e+01   8.393236e+00   3.771173e+01   6.383193e+05  -5.727093e+04   5.869982e+05   1.235946e+01   1.377537e+02   5.422532e-21   8.690790e+05   3.480164e-38   0.000000e+00   0.000000e+00
     3408000   3.407999e-05   2.185401e+01   8.388654e+00   3.775869e+01   6.383193e+05  -5.727093e+04   5.869982e+05   1.168706e+01   1.302594e+02   3.613793e-21   8.690790e+05   3.111799e-38   0.000000e+00   0.000000e+00
     3416000   3.415999e-05   2.190507e+01   8.384072e+00   3.780565e+01   6.383193e+05  -5.727093e+04   5.869982e+05   1.288059e+01   1.435619e+02   4.681107e-22   8.690790e+05   3.779761e-38   0.000000e+00   0.000000e+00
     3424000   3.423999e-05   2.195614e+01   8.379491e+00   3.785261e+01   6.383193e+05  -5.727093e+04   5.869982e+05   1.304639e+01   1.454100e+02   5.512860e-21   8.690790e+05   3.877699e-38   0.000000e+00   0.000000e+00
     3432000   3.431999e-05   2.200720e+01   8.374909e+00   3.789957e+01   6.383193e+05  -5.727093e+04   5.869982e+05   1.176263e+01   1.311017e+02  -1.025863e-21   8.690790e+05   3.152002e-38   0.000000e+00   0.000000e+00
     3440000   3.439999e-05   2.205827e+01   8.370327e+00   3.794653e+01   6.383193e+05  -5.727093e+04   5.869982e+05   1.034762e+01   1.153305e+02  -2.020805e-21   8.690790e+05   2.439364e-38   0.000000e+00   0.000000e+00
     3448000   3.447999e-05   2.210933e+01   8.365746e+00   3.799349e+01   6.383193e+05  -5.727093e+04   5.869982e+05   1.181797e+01   1.317184e+02   8.636180e-21   8.690790e+05   3.181895e-38   0.000000e+00   0.000000e+00
     3456000   3.455999e-05   2.216040e+01   8.361164e+00   3.804045e+01   6.383193e+05  -5.727093e+04   5.869982e+05   1.588819e+01   1.770836e+02  -9.423874e-21   8.690790e+05   5.750760e-38   0.000000e+00   0.000000e+00
     3464000   3.463999e-05   2.221146e+01   8.356582e+00   3.808741e+01   6.383193e+05  -5.727093e+04   5.869982e+05   1.061761e+01   1.183397e+02  -1.059824e-20   8.690790e+05   2.568514e-38   0.000000e+00   0.000000e+00
     3472000   3.471999e-05   2.226253e+01   8.352001e+00   3.813437e+01   6.383193e+05  -5.727093e+04   5.869982e+05   1.282750e+01   1.429702e+02   5.074012e-21   8.690790e+05   3.748726e-38   0.000000e+00   0.000000e+00
     3480000   3.479999e-05   2.231360e+01   8.347419e+00   3.818133e+01   6.383193e+05  -5.727093e+04   5.869982e+05   1.230063e+01   1.370980e+02  -1.124604e-21   8.690790e+05   3.446932e-38   0.000000e+00   0.000000e+00
     3488000   3.487999e-05   2.236466e+01   8.342837e+00   3.822829e+01   6.383193e+05  -5.727093e+04   5.869982e+05   1.426508e+01   1.589930e+02  -5.554442e-21   8.690790e+05   4.635836e-38   0.000000e+00   0.000000e+00
     3496000   3.495999e-05   2.241573e+01   8.338256e+00   3.827525e+01   6.383193e+05  -5.727093e+04   5.869982e+05   1.315885e+01   1.466634e+02   9.182705e-21   8.690790e+05   3.944965e-38   0.000000e+00   0.000000e+00
     3504000   3.503999e-05   2.246679e+01   8.333674e+00   3.832221e+01   6.383193e+05  -5.727093e+04   5.869982e+05   1.149055e+01   1.280691e+02  -5.127686e-21   8.690790e+05   3.008120e-38   0.000000e+00   0.000000e+00
     3512000   3.511999e-05   2.251786e+01   8.329092e+00   3.836917e+01   6.383193e+05  -5.727093e+04   5.869982e+05   1.267794e+01   1.413033e+02  -1.681541e-21   8.690790e+05   3.661616e-38   0.000000e+00   0.000000e+00
     3520000   3.519999e-05   2.256892e+01   8.324511e+00   3.841613e+01   6.383193e+05  -5.727093e+04   5.869982e+05   1.592546e+01   1.774989e+02   8.781081e-22   8.690790e+05   5.777746e-38   0.000000e+00   0.000000e+00
     3528000   3.527999e-05   2.261999e+01   8.319929e+00   3.846309e+01   6.383193e+05  -5.727093e+04   5.869982e+05   1.472625e+01   1.641330e+02   5.178360e-21   8.690790e+05   4.940792e-38   0.000000e+00   0.000000e+00
     3536000   3.535999e-05   2.267105e+01   8.315347e+00   3.851005e+01   6.383193e+05  -5.727093e+04   5.869982e+05   1.444355e+01   1.609821e+02  -1.108851e-20   8.690790e+05   4.752697e-38   0.000000e+00   0.000000e+00
     3544000   3.543999e-05   2.272212e+01   8.310766e+00   3.855701e+01   6.383193e+05  -5.727093e+04   5.869982e+05   1.379943e+01   1.538030e+02   1.901727e-20   8.690790e+05   4.338284e-38   0.000000e+00   0.000000e+00
     3552000   3.551999e-05   2.277319e+01   8.306184e+00   3.860397e+01   6.383193e+05  -5.727093e+04   5.869982e+05   1.377683e+01   1.535512e+02  -3.735363e-21   8.690790e+05   4.324058e-38   0.000000e+00   0.000000e+00
     3560000   3.559999e-05   2.282425e+01   8.301602e+00   3.865093e+01   6.383193e+05  -5.727093e+04   5.869982e+05   1.439045e+01   1.603903e+02  -6.649213e-21   8.690790e+05   4.717773e-38   0.000000e+00   0.000000e+00
     3568000   3.567999e-05   2.287532e+01   8.297021e+00   3.869789e+01   6.383193e+05  -5.727093e+04   5.869982e+05   1.248541e+01   1.391574e+02  -2.239775e-21   8.690790e+05   3.551455e-38   0.000000e+00   0.000000e+00
     3576000   3.575999e-05   2.292638e+01   8.292439e+00   3.874485e+01   6.383193e+05  -5.727093e+04   5.869982e+05   1.532564e+01   1.708135e+02   7.150299e-21   8.690790e+05   5.350888e-38   0.000000e+00   0.000000e+00
     3584000   3.583999e-05   2.297745e+01   8.287857e+00   3.879181e+01   6.383193e+05  -5.727093e+04   5.869982e+05   1.613364e+01   1.798192e+02   1.050552e-20   8.690790e+05   5.929988e-38   0.000000e+00   0.000000e+00
     3592000   3.591999e-05   2.302851e+01   8.283276e+00   3.883877e+01   6.383193e+05  -5.727093e+04   5.869982e+05   1.494120e+01   1.665288e+02   2.981212e-21   8.690790e+05   5.085929e-38   0.000000e+00   0.000000e+00
     3600000   3.599999e-05   2.307958e+01   8.278694e+00   3.888573e+01   6.383193e+05  -5.727093e+04   5.869982e+05   1.431646e+01   1.595657e+02  -7.281791e-21   8.690790e+05   4.669505e-38   0.000000e+00   0.000000e+00
     3608000   3.607999e-05   2.313064e+01   8.274112e+00   3.893269e+01   6.383193e+05  -5.727093e+04   5.869982e+05   1.519470e+01   1.693542e+02   1.970106e-20   8.690790e+05   5.259904e-38   0.000000e+00   0.000000e+00
     3616000   3.615999e-05   2.318171e+01   8.269531e+00   3.897965e+01   6.383193e+05  -5.727093e+04   5.869982e+05   1.535397e+01   1.711293e+02   9.234685e-21   8.690790e+05   5.370748e-38   0.000000e+00   0.000000e+00
     3624000   3.623999e-05   2.323278e+01   8.264949e+00   3.902661e+01   6.383193e+05  -5.727093e+04   5.869982e+05   1.508430e+01   1.681237e+02  -2.629272e-21   8.690790e+05   5.183727e-38   0.000000e+00   0.000000e+00
     3632000   3.631999e-05   2.328384e+01   8.260367e+00   3.907357e+01   6.383193e+05  -5.727093e+04   5.869982e+05   1.549676e+01   1.727208e+02  -4.444285e-21   8.690790e+05   5.471088e-38   0.000000e+00   0.000000e+00
     3640000   3.639999e-05   2.333491e+01   8.255786e+00   3.912053e+01   6.383193e+05  -5.727093e+04   5.869982e+05   1.544468e+01   1.721404e+02  -7.355717e-21   8.690790e+05   5.434635e-38   0.000000e+00   0.000000e+00
     3648000   3.647999e-05   2.338597e+01   8.251204e+00   3.916749e+01   6.383193e+05  -5.727093e+04   5.869982e+05   1.291383e+01   1.439324e+02   4.488649e-21   8.690790e+05   3.799494e-38   0.000000e+00   0.000000e+00
     3656000   3.655999e-05   2.343704e+01   8.246622e+00   3.921445e+01   6.383193e+05  -5.727093e+04   5.869982e+05   1.442739e+01   1.608021e+02  -4.517893e-21   8.690790e+05   4.742138e-38   0.000000e+00   0.000000e+00
     3664000   3.663999e-05   2.348810e+01   8.242041e+00   3.926141e+01   6.383193e+05  -5.727093e+04   5.869982e+05   1.391882e+01   1.551337e+02   3.265155e-20   8.690790e+05   4.413709e-38   0.000000e+00   0.000000e+00
     3672000   3.671999e-05   2.353917e+01   8.237459e+00   3.930837e+01   6.383193e+05  -5.727093e+04   5.869982e+05   1.592818e+01   1.775292e+02   7.054082e-21   8.690790e+05   5.780127e-38   0.000000e+00   0.000000e+00
     3680000   3.679999e-05   2.359023e+01   8.232877e+00   3.935533e+01   6.383193e+05  -5.727093e+04   5.869982e+05   1.438251e+01   1.603018e+02   1.699356e-20   8.690790e+05   4.712762e-38   0.000000e+00   0.000000e+00
     3688000   3.687999e-05   2.364130e+01   8.228296e+00   3.940229e+01   6.383193e+05  -5.727093e+04   5.869982e+05   1.636808e+01   1.824322e+02   6.088687e-21   8.690790e+05   6.103788e-38   0.000000e+00   0.000000e+00
     3696000   3.695999e-05   2.369237e+01   8.223714e+00   3.944925e+01   6.383193e+05  -5.727093e+04   5.869982e+05   1.498501e+01   1.670170e+02   5.086138e-21   8.690790e+05   5.115860e-38   0.000000e+00   0.000000e+00
     3704000   3.703999e-05   2.374343e+01   8.219132e+00   3.949621e+01   6.383193e+05  -5.727093e+04   5.869982e+05   1.710680e+01   1.906656e+02   2.128830e-20   8.690790e+05   6.666979e-38   0.000000e+00   0.000000e+00
     3712000   3.711999e-05   2.379450e+01   8.214550e+00   3.954317e+01   6.383193e+05  -5.727093e+04   5.869982e+05   1.458991e+01   1.626134e+02   2.611908e-21   8.690790e+05   4.849670e-38   0.000000e+00   0.000000e+00
     3720000   3.719999e-05   2.384556e+01   8.209969e+00   3.959013e+01   6.383193e+05  -5.727093e+04   5.869982e+05   1.738431e+01   1.937587e+02   1.087577e-20   8.690790e+05   6.884916e-38   0.000000e+00   0.000000e+00
     3728000   3.727999e-05   2.389663e+01   8.205387e+00   3.963709e+01   6.383193e+05  -5.727093e+04   5.869982e+05   1.467703e+01   1.635844e+02  -1.715087e-21   8.690790e+05   4.907723e-38   0.000000e+00   0.000000e+00
     3736000   3.735999e-05   2.394769e+01   8.200805e+00   3.968405e+01   6.383193e+05  -5.727093e+04   5.869982e+05   1.749565e+01   1.949996e+02  -1.514565e-20   8.690790e+05   6.973404e-38   0.000000e+00   0.000000e+00
     3744000   3.743999e-05   2.399876e+01   8.196224e+00   3.973101e+01   6.383193e+05  -5.727093e+04   5.869982e+05   1.647392e+01   1.836118e+02   1.022542e-20   8.690790e+05   6.182898e-38   0.000000e+00   0.000000e+00
     3752000   3.751999e-05   2.404982e+01   8.191642e+00   3.977797e+01   6.383193e+05  -5.727093e+04   5.869982e+05   1.384752e+01   1.543391e+02   3.855894e-21   8.690790e+05   4.368471e-38   0.000000e+00   0.000000e+00
     3760000   3.759999e-05   2.410089e+01   8.187060e+00   3.982493e+01   6.383193e+05  -5.727093e+04   5.869982e+05   1.536810e+01   1.712868e+02  -2.251128e-20   8.690790e+05   5.380800e-38   0.000000e+00   0.000000e+00
     3768000   3.767999e-05   2.415196e+01   8.182479e+00   3.987189e+01   6.383193e+05  -5.727093e+04   5.869982e+05   1.369437e+01   1.526321e+02  -1.040479e-20   8.690790e+05   4.272600e-38   0.000000e+00   0.000000e+00
     3776000   3.775999e-05   2.420302e+01   8.177897e+00   3.991885e+01   6.383193e+05  -5.727093e+04   5.869982e+05   1.489804e+01   1.660476e+02   2.972169e-21   8.690790e+05   5.056708e-38   0.000000e+00   0.000000e+00
     3784000   3.783999e-05   2.425409e+01   8.173315e+00   3.996581e+01   6.383193e+05  -5.727093e+04   5.869982e+05   1.279713e+01   1.426318e+02   1.413029e-20   8.690790e+05   3.731105e-38   0.000000e+00   0.000000e+00
     3792000   3.791999e-05   2.430515e+01   8.168734e+00   4.001277e+01   6.383193e+05  -5.727093e+04   5.869982e+05   1.622045e+01   1.807867e+02  -3.902388e-22   8.690790e+05   5.994180e-38   0.000000e+00   0.000000e+00
     3800000   3.799999e-05   2.435622e+01   8.164152e+00   4.005973e+01   6.383193e+05  -5.727093e+04   5.869982e+05   1.480706e+01   1.650337e+02   1.078720e-20   8.690790e+05   4.995081e-38   0.000000e+00   0.000000e+00
     3808000   3.807999e-05   2.440728e+01   8.159570e+00   4.010669e+01   6.383193e+05  -5.727093e+04   5.869982e+05   1.670150e+01   1.861483e+02  -3.624006e-21   8.690790e+05   6.354939e-38   0.000000e+00   0.000000e+00
     3816000   3.815999e-05   2.445835e+01   8.154989e+00   4.015365e+01   6.383193e+05  -5.727093e+04   5.869982e+05   1.578214e+01   1.759016e+02   1.117907e-20   8.690790e+05   5.674569e-38   0.000000e+00   0.000000e+00
     3824000   3.823999e-05   2.450941e+01   8.150407e+00   4.020061e+01   6.383193e+05  -5.727093e+04   5.869982e+05   1.669524e+01   1.860785e+02   3.108870e-20   8.690790e+05   6.350111e-38   0.000000e+00   0.000000e+00
     3832000   3.831999e-05   2.456048e+01   8.145825e+00   4.024757e+01   6.383193e+05  -5.727093e+04   5.869982e+05   1.644689e+01   1.833106e+02  -1.863432e-22   8.690790e+05   6.162599e-38   0.000000e+00   0.000000e+00
     3840000   3.839999e-05   2.461155e+01   8.141244e+00   4.029453e+01   6.383193e+05  -5.727093e+04   5.869982e+05   1.777481e+01   1.981111e+02  -2.050450e-20   8.690790e+05   7.197809e-38   0.000000e+00   0.000000e+00
     3848000   3.847999e-05   2.466261e+01   8.136662e+00   4.034149e+01   6.383193e+05  -5.727093e+04   5.869982e+05   1.524957e+01   1.699657e+02  -7.691267e-21   8.690790e+05   5.298137e-38   0.000000e+00   0.000000e+00
     3856000   3.855999e-05   2.471368e+01   8.132080e+00   4.038845e+01   6.383193e+05  -5.727093e+04   5.869982e+05   1.726456e+01   1.924240e+02  -9.960237e-21   8.690790e+05   6.790490e-38   0.000000e+00   0.000000e+00
     3864000   3.863999e-05   2.476474e+01   8.127499e+00   4.043541e+01   6.383193e+05  -5.727093e+04   5.869982e+05   1.576315e+01   1.756899e+02  -1.855176e-20   8.690790e+05   5.660910e-38   0.000000e+00   0.000000e+00
     3872000   3.871999e-05   2.481581e+01   8.122917e+00   4.048237e+01   6.383193e+05  -5.727093e+04   5.869982e+05   1.743794e+01   1.943564e+02  -9.521389e-21   8.690790e+05   6.927389e-38   0.000000e+00   0.000000e+00
     3880000   3.879999e-05   2.486687e+01   8.118335e+00   4.052932e+01   6.383193e+05  -5.727093e+04   5.869982e+05   1.608323e+01   1.792573e+02  -1.445776e-20   8.690790e+05   5.893171e-38   0.000000e+00   0.000000e+00
     3888000   3.887999e-05   2.491794e+01   8.113754e+00   4.057628e+01   6.383193e+05  -5.727093e+04   5.869982e+05   1.742198e+01   1.941785e+02   2.059596e-20   8.690790e+05   6.914941e-38   0.000000e+00   0.000000e+00
     3896000   3.895999e-05   2.496900e+01   8.109172e+00   4.062324e+01   6.383193e+05  -5.727093e+04   5.869982e+05   1.533858e+01   1.709578e+02   5.031072e-21   8.690790e+05   5.360121e-38   0.000000e+00   0.000000e+00
     3904000   3.903999e-05   2.502007e+01   8.104590e+00   4.067020e+01   6.383193e+05  -5.727093e+04   5.869982e+05   1.683666e+01   1.876548e+02   3.154647e-21   8.690790e+05   6.457952e-38   0.000000e+00   0.000000e+00
     3912000   3.911999e-05   2.507113e+01   8.100009e+00   4.071716e+01   6.383193e+05  -5.727093e+04   5.869982e+05   1.582704e+01   1.764020e+02   3.894905e-21   8.690790e+05   5.706985e-38   0.000000e+00   0.000000e+00
     3920000   3.919999e-05   2.512220e+01   8.095427e+00   4.076412e+01   6.383193e+05  -5.727093e+04   5.869982e+05   1.565522e+01   1.744869e+02   6.937184e-21   8.690790e+05   5.583633e-38   0.000000e+00   0.000000e+00
     3928000   3.927999e-05   2.517327e+01   8.090845e+00   4.081108e+01   6.383193e+05  -5.727093e+04   5.869982e+05   1.536808e+01   1.712865e+02  -1.291282e-20   8.690790e+05   5.380682e-38   0.000000e+00   0.000000e+00
     3936000   3.935999e-05   2.522433e+01   8.086264e+00   4.085804e+01   6.383193e+05  -5.727093e+04   5.869982e+05   1.578633e+01   1.759483e+02  -5.174411e-22   8.690790e+05   5.677533e-38   0.000000e+00   0.000000e+00
     3944000   3.943999e-05   2.527540e+01   8.081682e+00   4.090500e+01   6.383193e+05  -5.727093e+04   5.869982e+05   1.879053e+01   2.094319e+02   1.465238e-20   8.690790e+05   8.043901e-38   0.000000e+00   0.000000e+00
     3952000   3.951999e-05   2.532646e+01   8.077100e+00   4.095196e+01   6.383193e+05  -5.727093e+04   5.869982e+05   1.567365e+01   1.746924e+02  -4.455607e-21   8.690790e+05   5.596776e-38   0.000000e+00   0.000000e+00
     3960000   3.959999e-05   2.537753e+01   8.072519e+00   4.099892e+01   6.383193e+05  -5.727093e+04   5.869982e+05   1.524244e+01   1.698862e+02   9.997796e-21   8.690790e+05   5.293056e-38   0.000000e+00   0.000000e+00
     3968000   3.967999e-05   2.542859e+01   8.067937e+00   4.104588e+01   6.383193e+05  -5.727093e+04   5.869982e+05   1.580891e+01   1.761999e+02  -8.452065e-21   8.690790e+05   5.693842e-38   0.000000e+00   0.000000e+00
     3976000   3.975999e-05   2.547966e+01   8.063355e+00   4.109284e+01   6.383193e+05  -5.727093e+04   5.869982e+05   1.477366e+01   1.646614e+02  -2.782518e-21   8.690790e+05   4.972540e-38   0.000000e+00   0.000000e+00
     3984000   3.983999e-05   2.553072e+01   8.058774e+00   4.113980e+01   6.383193e+05  -5.727093e+04   5.869982e+05   1.452641e+01   1.619056e+02   7.974050e-21   8.690790e+05   4.807424e-38   0.000000e+00   0.000000e+00
     3992000   3.991999e-05   2.558179e+01   8.054192e+00   4.118676e+01   6.383193e+05  -5.727093e+04   5.869982e+05   1.431631e+01   1.595639e+02  -1.352652e-21   8.690790e+05   4.669370e-38   0.000000e+00   0.000000e+00
     4000000   3.999999e-05   2.563286e+01   8.049610e+00   4.123372e+01   6.383193e+05  -5.727093e+04   5.869982e+05   1.475033e+01   1.644013e+02  -5.358889e-21   8.690790e+05   4.956720e-38   0.000000e+00   0.000000e+00
     4008000   4.007999e-05   2.568392e+01   8.045029e+00   4.128068e+01   6.383193e+05  -5.727093e+04   5.869982e+05   1.522804e+01   1.697258e+02  -1.547738e-20   8.690790e+05   5.282986e-38   0.000000e+00   0.000000e+00
     4016000   4.015999e-05   2.573499e+01   8.040447e+00   4.132764e+01   6.383193e+05  -5.727093e+04   5.869982e+05   1.728211e+01   1.926196e+02   1.099880e-20   8.690790e+05   6.804146e-38   0.000000e+00   0.000000e+00
     4024000   4.023999e-05   2.578605e+01   8.035865e+00   4.137460e+01   6.383193e+05  -5.727093e+04   5.869982e+05   1.961582e+01   2.186302e+02   1.807083e-20   8.690790e+05   8.765859e-38   0.000000e+00   0.000000e+00
     4032000   4.031999e-05   2.583712e+01   8.031284e+00   4.142156e+01   6.383193e+05  -5.727093e+04   5.869982e+05   1.615095e+01   1.800122e+02  -2.848872e-21   8.690790e+05   5.942683e-38   0.000000e+00   0.000000e+00
     4040000   4.039999e-05   2.588818e+01   8.026702e+00   4.146852e+01   6.383193e+05  -5.727093e+04   5.869982e+05   1.739787e+01   1.939098e+02  -3.870981e-21   8.690790e+05   6.895708e-38   0.000000e+00   0.000000e+00
     4048000   4.047999e-05   2.593925e+01   8.022120e+00   4.151548e+01   6.383193e+05  -5.727093e+04   5.869982e+05   1.550981e+01   1.728663e+02  -1.081301e-20   8.690790e+05   5.480207e-38   0.000000e+00   0.000000e+00
     4056000   4.055999e-05   2.599031e+01   8.017539e+00   4.156244e+01   6.383193e+05  -5.727093e+04   5.869982e+05   1.706352e+01   1.901833e+02  -1.114534e-20   8.690790e+05   6.633185e-38   0.000000e+00   0.000000e+00
     4064000   4.063999e-05   2.604138e+01   8.012957e+00   4.160940e+01   6.383193e+05  -5.727093e+04   5.869982e+05   1.545643e+01   1.722712e+02  -3.073938e-21   8.690790e+05   5.442718e-38   0.000000e+00   0.000000e+00
     4072000   4.071999e-05   2.609245e+01   8.008375e+00   4.165636e+01   6.383193e+05  -5.727093e+04   5.869982e+05   1.501462e+01   1.673471e+02  -6.115516e-21   8.690790e+05   5.136020e-38   0.000000e+00   0.000000e+00
     4080000   4.079999e-05   2.614351e+01   8.003793e+00   4.170332e+01   6.383193e+05  -5.727093e+04   5.869982e+05   1.435334e+01   1.599767e+02  -2.079921e-20   8.690790e+05   4.693441e-38   0.000000e+00   0.000000e+00
     4088000   4.087999e-05   2.619458e+01   7.999212e+00   4.175028e+01   6.383193e+05  -5.727093e+04   5.869982e+05   1.152354e+01   1.284369e+02   1.861453e-21   8.690790e+05   3.025376e-38   0.000000e+00   0.000000e+00
     4096000   4.095999e-05   2.624564e+01   7.994630e+00   4.179724e+01   6.383193e+05  -5.727093e+04   5.869982e+05   1.641121e+01   1.829130e+02  -1.754638e-20   8.690790e+05   6.135823e-38   0.000000e+00   0.000000e+00
     4104000   4.103999e-05   2.629671e+01   7.990048e+00   4.184420e+01   6.383193e+05  -5.727093e+04   5.869982e+05   1.281498e+01   1.428307e+02   9.766211e-21   8.690790e+05   3.741507e-38   0.000000e+00   0.000000e+00
     4112000   4.111999e-05   2.634777e+01   7.985467e+00   4.189116e+01   6.383193e+05  -5.727093e+04   5.869982e+05   1.372003e+01   1.529180e+02   4.509994e-21   8.690790e+05   4.288509e-38   0.000000e+00   0.000000e+00
     4120000   4.119999e-05   2.639884e+01   7.980885e+00   4.193812e+01   6.383193e+05  -5.727093e+04   5.869982e+05   1.283042e+01   1.430028e+02   4.023302e-21   8.690790e+05   3.750394e-38   0.000000e+00   0.000000e+00
     4128000   4.127999e-05   2.644990e+01   7.976303e+00   4.198508e+01   6.383193e+05  -5.727093e+04   5.869982e+05   1.876806e+01   2.091814e+02  -6.565295e-22   8.690790e+05   8.024591e-38   0.000000e+00   0.000000e+00
     4136000   4.135999e-05   2.650097e+01   7.971722e+00   4.203204e+01   6.383193e+05  -5.727093e+04   5.869982e+05   1.398822e+01   1.559072e+02  -9.812210e-21   8.690790e+05   4.457847e-38   0.000000e+00   0.000000e+00
     4144000   4.143999e-05   2.655204e+01   7.967140e+00   4.207900e+01   6.383193e+05  -5.727093e+04   5.869982e+05   1.324303e+01   1.476016e+02  -1.434429e-20   8.690790e+05   3.995538e-38   0.000000e+00   0.000000e+00
     4152000   4.151999e-05   2.660310e+01   7.962558e+00   4.212596e+01   6.383193e+05  -5.727093e+04   5.869982e+05   1.443964e+01   1.609386e+02  -3.249371e-21   8.690790e+05   4.750200e-38   0.000000e+00   0.000000e+00
     4160000   4.159999e-05   2.665417e+01   7.957977e+00   4.217292e+01   6.383193e+05  -5.727093e+04   5.869982e+05   1.384129e+01   1.542696e+02  -8.182375e-21   8.690790e+05   4.364682e-38   0.000000e+00   0.000000e+00
     4168000   4.167999e-05   2.670523e+01   7.953395e+00   4.221988e+01   6.383193e+05  -5.727093e+04   5.869982e+05   1.398478e+01   1.558689e+02  -5.489316e-21   8.690790e+05   4.455618e-38   0.000000e+00   0.000000e+00
     4176000   4.175999e-05   2.675630e+01   7.948813e+00   4.226684e+01   6.383193e+05  -5.727093e+04   5.869982e+05   1.373343e+01   1.530674e+02  -2.262104e-21   8.690790e+05   4.296895e-38   0.000000e+00   0.000000e+00
     4184000   4.183999e-05   2.680736e+01   7.944232e+00   4.231380e+01   6.383193e+05  -5.727093e+04   5.869982e+05   1.311571e+01   1.461825e+02   4.272753e-22   8.690790e+05   3.918982e-38   0.000000e+00   0.000000e+00
     4192000   4.191999e-05   2.685843e+01   7.939650e+00   4.236076e+01   6.383193e+05  -5.727093e+04   5.869982e+05   1.367927e+01   1.524638e+02  -1.228539e-20   8.690790e+05   4.263008e-38   0.000000e+00   0.000000e+00
     4200000   4.199999e-05   2.690949e+01   7.935068e+00   4.240772e+01   6.383193e+05  -5.727093e+04   5.869982e+05   1.413171e+01   1.575065e+02  -6.556852e-21   8.690790e+05   4.549813e-38   0.000000e+00   0.000000e+00
     4208000   4.207999e-05   2.696056e+01   7.930487e+00   4.245468e+01   6.383193e+05  -5.727093e+04   5.869982e+05   1.290996e+01   1.438894e+02   5.887423e-21   8.690790e+05   3.797125e-38   0.000000e+00   0.000000e+00
     4216000   4.215999e-05   2.701163e+01   7.925905e+00   4.250164e+01   6.383193e+05  -5.727093e+04   5.869982e+05   1.219075e+01   1.358733e+02  -4.706960e-21   8.690790e+05   3.385721e-38   0.000000e+00   0.000000e+00
     4224000   4.223999e-05   2.706269e+01   7.921323e+00   4.254860e+01   6.383193e+05  -5.727093e+04   5.869982e+05   1.269497e+01   1.414932e+02   1.027011e-21   8.690790e+05   3.671586e-38   0.000000e+00   0.000000e+00
     4232000   4.231999e-05   2.711376e+01   7.916742e+00   4.259556e+01   6.383193e+05  -5.727093e+04   5.869982e+05   1.335118e+01   1.488070e+02  -4.072630e-21   8.690790e+05   4.061015e-38   0.000000e+00   0.000000e+00
     4240000   4.239999e-05   2.716482e+01   7.912160e+00   4.264252e+01   6.383193e+05  -5.727093e+04   5.869982e+05   1.206537e+01   1.344759e+02  -3.802105e-22   8.690790e+05   3.316569e-38   0.000000e+00   0.000000e+00
     4248000   4.247999e-05   2.721589e+01   7.907578e+00   4.268948e+01   6.383193e+05  -5.727093e+04   5.869982e+05   1.166895e+01   1.300576e+02   1.879785e-20   8.690790e+05   3.102117e-38   0.000000e+00   0.000000e+00
     4256000   4.255999e-05   2.726695e+01   7.902997e+00   4.273644e+01   6.383193e+05  -5.727093e+04   5.869982e+05   1.211772e+01   1.350593e+02   2.527886e-22   8.690790e+05   3.345271e-38   0.000000e+00   0.000000e+00
     4264000   4.263999e-05   2.731802e+01   7.898415e+00   4.278340e+01   6.383193e+05  -5.727093e+04   5.869982e+05   1.285142e+01   1.432369e+02   4.785432e-21   8.690790e+05   3.762612e-38   0.000000e+00   0.000000e+00
     4272000   4.271999e-05   2.736908e+01   7.893833e+00   4.283036e+01   6.383193e+05  -5.727093e+04   5.869982e+05   1.188197e+01   1.324318e+02  -3.451937e-22   8.690790e+05   3.216438e-38   0.000000e+00   0.000000e+00
     4280000   4.279999e-05   2.742015e+01   7.889252e+00   4.287732e+01   6.383193e+05  -5.727093e+04   5.869982e+05   1.385083e+01   1.543759e+02  -4.363735e-21   8.690790e+05   4.370513e-38   0.000000e+00   0.000000e+00
     4288000   4.287999e-05   2.747122e+01   7.884670e+00   4.292428e+01   6.383193e+05  -5.727093e+04   5.869982e+05   1.179802e+01   1.314960e+02   7.699913e-21   8.690790e+05   3.171166e-38   0.000000e+00   0.000000e+00
