     timestep     time              x             y              z              vx             vy             vz             ax             ay             az         v_magnitude      ELoss        Electronic      Nuclear
           0   0.000000e+00   1.000000e-01   1.286530e+01   1.460799e+01   2.401028e+06   4.901126e+05   9.480073e+05   0.000000e+00   0.000000e+00   0.000000e+00   2.627521e+06   0.000000e+00   0.000000e+00   0.000000e+00
        8000   7.999000e-08   2.920823e-01   1.290451e+01   1.468383e+01   2.401028e+06   4.901126e+05   9.480073e+05   0.000000e+00   0.000000e+00   0.000000e+00   2.627521e+06   0.000000e+00   0.000000e+00   0.000000e+00
       16000   1.599900e-07   4.841645e-01   1.294372e+01   1.475967e+01   2.401028e+06   4.901126e+05   9.480073e+05   0.000000e+00   0.000000e+00   0.000000e+00   2.627521e+06   0.000000e+00   0.000000e+00   0.000000e+00
       24000   2.399900e-07   6.762468e-01   1.298293e+01   1.483551e+01   2.401028e+06   4.901126e+05   9.480073e+05   0.000000e+00   0.000000e+00   0.000000e+00   2.627521e+06   0.000000e+00   0.000000e+00   0.000000e+00
       32000   3.199900e-07   8.683290e-01   1.302214e+01   1.491135e+01   2.401028e+06   4.901126e+05   9.480073e+05   0.000000e+00   0.000000e+00   0.000000e+00   2.627521e+06   0.000000e+00   0.000000e+00   0.000000e+00
       40000   3.999900e-07   1.060411e+00   1.306135e+01   1.498719e+01   2.401028e+06   4.901126e+05   9.480073e+05   0.000000e+00   0.000000e+00   0.000000e+00   2.627521e+06   0.000000e+00   0.000000e+00   0.000000e+00
       48000   4.799900e-07   1.252494e+00   1.310056e+01   1.506304e+01   2.401028e+06   4.901126e+05   9.480073e+05   0.000000e+00   0.000000e+00   0.000000e+00   2.627521e+06   0.000000e+00   0.000000e+00   0.000000e+00
       56000   5.599900e-07   1.444576e+00   1.313977e+01   1.513888e+01   2.401028e+06   4.901126e+05   9.480073e+05   0.000000e+00   0.000000e+00   0.000000e+00   2.627521e+06   0.000000e+00   0.000000e+00   0.000000e+00
       64000   6.399900e-07   1.636658e+00   1.317898e+01   1.521472e+01   2.401028e+06   4.901126e+05   9.480073e+05   0.000000e+00   0.000000e+00   0.000000e+00   2.627521e+06   0.000000e+00   0.000000e+00   0.000000e+00
       72000   7.199900e-07   1.828740e+00   1.321819e+01   1.529056e+01   2.401028e+06   4.901126e+05   9.480073e+05   0.000000e+00   0.000000e+00   0.000000e+00   2.627521e+06   0.000000e+00   0.000000e+00   0.000000e+00
       80000   7.999900e-07   2.020823e+00   1.325739e+01   1.536640e+01   2.401028e+06   4.901126e+05   9.480073e+05   0.000000e+00   0.000000e+00   0.000000e+00   2.627521e+06   0.000000e+00   0.000000e+00   0.000000e+00
       88000   8.799900e-07   2.212905e+00   1.329660e+01   1.544224e+01   2.401028e+06   4.901126e+05   9.480073e+05   0.000000e+00   0.000000e+00   0.000000e+00   2.627521e+06   0.000000e+00   0.000000e+00   0.000000e+00
       96000   9.599900e-07   2.404987e+00   1.333581e+01   1.551808e+01   2.401028e+06   4.901126e+05   9.480073e+05   0.000000e+00   0.000000e+00   0.000000e+00   2.627521e+06   0.000000e+00   0.000000e+00   0.000000e+00
      104000   1.039990e-06   2.597069e+00   1.337502e+01   1.559392e+01   2.401028e+06   4.901126e+05   9.480073e+05   0.000000e+00   0.000000e+00   0.000000e+00   2.627521e+06   0.000000e+00   0.000000e+00   0.000000e+00
      112000   1.119990e-06   2.789152e+00   1.341423e+01   1.566976e+01   2.401028e+06   4.901126e+05   9.480073e+05   0.000000e+00   0.000000e+00   0.000000e+00   2.627521e+06   0.000000e+00   0.000000e+00   0.000000e+00
      120000   1.199990e-06   2.981234e+00   1.345344e+01   1.574560e+01   2.401028e+06   4.901126e+05   9.480073e+05   0.000000e+00   0.000000e+00   0.000000e+00   2.627521e+06   0.000000e+00   0.000000e+00   0.000000e+00
      128000   1.279990e-06   3.173316e+00   1.349265e+01   1.582144e+01   2.401028e+06   4.901126e+05   9.480073e+05   0.000000e+00   0.000000e+00   0.000000e+00   2.627521e+06   0.000000e+00   0.000000e+00   0.000000e+00
      136000   1.359990e-06   3.365398e+00   1.353186e+01   1.589728e+01   2.401028e+06   4.901126e+05   9.480073e+05   0.000000e+00   0.000000e+00   0.000000e+00   2.627521e+06   0.000000e+00   0.000000e+00   0.000000e+00
      144000   1.439990e-06   3.557481e+00   1.357107e+01   1.597312e+01   2.401028e+06   4.901126e+05   9.480073e+05   0.000000e+00   0.000000e+00   0.000000e+00   2.627521e+06   0.000000e+00   0.000000e+00   0.000000e+00
      152000   1.519990e-06   3.749563e+00   1.361028e+01   1.604896e+01   2.401028e+06   4.901126e+05   9.480073e+05   0.000000e+00   0.000000e+00   0.000000e+00   2.627521e+06   0.000000e+00   0.000000e+00   0.000000e+00
      160000   1.599990e-06   3.941645e+00   1.364948e+01   1.612480e+01   2.401028e+06   4.901126e+05   9.480073e+05   0.000000e+00   0.000000e+00   0.000000e+00   2.627521e+06   0.000000e+00   0.000000e+00   0.000000e+00
      168000   1.679990e-06   4.133727e+00   1.368869e+01   1.620064e+01   2.401028e+06   4.901126e+05   9.480073e+05   0.000000e+00   0.000000e+00   0.000000e+00   2.627521e+06   0.000000e+00   0.000000e+00   0.000000e+00
      176000   1.759990e-06   4.325810e+00   1.372790e+01   1.627648e+01   2.401028e+06   4.901126e+05   9.480073e+05   0.000000e+00   0.000000e+00   0.000000e+00   2.627521e+06   0.000000e+00   0.000000e+00   0.000000e+00
      184000   1.839990e-06   4.517892e+00   1.376711e+01   1.635233e+01   2.401028e+06   4.901126e+05   9.480073e+05   0.000000e+00   0.000000e+00   0.000000e+00   2.627521e+06   0.000000e+00   0.000000e+00   0.000000e+00
      192000   1.919990e-06   4.709974e+00   1.380632e+01   1.642817e+01   2.401028e+06   4.901126e+05   9.480073e+05   0.000000e+00   0.000000e+00   0.000000e+00   2.627521e+06   0.000000e+00   0.000000e+00   0.000000e+00
      200000   1.999990e-06   4.902056e+00   1.384553e+01   1.650401e+01   2.401028e+06   4.901126e+05   9.480073e+05   0.000000e+00   0.000000e+00   0.000000e+00   2.627521e+06   0.000000e+00   0.000000e+00   0.000000e+00
      208000   2.079990e-06   5.094139e+00   1.388474e+01   1.657985e+01   2.401028e+06   4.901126e+05   9.480073e+05   0.000000e+00   0.000000e+00   0.000000e+00   2.627521e+06   0.000000e+00   0.000000e+00   0.000000e+00
      216000   2.159990e-06   5.286221e+00   1.392395e+01   1.665569e+01   2.401028e+06   4.901126e+05   9.480073e+05   0.000000e+00   0.000000e+00   0.000000e+00   2.627521e+06   0.000000e+00   0.000000e+00   0.000000e+00
      224000   2.239990e-06   5.478303e+00   1.396316e+01   1.673153e+01   2.401028e+06   4.901126e+05   9.480073e+05   0.000000e+00   0.000000e+00   0.000000e+00   2.627521e+06   0.000000e+00   0.000000e+00   0.000000e+00
      232000   2.319990e-06   5.670385e+00   1.400237e+01   1.680737e+01   2.401028e+06   4.901126e+05   9.480073e+05   0.000000e+00   0.000000e+00   0.000000e+00   2.627521e+06   0.000000e+00   0.000000e+00   0.000000e+00
      240000   2.399990e-06   5.862468e+00   1.404157e+01   1.688321e+01   2.401028e+06   4.901126e+05   9.480073e+05   0.000000e+00   0.000000e+00   0.000000e+00   2.627521e+06   0.000000e+00   0.000000e+00   0.000000e+00
      248000   2.479990e-06   6.054550e+00   1.408078e+01   1.695905e+01   2.401028e+06   4.901126e+05   9.480073e+05   0.000000e+00   0.000000e+00   0.000000e+00   2.627521e+06   0.000000e+00   0.000000e+00   0.000000e+00
      256000   2.559990e-06   6.246632e+00   1.411999e+01   1.703489e+01   2.401028e+06   4.901126e+05   9.480073e+05   0.000000e+00   0.000000e+00   0.000000e+00   2.627521e+06   0.000000e+00   0.000000e+00   0.000000e+00
      264000   2.639990e-06   6.438714e+00   1.415920e+01   1.711073e+01   2.401028e+06   4.901126e+05   9.480073e+05   0.000000e+00   0.000000e+00   0.000000e+00   2.627521e+06   0.000000e+00   0.000000e+00   0.000000e+00
      272000   2.719990e-06   6.630797e+00   1.419841e+01   1.718657e+01   2.401028e+06   4.901126e+05   9.480073e+05   0.000000e+00   0.000000e+00   0.000000e+00   2.627521e+06   0.000000e+00   0.000000e+00   0.000000e+00
      280000   2.799990e-06   6.822879e+00   1.423762e+01   1.726241e+01   2.401028e+06   4.901126e+05   9.480073e+05   0.000000e+00   0.000000e+00   0.000000e+00   2.627521e+06   0.000000e+00   0.000000e+00   0.000000e+00
      288000   2.879990e-06   7.014961e+00   1.427683e+01   1.733825e+01   2.401028e+06   4.901126e+05   9.480073e+05   0.000000e+00   0.000000e+00   0.000000e+00   2.627521e+06   0.000000e+00   0.000000e+00   0.000000e+00
      296000   2.959990e-06   7.207043e+00   1.431604e+01   1.741409e+01   2.401028e+06   4.901126e+05   9.480073e+05   0.000000e+00   0.000000e+00   0.000000e+00   2.627521e+06   0.000000e+00   0.000000e+00   0.000000e+00
      304000   3.039990e-06   7.399126e+00   1.435525e+01   1.748993e+01   2.401028e+06   4.901126e+05   9.480073e+05   0.000000e+00   0.000000e+00   0.000000e+00   2.627521e+06   0.000000e+00   0.000000e+00   0.000000e+00
      312000   3.119990e-06   7.591208e+00   1.439446e+01   1.756577e+01   2.401028e+06   4.901126e+05   9.480073e+05   0.000000e+00   0.000000e+00   0.000000e+00   2.627521e+06   0.000000e+00   0.000000e+00   0.000000e+00
      320000   3.199990e-06   7.783290e+00   1.443366e+01   1.764162e+01   2.401028e+06   4.901126e+05   9.480073e+05   0.000000e+00   0.000000e+00   0.000000e+00   2.627521e+06   0.000000e+00   0.000000e+00   0.000000e+00
      328000   3.279990e-06   7.975372e+00   1.447287e+01   1.771746e+01   2.401028e+06   4.901126e+05   9.480073e+05   0.000000e+00   0.000000e+00   0.000000e+00   2.627521e+06   0.000000e+00   0.000000e+00   0.000000e+00
      336000   3.359990e-06   8.167455e+00   1.451208e+01   1.779330e+01   2.401028e+06   4.901126e+05   9.480073e+05   0.000000e+00   0.000000e+00   0.000000e+00   2.627521e+06   0.000000e+00   0.000000e+00   0.000000e+00
      344000   3.439990e-06   8.359537e+00   1.455129e+01   1.786914e+01   2.401028e+06   4.901126e+05   9.480073e+05   0.000000e+00   0.000000e+00   0.000000e+00   2.627521e+06   0.000000e+00   0.000000e+00   0.000000e+00
      352000   3.519990e-06   8.551619e+00   1.459050e+01   1.794498e+01   2.401028e+06   4.901126e+05   9.480073e+05   0.000000e+00   0.000000e+00   0.000000e+00   2.627521e+06   0.000000e+00   0.000000e+00   0.000000e+00
      360000   3.599990e-06   8.743701e+00   1.462971e+01   1.802082e+01   2.401028e+06   4.901126e+05   9.480073e+05   0.000000e+00   0.000000e+00   0.000000e+00   2.627521e+06   0.000000e+00   0.000000e+00   0.000000e+00
      368000   3.679990e-06   8.935784e+00   1.466892e+01   1.809666e+01   2.401028e+06   4.901126e+05   9.480073e+05   0.000000e+00   0.000000e+00   0.000000e+00   2.627521e+06   0.000000e+00   0.000000e+00   0.000000e+00
      376000   3.759990e-06   9.127866e+00   1.470813e+01   1.817250e+01   2.401028e+06   4.901126e+05   9.480073e+05   0.000000e+00   0.000000e+00   0.000000e+00   2.627521e+06   0.000000e+00   0.000000e+00   0.000000e+00
      384000   3.839990e-06   9.319948e+00   1.474734e+01   1.824834e+01   2.401028e+06   4.901126e+05   9.480073e+05   0.000000e+00   0.000000e+00   0.000000e+00   2.627521e+06   0.000000e+00   0.000000e+00   0.000000e+00
      392000   3.919990e-06   9.512030e+00   1.478655e+01   1.832418e+01   2.401028e+06   4.901126e+05   9.480073e+05   0.000000e+00   0.000000e+00   0.000000e+00   2.627521e+06   0.000000e+00   0.000000e+00   0.000000e+00
      400000   3.999990e-06   9.704113e+00   1.482575e+01   1.840002e+01   2.401028e+06   4.901126e+05   9.480073e+05   0.000000e+00   0.000000e+00   0.000000e+00   2.627521e+06   0.000000e+00   0.000000e+00   0.000000e+00
      408000   4.079990e-06   9.896195e+00   1.486496e+01   1.847586e+01   2.401028e+06   4.901126e+05   9.480073e+05   0.000000e+00   0.000000e+00   0.000000e+00   2.627521e+06   0.000000e+00   0.000000e+00   0.000000e+00
      416000   4.159990e-06   1.008828e+01   1.490417e+01   1.855170e+01   2.401028e+06   4.901126e+05   9.480073e+05   0.000000e+00   0.000000e+00   0.000000e+00   2.627521e+06   0.000000e+00   0.000000e+00   0.000000e+00
      424000   4.239990e-06   1.028036e+01   1.494338e+01   1.862754e+01   2.401028e+06   4.901126e+05   9.480073e+05   0.000000e+00   0.000000e+00   0.000000e+00   2.627521e+06   0.000000e+00   0.000000e+00   0.000000e+00
      432000   4.319990e-06   1.047244e+01   1.498259e+01   1.870338e+01   2.401028e+06   4.901126e+05   9.480073e+05   0.000000e+00   0.000000e+00   0.000000e+00   2.627521e+06   0.000000e+00   0.000000e+00   0.000000e+00
      440000   4.399990e-06   1.066452e+01   1.502180e+01   1.877922e+01   2.401028e+06   4.901126e+05   9.480073e+05   0.000000e+00   0.000000e+00   0.000000e+00   2.627521e+06   0.000000e+00   0.000000e+00   0.000000e+00
      448000   4.479990e-06   1.085661e+01   1.506101e+01   1.885506e+01   2.401028e+06   4.901126e+05   9.480073e+05   0.000000e+00   0.000000e+00   0.000000e+00   2.627521e+06   0.000000e+00   0.000000e+00   0.000000e+00
      456000   4.559990e-06   1.104869e+01   1.510022e+01   1.893091e+01   2.401028e+06   4.901126e+05   9.480073e+05   0.000000e+00   0.000000e+00   0.000000e+00   2.627521e+06   0.000000e+00   0.000000e+00   0.000000e+00
      464000   4.639990e-06   1.124077e+01   1.513943e+01   1.900675e+01   2.401028e+06   4.901126e+05   9.480073e+05   0.000000e+00   0.000000e+00   0.000000e+00   2.627521e+06   0.000000e+00   0.000000e+00   0.000000e+00
      472000   4.719990e-06   1.143285e+01   1.517864e+01   1.908259e+01   2.401028e+06   4.901126e+05   9.480073e+05   0.000000e+00   0.000000e+00   0.000000e+00   2.627521e+06   0.000000e+00   0.000000e+00   0.000000e+00
      480000   4.799990e-06   1.162494e+01   1.521784e+01   1.915843e+01   2.401028e+06   4.901126e+05   9.480073e+05   0.000000e+00   0.000000e+00   0.000000e+00   2.627521e+06   0.000000e+00   0.000000e+00   0.000000e+00
      488000   4.879990e-06   1.181702e+01   1.525705e+01   1.923427e+01   2.401028e+06   4.901126e+05   9.480073e+05   0.000000e+00   0.000000e+00   0.000000e+00   2.627521e+06   0.000000e+00   0.000000e+00   0.000000e+00
      496000   4.959990e-06   1.200910e+01   1.529626e+01   1.931011e+01   2.401028e+06   4.901126e+05   9.480073e+05   0.000000e+00   0.000000e+00   0.000000e+00   2.627521e+06   0.000000e+00   0.000000e+00   0.000000e+00
      504000   5.039990e-06   1.220118e+01   1.533547e+01   1.938595e+01   2.401028e+06   4.901126e+05   9.480073e+05   0.000000e+00   0.000000e+00   0.000000e+00   2.627521e+06   0.000000e+00   0.000000e+00   0.000000e+00
      512000   5.119990e-06   1.239326e+01   1.537468e+01   1.946179e+01   2.401028e+06   4.901126e+05   9.480073e+05   0.000000e+00   0.000000e+00   0.000000e+00   2.627521e+06   0.000000e+00   0.000000e+00   0.000000e+00
      520000   5.199990e-06   1.258535e+01   1.541389e+01   1.953763e+01   2.401028e+06   4.901128e+05   9.480076e+05  -8.491377e+06   1.108348e+07   1.577612e+07   2.627521e+06   7.378004e-27   0.000000e+00   0.000000e+00
      528000   5.279990e-06   1.277743e+01   1.545310e+01   1.961347e+01   2.401028e+06   4.901134e+05   9.480084e+05   7.648881e+05  -9.822774e+05  -1.429407e+06   2.627521e+06   5.940886e-29   0.000000e+00   0.000000e+00
      536000   5.359990e-06   1.296951e+01   1.549231e+01   1.968931e+01   2.401023e+06   4.901196e+05   9.480176e+05  -2.786442e+07   3.519717e+07   5.237486e+07   2.627521e+06   7.915351e-26   0.000000e+00   0.000000e+00
      544000   5.439990e-06   1.316159e+01   1.553152e+01   1.976515e+01   2.401012e+06   4.901330e+05   9.480376e+05  -1.120099e+08   1.404364e+08   2.110725e+08   2.627521e+06   1.278175e-24   0.000000e+00   0.000000e+00
      552000   5.519990e-06   1.335367e+01   1.557073e+01   1.984100e+01   2.400997e+06   4.901514e+05   9.480654e+05  -1.228826e+08   1.523550e+08   2.324353e+08   2.627521e+06   1.536321e-24   0.000000e+00   0.000000e+00
      560000   5.599990e-06   1.354575e+01   1.560994e+01   1.991684e+01   2.400985e+06   4.901662e+05   9.480883e+05  -7.105719e+07   8.691117e+07   1.350152e+08   2.627521e+06   5.134090e-25   0.000000e+00   0.000000e+00
      568000   5.679990e-06   1.373783e+01   1.564916e+01   1.999269e+01   2.400981e+06   4.901713e+05   9.480963e+05   7.698805e+07  -9.259431e+07  -1.470945e+08   2.627521e+06   6.003463e-25   0.000000e+00   0.000000e+00
      576000   5.759990e-06   1.392991e+01   1.568837e+01   2.006854e+01   2.400982e+06   4.901704e+05   9.480949e+05   2.186173e+02  -1.145794e+03   3.874959e+01   2.627521e+06   2.265502e-35   0.000000e+00   0.000000e+00
      584000   5.839990e-06   1.412199e+01   1.572758e+01   2.014439e+01   2.400982e+06   4.901704e+05   9.480949e+05   2.502336e+02  -1.227874e+03   1.119012e+00   2.627521e+06   2.611543e-35   0.000000e+00   0.000000e+00
      592000   5.919990e-06   1.431407e+01   1.576680e+01   2.022023e+01   2.400982e+06   4.901704e+05   9.480949e+05   2.912557e+02  -1.426646e+03  -1.084357e-18   2.627521e+06   3.525949e-35   0.000000e+00   0.000000e+00
      600000   5.999990e-06   1.450614e+01   1.580601e+01   2.029608e+01   2.400982e+06   4.901704e+05   9.480949e+05   2.831805e+02  -1.387091e+03   9.509283e-19   2.627521e+06   3.333175e-35   0.000000e+00   0.000000e+00
      608000   6.079990e-06   1.469822e+01   1.584522e+01   2.037193e+01   2.400982e+06   4.901704e+05   9.480949e+05   3.461905e+02  -1.695731e+03  -4.556203e-19   2.627521e+06   4.981380e-35   0.000000e+00   0.000000e+00
      616000   6.159990e-06   1.489030e+01   1.588444e+01   2.044778e+01   2.400982e+06   4.901704e+05   9.480949e+05   3.197048e+02  -1.565997e+03  -1.300549e-19   2.627521e+06   4.248557e-35   0.000000e+00   0.000000e+00
      624000   6.239990e-06   1.508238e+01   1.592365e+01   2.052362e+01   2.400982e+06   4.901704e+05   9.480949e+05   3.535606e+02  -1.731832e+03  -2.212794e-19   2.627521e+06   5.195981e-35   0.000000e+00   0.000000e+00
      632000   6.319990e-06   1.527446e+01   1.596286e+01   2.059947e+01   2.400982e+06   4.901704e+05   9.480949e+05   3.248752e+02  -1.591323e+03  -1.102947e-18   2.627521e+06   4.387178e-35   0.000000e+00   0.000000e+00
      640000   6.399990e-06   1.546654e+01   1.600208e+01   2.067532e+01   2.400982e+06   4.901704e+05   9.480949e+05   3.566791e+02  -1.747107e+03   6.401480e-19   2.627521e+06   5.288377e-35   0.000000e+00   0.000000e+00
      648000   6.479990e-06   1.565862e+01   1.604129e+01   2.075117e+01   2.400982e+06   4.901704e+05   9.480949e+05   4.112529e+02  -2.014423e+03  -1.073592e-18   2.627521e+06   7.030172e-35   0.000000e+00   0.000000e+00
      656000   6.559990e-06   1.585069e+01   1.608051e+01   2.082701e+01   2.400982e+06   4.901704e+05   9.480949e+05   4.275367e+02  -2.094185e+03   4.808817e-19   2.627521e+06   7.598011e-35   0.000000e+00   0.000000e+00
      664000   6.639990e-06   1.604277e+01   1.611972e+01   2.090286e+01   2.400982e+06   4.901704e+05   9.480949e+05   4.544369e+02  -2.225950e+03   2.371687e-18   2.627521e+06   8.583972e-35   0.000000e+00   0.000000e+00
      672000   6.719990e-06   1.623485e+01   1.615893e+01   2.097871e+01   2.400982e+06   4.901704e+05   9.480949e+05   4.513054e+02  -2.210611e+03   1.016887e-18   2.627521e+06   8.466281e-35   0.000000e+00   0.000000e+00
      680000   6.799990e-06   1.642693e+01   1.619815e+01   2.105456e+01   2.400982e+06   4.901704e+05   9.480949e+05   5.010285e+02  -2.454167e+03   6.219880e-19   2.627521e+06   1.043446e-34   0.000000e+00   0.000000e+00
      688000   6.879990e-06   1.661901e+01   1.623736e+01   2.113041e+01   2.400982e+06   4.901704e+05   9.480949e+05   5.247829e+02  -2.570523e+03  -2.534043e-18   2.627521e+06   1.144732e-34   0.000000e+00   0.000000e+00
      696000   6.959990e-06   1.681109e+01   1.627657e+01   2.120625e+01   2.400982e+06   4.901704e+05   9.480949e+05   5.637856e+02  -2.761568e+03  -1.108475e-18   2.627521e+06   1.321219e-34   0.000000e+00   0.000000e+00
      704000   7.039990e-06   1.700317e+01   1.631579e+01   2.128210e+01   2.400982e+06   4.901704e+05   9.480949e+05   5.907100e+02  -2.893450e+03   2.292304e-18   2.627521e+06   1.450433e-34   0.000000e+00   0.000000e+00
      712000   7.119990e-06   1.719524e+01   1.635500e+01   2.135795e+01   2.400982e+06   4.901704e+05   9.480949e+05   6.210358e+02  -3.041994e+03  -5.208044e-18   2.627521e+06   1.603181e-34   0.000000e+00   0.000000e+00
      720000   7.199990e-06   1.738732e+01   1.639421e+01   2.143380e+01   2.400982e+06   4.901704e+05   9.480949e+05   6.192736e+02  -3.033362e+03   1.744383e-18   2.627521e+06   1.594108e-34   0.000000e+00   0.000000e+00
      728000   7.279990e-06   1.757940e+01   1.643343e+01   2.150964e+01   2.400982e+06   4.901704e+05   9.480949e+05   6.773818e+02  -3.317992e+03   4.461733e-18   2.627521e+06   1.907301e-34   0.000000e+00   0.000000e+00
      736000   7.359990e-06   1.777148e+01   1.647264e+01   2.158549e+01   2.400982e+06   4.901704e+05   9.480949e+05   6.642818e+02  -3.253824e+03  -2.409015e-18   2.627521e+06   1.834268e-34   0.000000e+00   0.000000e+00
      744000   7.439990e-06   1.796356e+01   1.651186e+01   2.166134e+01   2.400982e+06   4.901704e+05   9.480949e+05   7.283449e+02  -3.567622e+03   5.121332e-18   2.627521e+06   2.205087e-34   0.000000e+00   0.000000e+00
      752000   7.519990e-06   1.815564e+01   1.655107e+01   2.173719e+01   2.400982e+06   4.901704e+05   9.480949e+05   7.586449e+02  -3.716039e+03   2.143443e-18   2.627521e+06   2.392374e-34   0.000000e+00   0.000000e+00
      760000   7.599990e-06   1.834772e+01   1.659028e+01   2.181303e+01   2.400982e+06   4.901704e+05   9.480949e+05   7.757871e+02  -3.800006e+03   4.123103e-18   2.627521e+06   2.501717e-34   0.000000e+00   0.000000e+00
      768000   7.679990e-06   1.853979e+01   1.662950e+01   2.188888e+01   2.400982e+06   4.901704e+05   9.480949e+05   7.991077e+02  -3.914237e+03  -6.041338e-18   2.627521e+06   2.654391e-34   0.000000e+00   0.000000e+00
      776000   7.759990e-06   1.873187e+01   1.666871e+01   2.196473e+01   2.400982e+06   4.901704e+05   9.480949e+05   8.479983e+02  -4.153715e+03  -3.991319e-20   2.627521e+06   2.989066e-34   0.000000e+00   0.000000e+00
      784000   7.839990e-06   1.892395e+01   1.670792e+01   2.204058e+01   2.400982e+06   4.901704e+05   9.480949e+05   8.298181e+02  -4.064664e+03  -2.704151e-18   2.627521e+06   2.862241e-34   0.000000e+00   0.000000e+00
      792000   7.919990e-06   1.911603e+01   1.674714e+01   2.211642e+01   2.400982e+06   4.901704e+05   9.480949e+05   8.575929e+02  -4.200712e+03  -7.132873e-18   2.627521e+06   3.057145e-34   0.000000e+00   0.000000e+00
      800000   7.999990e-06   1.930811e+01   1.678635e+01   2.219227e+01   2.400982e+06   4.901704e+05   9.480949e+05   8.275868e+02  -4.053735e+03  -6.841532e-19   2.627521e+06   2.847078e-34   0.000000e+00   0.000000e+00
      808000   8.079990e-06   1.950019e+01   1.682556e+01   2.226812e+01   2.400982e+06   4.901704e+05   9.480949e+05   8.680495e+02  -4.251931e+03   2.236460e-18   2.627521e+06   3.132214e-34   0.000000e+00   0.000000e+00
      816000   8.159990e-06   1.969227e+01   1.686478e+01   2.234397e+01   2.400982e+06   4.901704e+05   9.480949e+05   8.384519e+02  -4.106955e+03   7.297876e-19   2.627521e+06   2.922305e-34   0.000000e+00   0.000000e+00
      824000   8.239990e-06   1.988434e+01   1.690399e+01   2.241981e+01   2.400982e+06   4.901704e+05   9.480949e+05   8.423767e+02  -4.126179e+03   2.561164e-18   2.627521e+06   2.949734e-34   0.000000e+00   0.000000e+00
      832000   8.319990e-06   2.007642e+01   1.694321e+01   2.249566e+01   2.400982e+06   4.901704e+05   9.480949e+05   8.256800e+02  -4.044395e+03   1.417667e-18   2.627521e+06   2.833920e-34   0.000000e+00   0.000000e+00
      840000   8.399990e-06   2.026850e+01   1.698242e+01   2.257151e+01   2.400982e+06   4.901704e+05   9.480949e+05   8.200722e+02  -4.016926e+03  -2.190538e-18   2.627521e+06   2.795509e-34   0.000000e+00   0.000000e+00
      848000   8.479990e-06   2.046058e+01   1.702163e+01   2.264736e+01   2.400982e+06   4.901704e+05   9.480949e+05   7.540291e+02  -3.693430e+03   1.123109e-18   2.627521e+06   2.363383e-34   0.000000e+00   0.000000e+00
      856000   8.559990e-06   2.065266e+01   1.706085e+01   2.272320e+01   2.400982e+06   4.901704e+05   9.480949e+05   7.163764e+02  -3.508997e+03  -3.258242e-18   2.627521e+06   2.133240e-34   0.000000e+00   0.000000e+00
      864000   8.639990e-06   2.084474e+01   1.710006e+01   2.279905e+01   2.400982e+06   4.901704e+05   9.480949e+05   6.259597e+02  -3.066113e+03  -4.168187e-18   2.627521e+06   1.628783e-34   0.000000e+00   0.000000e+00
      872000   8.719990e-06   2.103681e+01   1.713927e+01   2.287490e+01   2.400982e+06   4.901704e+05   9.480949e+05   5.464540e+02  -2.676673e+03   6.781890e-18   2.627521e+06   1.241235e-34   0.000000e+00   0.000000e+00
      880000   8.799990e-06   2.122889e+01   1.717849e+01   2.295075e+01   2.400982e+06   4.901704e+05   9.480949e+05   4.091926e+02  -2.004332e+03  -1.797645e-18   2.627521e+06   6.960818e-35   0.000000e+00   0.000000e+00
      888000   8.879990e-06   2.142097e+01   1.721770e+01   2.302659e+01   2.400982e+06   4.901704e+05   9.480949e+05   2.732058e+02  -1.338233e+03   4.945915e-19   2.627521e+06   3.103331e-35   0.000000e+00   0.000000e+00
      896000   8.959990e-06   2.161305e+01   1.725691e+01   2.310244e+01   2.400982e+06   4.901704e+05   9.480949e+05   1.217262e+02  -5.962467e+02   1.883339e-19   2.627521e+06   6.161431e-36   0.000000e+00   0.000000e+00
      904000   9.039990e-06   2.180513e+01   1.729613e+01   2.317829e+01   2.400982e+06   4.901704e+05   9.480949e+05  -4.902619e+01   2.401430e+02   1.330773e-19   2.627521e+06   9.980947e-37   0.000000e+00   0.000000e+00
      912000   9.119990e-06   2.199721e+01   1.733534e+01   2.325414e+01   2.400982e+06   4.901704e+05   9.480949e+05  -3.089465e+02   1.513300e+03  -1.164178e-19   2.627521e+06   3.966553e-35   0.000000e+00   0.000000e+00
      920000   9.199990e-06   2.218929e+01   1.737456e+01   2.332999e+01   2.400982e+06   4.901704e+05   9.480949e+05  -5.578013e+02   2.732255e+03   1.840848e-18   2.627521e+06   1.293126e-34   0.000000e+00   0.000000e+00
      928000   9.279990e-06   2.238136e+01   1.741377e+01   2.340583e+01   2.400982e+06   4.901704e+05   9.480949e+05  -7.622383e+02   3.733641e+03   3.326272e-18   2.627521e+06   2.414847e-34   0.000000e+00   0.000000e+00
      936000   9.359990e-06   2.257344e+01   1.745298e+01   2.348168e+01   2.400982e+06   4.901704e+05   9.480949e+05  -9.870595e+02   4.834873e+03   5.355740e-18   2.627521e+06   4.049699e-34   0.000000e+00   0.000000e+00
      944000   9.439990e-06   2.276552e+01   1.749220e+01   2.355753e+01   2.400982e+06   4.901704e+05   9.480949e+05  -1.280154e+03   6.270528e+03  -1.169108e-17   2.627521e+06   6.811795e-34   0.000000e+00   0.000000e+00
      952000   9.519990e-06   2.295760e+01   1.753141e+01   2.363338e+01   2.400982e+06   4.901704e+05   9.480949e+05  -1.625654e+03   7.962876e+03   2.143422e-18   2.627521e+06   1.098488e-33   0.000000e+00   0.000000e+00
      960000   9.599990e-06   2.314968e+01   1.757062e+01   2.370922e+01   2.400982e+06   4.901704e+05   9.480949e+05  -2.000365e+03   9.798307e+03  -2.254306e-18   2.627521e+06   1.663218e-33   0.000000e+00   0.000000e+00
      968000   9.679990e-06   2.334176e+01   1.760984e+01   2.378507e+01   2.400982e+06   4.901704e+05   9.480949e+05  -2.362090e+03   1.157013e+04  -4.807741e-18   2.627521e+06   2.319122e-33   0.000000e+00   0.000000e+00
      976000   9.759990e-06   2.353384e+01   1.764905e+01   2.386092e+01   2.400982e+06   4.901704e+05   9.480949e+05  -2.704502e+03   1.324735e+04  -1.289464e-17   2.627521e+06   3.040277e-33   0.000000e+00   0.000000e+00
      984000   9.839990e-06   2.372591e+01   1.768826e+01   2.393677e+01   2.400982e+06   4.901704e+05   9.480949e+05  -3.050061e+03   1.493999e+04   1.920252e-17   2.627521e+06   3.866877e-33   0.000000e+00   0.000000e+00
      992000   9.919990e-06   2.391799e+01   1.772748e+01   2.401261e+01   2.400982e+06   4.901704e+05   9.480949e+05  -3.392551e+03   1.661759e+04   1.181900e-17   2.627521e+06   4.784085e-33   0.000000e+00   0.000000e+00
     1000000   9.999990e-06   2.411007e+01   1.776669e+01   2.408846e+01   2.400982e+06   4.901704e+05   9.480949e+05  -3.671594e+03   1.798442e+04   2.213831e-17   2.627521e+06   5.603427e-33   0.000000e+00   0.000000e+00
     1008000   1.007999e-05   2.430215e+01   1.780591e+01   2.416431e+01   2.400982e+06   4.901704e+05   9.480949e+05  -4.064077e+03   1.990690e+04  -1.228927e-18   2.627521e+06   6.865520e-33   0.000000e+00   0.000000e+00
     1016000   1.015999e-05   2.449423e+01   1.784512e+01   2.424016e+01   2.400982e+06   4.901704e+05   9.480949e+05  -4.231047e+03   2.072477e+04   1.812928e-17   2.627521e+06   7.441268e-33   0.000000e+00   0.000000e+00
     1024000   1.023999e-05   2.468631e+01   1.788433e+01   2.431600e+01   2.400982e+06   4.901704e+05   9.480949e+05  -4.449078e+03   2.179274e+04  -6.501164e-18   2.627521e+06   8.227947e-33   0.000000e+00   0.000000e+00
     1032000   1.031999e-05   2.487839e+01   1.792355e+01   2.439185e+01   2.400982e+06   4.901704e+05   9.480949e+05  -4.619733e+03   2.262865e+04  -2.555351e-18   2.627521e+06   8.871296e-33   0.000000e+00   0.000000e+00
     1040000   1.039999e-05   2.507046e+01   1.796276e+01   2.446770e+01   2.400982e+06   4.901704e+05   9.480949e+05  -4.693298e+03   2.298899e+04  -2.275533e-17   2.627521e+06   9.156119e-33   0.000000e+00   0.000000e+00
     1048000   1.047999e-05   2.526254e+01   1.800197e+01   2.454355e+01   2.400982e+06   4.901704e+05   9.480949e+05  -4.700211e+03   2.302285e+04  -2.889457e-17   2.627521e+06   9.183149e-33   0.000000e+00   0.000000e+00
     1056000   1.055999e-05   2.545462e+01   1.804119e+01   2.461939e+01   2.400982e+06   4.901704e+05   9.480949e+05  -4.601069e+03   2.253723e+04   3.495414e-17   2.627521e+06   8.799934e-33   0.000000e+00   0.000000e+00
     1064000   1.063999e-05   2.564670e+01   1.808040e+01   2.469524e+01   2.400982e+06   4.901704e+05   9.480949e+05  -4.441711e+03   2.175665e+04  -9.995679e-18   2.627521e+06   8.200902e-33   0.000000e+00   0.000000e+00
     1072000   1.071999e-05   2.583878e+01   1.811961e+01   2.477109e+01   2.400982e+06   4.901704e+05   9.480949e+05  -4.259079e+03   2.086207e+04   8.188909e-18   2.627521e+06   7.540374e-33   0.000000e+00   0.000000e+00
     1080000   1.079999e-05   2.603086e+01   1.815883e+01   2.484694e+01   2.400982e+06   4.901704e+05   9.480949e+05  -3.910552e+03   1.915489e+04  -4.759929e-17   2.627521e+06   6.356868e-33   0.000000e+00   0.000000e+00
     1088000   1.087999e-05   2.622294e+01   1.819804e+01   2.492278e+01   2.400982e+06   4.901704e+05   9.480949e+05  -3.543019e+03   1.735462e+04  -1.821451e-18   2.627521e+06   5.218111e-33   0.000000e+00   0.000000e+00
     1096000   1.095999e-05   2.641501e+01   1.823726e+01   2.499863e+01   2.400982e+06   4.901704e+05   9.480949e+05  -3.078565e+03   1.507961e+04   1.673095e-18   2.627521e+06   3.939772e-33   0.000000e+00   0.000000e+00
     1104000   1.103999e-05   2.660709e+01   1.827647e+01   2.507448e+01   2.400982e+06   4.901705e+05   9.480949e+05  -2.706411e+03   1.325670e+04  -4.338645e-18   2.627521e+06   3.044805e-33   0.000000e+00   0.000000e+00
     1112000   1.111999e-05   2.679917e+01   1.831568e+01   2.515033e+01   2.400982e+06   4.901705e+05   9.480949e+05  -2.126697e+03   1.041711e+04  -3.368812e-18   2.627521e+06   1.880172e-33   0.000000e+00   0.000000e+00
     1120000   1.119999e-05   2.699125e+01   1.835490e+01   2.522618e+01   2.400982e+06   4.901705e+05   9.480949e+05  -1.638700e+03   8.026776e+03   1.053175e-17   2.627521e+06   1.116314e-33   0.000000e+00   0.000000e+00
     1128000   1.127999e-05   2.718333e+01   1.839411e+01   2.530202e+01   2.400982e+06   4.901705e+05   9.480949e+05  -1.092531e+03   5.351499e+03   7.381086e-19   2.627521e+06   4.962166e-34   0.000000e+00   0.000000e+00
     1136000   1.135999e-05   2.737541e+01   1.843332e+01   2.537787e+01   2.400982e+06   4.901705e+05   9.480949e+05  -5.069941e+02   2.483388e+03  -1.876022e-18   2.627521e+06   1.068745e-34   0.000000e+00   0.000000e+00
     1144000   1.143999e-05   2.756749e+01   1.847254e+01   2.545372e+01   2.400982e+06   4.901705e+05   9.480949e+05   2.047066e+01  -1.002706e+02   1.451398e-19   2.627521e+06   1.728172e-37   0.000000e+00   0.000000e+00
     1152000   1.151999e-05   2.775956e+01   1.851175e+01   2.552957e+01   2.400982e+06   4.901705e+05   9.480949e+05   5.179910e+02  -2.537254e+03  -3.337765e-18   2.627521e+06   1.115153e-34   0.000000e+00   0.000000e+00
     1160000   1.159999e-05   2.795164e+01   1.855096e+01   2.560541e+01   2.400982e+06   4.901705e+05   9.480949e+05   9.755730e+02  -4.778609e+03  -2.994119e-18   2.627521e+06   3.955690e-34   0.000000e+00   0.000000e+00
     1168000   1.167999e-05   2.814372e+01   1.859018e+01   2.568126e+01   2.400982e+06   4.901705e+05   9.480949e+05   1.344116e+03  -6.583827e+03   5.552966e-18   2.627521e+06   7.509519e-34   0.000000e+00   0.000000e+00
     1176000   1.175999e-05   2.833580e+01   1.862939e+01   2.575711e+01   2.400982e+06   4.901705e+05   9.480949e+05   1.755860e+03  -8.600658e+03  -9.297302e-18   2.627521e+06   1.281480e-33   0.000000e+00   0.000000e+00
     1184000   1.183999e-05   2.852788e+01   1.866861e+01   2.583296e+01   2.400982e+06   4.901705e+05   9.480949e+05   2.101144e+03  -1.029195e+04  -8.105298e-18   2.627521e+06   1.835041e-33   0.000000e+00   0.000000e+00
     1192000   1.191999e-05   2.871996e+01   1.870782e+01   2.590880e+01   2.400982e+06   4.901704e+05   9.480949e+05   2.323950e+03  -1.138331e+04   4.448765e-18   2.627521e+06   2.244878e-33   0.000000e+00   0.000000e+00
     1200000   1.199999e-05   2.891203e+01   1.874703e+01   2.598465e+01   2.400982e+06   4.901704e+05   9.480949e+05   2.533056e+03  -1.240756e+04  -2.233430e-17   2.627521e+06   2.667109e-33   0.000000e+00   0.000000e+00
     1208000   1.207999e-05   2.910411e+01   1.878625e+01   2.606050e+01   2.400982e+06   4.901704e+05   9.480949e+05   2.663166e+03  -1.304488e+04   1.935298e-17   2.627521e+06   2.948123e-33   0.000000e+00   0.000000e+00
     1216000   1.215999e-05   2.929619e+01   1.882546e+01   2.613635e+01   2.400982e+06   4.901704e+05   9.480949e+05   2.807960e+03  -1.375411e+04   2.121220e-17   2.627521e+06   3.277415e-33   0.000000e+00   0.000000e+00
     1224000   1.223999e-05   2.948827e+01   1.886467e+01   2.621219e+01   2.400982e+06   4.901704e+05   9.480949e+05   2.851730e+03  -1.396851e+04   1.926454e-17   2.627521e+06   3.380410e-33   0.000000e+00   0.000000e+00
     1232000   1.231999e-05   2.968035e+01   1.890389e+01   2.628804e+01   2.400982e+06   4.901704e+05   9.480949e+05   2.863158e+03  -1.402449e+04  -4.196255e-18   2.627521e+06   3.407580e-33   0.000000e+00   0.000000e+00
     1240000   1.239999e-05   2.987243e+01   1.894310e+01   2.636389e+01   2.400982e+06   4.901704e+05   9.480949e+05   2.820728e+03  -1.381666e+04  -7.254959e-18   2.627521e+06   3.307324e-33   0.000000e+00   0.000000e+00
     1248000   1.247999e-05   3.006451e+01   1.898231e+01   2.643974e+01   2.400982e+06   4.901704e+05   9.480949e+05   2.681012e+03  -1.313229e+04   8.979101e-18   2.627521e+06   2.987903e-33   0.000000e+00   0.000000e+00
     1256000   1.255999e-05   3.025658e+01   1.902153e+01   2.651558e+01   2.400982e+06   4.901704e+05   9.480949e+05   2.682550e+03  -1.313982e+04   3.130983e-18   2.627521e+06   2.991254e-33   0.000000e+00   0.000000e+00
     1264000   1.263999e-05   3.044866e+01   1.906074e+01   2.659143e+01   2.400982e+06   4.901704e+05   9.480949e+05   2.563934e+03  -1.255881e+04  -1.046811e-17   2.627521e+06   2.732611e-33   0.000000e+00   0.000000e+00
     1272000   1.271999e-05   3.064074e+01   1.909996e+01   2.666728e+01   2.400982e+06   4.901704e+05   9.480949e+05   2.453535e+03  -1.201805e+04   1.334065e-17   2.627521e+06   2.502333e-33   0.000000e+00   0.000000e+00
     1280000   1.279999e-05   3.083282e+01   1.913917e+01   2.674313e+01   2.400982e+06   4.901704e+05   9.480949e+05   2.331774e+03  -1.142163e+04   1.063221e-17   2.627521e+06   2.260117e-33   0.000000e+00   0.000000e+00
     1288000   1.287999e-05   3.102490e+01   1.917838e+01   2.681897e+01   2.400982e+06   4.901704e+05   9.480949e+05   2.174134e+03  -1.064947e+04  -1.005582e-17   2.627521e+06   1.964866e-33   0.000000e+00   0.000000e+00
     1296000   1.295999e-05   3.121698e+01   1.921760e+01   2.689482e+01   2.400982e+06   4.901704e+05   9.480949e+05   2.028952e+03  -9.938334e+03   8.911014e-19   2.627521e+06   1.711234e-33   0.000000e+00   0.000000e+00
     1304000   1.303999e-05   3.140906e+01   1.925681e+01   2.697067e+01   2.400982e+06   4.901704e+05   9.480949e+05   1.904974e+03  -9.331054e+03  -1.863075e-17   2.627521e+06   1.508481e-33   0.000000e+00   0.000000e+00
     1312000   1.311999e-05   3.160113e+01   1.929602e+01   2.704652e+01   2.400982e+06   4.901704e+05   9.480949e+05   1.743131e+03  -8.538307e+03  -3.694937e-18   2.627521e+06   1.263076e-33   0.000000e+00   0.000000e+00
     1320000   1.319999e-05   3.179321e+01   1.933524e+01   2.712236e+01   2.400982e+06   4.901704e+05   9.480949e+05   1.622263e+03  -7.946263e+03   1.410493e-17   2.627521e+06   1.093977e-33   0.000000e+00   0.000000e+00
     1328000   1.327999e-05   3.198529e+01   1.937445e+01   2.719821e+01   2.400982e+06   4.901704e+05   9.480949e+05   1.451294e+03  -7.108816e+03   5.695751e-19   2.627521e+06   8.755440e-34   0.000000e+00   0.000000e+00
     1336000   1.335999e-05   3.217737e+01   1.941366e+01   2.727406e+01   2.400982e+06   4.901704e+05   9.480949e+05   1.353445e+03  -6.629522e+03  -7.327247e-18   2.627521e+06   7.614527e-34   0.000000e+00   0.000000e+00
     1344000   1.343999e-05   3.236945e+01   1.945288e+01   2.734991e+01   2.400982e+06   4.901704e+05   9.480949e+05   1.236617e+03  -6.057270e+03   2.126208e-18   2.627521e+06   6.356803e-34   0.000000e+00   0.000000e+00
     1352000   1.351999e-05   3.256153e+01   1.949209e+01   2.742576e+01   2.400982e+06   4.901704e+05   9.480949e+05   1.092760e+03  -5.352619e+03  -2.262030e-18   2.627521e+06   4.963797e-34   0.000000e+00   0.000000e+00
     1360000   1.359999e-05   3.275361e+01   1.953131e+01   2.750160e+01   2.400982e+06   4.901704e+05   9.480949e+05   9.930428e+02  -4.864181e+03   7.052757e-18   2.627521e+06   4.099258e-34   0.000000e+00   0.000000e+00
     1368000   1.367999e-05   3.294568e+01   1.957052e+01   2.757745e+01   2.400982e+06   4.901704e+05   9.480949e+05   8.825479e+02  -4.322948e+03  -6.414275e-18   2.627521e+06   3.237756e-34   0.000000e+00   0.000000e+00
     1376000   1.375999e-05   3.313776e+01   1.960973e+01   2.765330e+01   2.400982e+06   4.901704e+05   9.480949e+05   7.709928e+02  -3.776523e+03  -6.611651e-18   2.627521e+06   2.471016e-34   0.000000e+00   0.000000e+00
     1384000   1.383999e-05   3.332984e+01   1.964895e+01   2.772915e+01   2.400982e+06   4.901704e+05   9.480949e+05   6.872760e+02  -3.366456e+03  -3.504425e-18   2.627521e+06   1.963592e-34   0.000000e+00   0.000000e+00
     1392000   1.391999e-05   3.352192e+01   1.968816e+01   2.780499e+01   2.400982e+06   4.901704e+05   9.480949e+05   5.950759e+02  -2.914836e+03  -5.041672e-18   2.627521e+06   1.472032e-34   0.000000e+00   0.000000e+00
     1400000   1.399999e-05   3.371400e+01   1.972737e+01   2.788084e+01   2.400982e+06   4.901704e+05   9.480949e+05   5.212693e+02  -2.553312e+03  -2.515526e-18   2.627521e+06   1.129514e-34   0.000000e+00   0.000000e+00
     1408000   1.407999e-05   3.390608e+01   1.976659e+01   2.795669e+01   2.400982e+06   4.901704e+05   9.480949e+05   4.788990e+02  -2.345771e+03  -1.554476e-18   2.627521e+06   9.532935e-35   0.000000e+00   0.000000e+00
     1416000   1.415999e-05   3.409816e+01   1.980580e+01   2.803254e+01   2.400982e+06   4.901704e+05   9.480949e+05   3.837708e+02  -1.879809e+03  -4.625826e-19   2.627521e+06   6.122213e-35   0.000000e+00   0.000000e+00
     1424000   1.423999e-05   3.429023e+01   1.984501e+01   2.810838e+01   2.400982e+06   4.901704e+05   9.480949e+05   3.096000e+02  -1.516501e+03  -6.247188e-19   2.627521e+06   3.984862e-35   0.000000e+00   0.000000e+00
     1432000   1.431999e-05   3.448231e+01   1.988423e+01   2.818423e+01   2.400982e+06   4.901704e+05   9.480949e+05   3.024701e+02  -1.481577e+03  -1.039140e-18   2.627521e+06   3.802925e-35   0.000000e+00   0.000000e+00
     1440000   1.439999e-05   3.467439e+01   1.992344e+01   2.826008e+01   2.400982e+06   4.901704e+05   9.480949e+05   2.113008e+02  -1.035006e+03   4.067409e-19   2.627521e+06   1.856191e-35   0.000000e+00   0.000000e+00
     1448000   1.447999e-05   3.486647e+01   1.996266e+01   2.833593e+01   2.400982e+06   4.901704e+05   9.480949e+05   1.950574e+02  -9.554418e+02  -1.051771e-18   2.627521e+06   1.581627e-35   0.000000e+00   0.000000e+00
     1456000   1.455999e-05   3.505855e+01   2.000187e+01   2.841177e+01   2.400982e+06   4.901704e+05   9.480949e+05   1.438536e+02  -7.046323e+02   4.711221e-19   2.627521e+06   8.602420e-36   0.000000e+00   0.000000e+00
     1464000   1.463999e-05   3.525063e+01   2.004108e+01   2.848762e+01   2.400982e+06   4.901704e+05   9.480949e+05   1.343933e+02  -6.582930e+02   3.396327e-19   2.627521e+06   7.507300e-36   0.000000e+00   0.000000e+00
     1472000   1.471999e-05   3.544271e+01   2.008030e+01   2.856347e+01   2.400982e+06   4.901704e+05   9.480949e+05   8.424458e+01  -4.126518e+02  -1.420581e-19   2.627521e+06   2.950699e-36   0.000000e+00   0.000000e+00
     1480000   1.479999e-05   3.563478e+01   2.011951e+01   2.863932e+01   2.400982e+06   4.901704e+05   9.480949e+05   5.378605e+01  -2.634580e+02  -3.303385e-20   2.627521e+06   1.202750e-36   0.000000e+00   0.000000e+00
     1488000   1.487999e-05   3.582686e+01   2.015872e+01   2.871516e+01   2.400982e+06   4.901704e+05   9.480949e+05   3.873038e+01  -1.897114e+02   2.105929e-19   2.627521e+06   6.237050e-37   0.000000e+00   0.000000e+00
     1496000   1.495999e-05   3.601894e+01   2.019794e+01   2.879101e+01   2.400982e+06   4.901704e+05   9.480949e+05   2.898286e+01  -1.419655e+02   1.552554e-19   2.627521e+06   3.493683e-37   0.000000e+00   0.000000e+00
     1504000   1.503999e-05   3.621102e+01   2.023715e+01   2.886686e+01   2.400982e+06   4.901704e+05   9.480949e+05   9.594818e-01  -4.699790e+00  -4.656316e-21   2.627521e+06   3.805194e-40   0.000000e+00   0.000000e+00
     1512000   1.511999e-05   3.640310e+01   2.027636e+01   2.894271e+01   2.400982e+06   4.901704e+05   9.480949e+05  -2.342545e+01   1.147439e+02   8.016668e-20   2.627521e+06   2.281530e-37   0.000000e+00   0.000000e+00
     1520000   1.519999e-05   3.659518e+01   2.031558e+01   2.901855e+01   2.400982e+06   4.901704e+05   9.480949e+05  -1.559208e+01   7.637404e+01   7.184991e-20   2.627521e+06   1.010807e-37   0.000000e+00   0.000000e+00
     1528000   1.527999e-05   3.678725e+01   2.035479e+01   2.909440e+01   2.400982e+06   4.901704e+05   9.480949e+05  -5.965637e+01   2.922124e+02   5.778317e-19   2.627521e+06   1.479117e-36   0.000000e+00   0.000000e+00
     1536000   1.535999e-05   3.697933e+01   2.039401e+01   2.917025e+01   2.400982e+06   4.901704e+05   9.480949e+05  -1.026399e+02   5.027566e+02   7.038482e-19   2.627521e+06   4.377959e-36   0.000000e+00   0.000000e+00
     1544000   1.543999e-05   3.717141e+01   2.043322e+01   2.924610e+01   2.400982e+06   4.901704e+05   9.480949e+05  -7.450293e+01   3.649347e+02   3.461643e-19   2.627521e+06   2.307213e-36   0.000000e+00   0.000000e+00
     1552000   1.551999e-05   3.736349e+01   2.047243e+01   2.932195e+01   2.400982e+06   4.901704e+05   9.480949e+05  -7.839011e+01   3.839751e+02   1.540441e-19   2.627521e+06   2.553822e-36   0.000000e+00   0.000000e+00
     1560000   1.559999e-05   3.755557e+01   2.051165e+01   2.939779e+01   2.400982e+06   4.901704e+05   9.480949e+05  -8.357731e+01   4.093833e+02  -6.335999e-19   2.627521e+06   2.903979e-36   0.000000e+00   0.000000e+00
     1568000   1.567999e-05   3.774765e+01   2.055086e+01   2.947364e+01   2.400982e+06   4.901704e+05   9.480949e+05  -7.093029e+01   3.474349e+02  -1.073021e-20   2.627521e+06   2.091413e-36   0.000000e+00   0.000000e+00
     1576000   1.575999e-05   3.793973e+01   2.059007e+01   2.954949e+01   2.400982e+06   4.901704e+05   9.480949e+05  -6.873055e+01   3.366600e+02   2.630683e-19   2.627521e+06   1.963743e-36   0.000000e+00   0.000000e+00
     1584000   1.583999e-05   3.813180e+01   2.062929e+01   2.962534e+01   2.400982e+06   4.901704e+05   9.480949e+05  -9.572097e+01   4.688661e+02   2.172408e-19   2.627521e+06   3.808553e-36   0.000000e+00   0.000000e+00
     1592000   1.591999e-05   3.832388e+01   2.066850e+01   2.970118e+01   2.400982e+06   4.901704e+05   9.480949e+05  -9.954488e+01   4.823287e+02   2.723540e+00   2.627521e+06   4.033812e-36   0.000000e+00   0.000000e+00
     1600000   1.599999e-05   3.851596e+01   2.070771e+01   2.977703e+01   2.400982e+06   4.901704e+05   9.480949e+05  -8.684979e+01   5.086226e+02  -4.301994e+01   2.627521e+06   4.457979e-36   0.000000e+00   0.000000e+00
     1608000   1.607999e-05   3.870804e+01   2.074693e+01   2.985288e+01   2.400982e+06   4.901704e+05   9.480949e+05  -8.329289e+01   4.981953e+02  -4.663657e+01   2.627521e+06   4.279186e-36   0.000000e+00   0.000000e+00
     1616000   1.615999e-05   3.890012e+01   2.078614e+01   2.992873e+01   2.400982e+06   4.901704e+05   9.480949e+05  -8.041633e+01   3.809936e+02   6.672685e+00   2.627521e+06   2.521579e-36   0.000000e+00   0.000000e+00
     1624000   1.623999e-05   3.909220e+01   2.082536e+01   3.000457e+01   2.400982e+06   4.901704e+05   9.480949e+05  -9.804151e+01   4.813706e+02  -5.882778e-01   2.627521e+06   4.013692e-36   0.000000e+00   0.000000e+00
     1632000   1.631999e-05   3.928428e+01   2.086457e+01   3.008042e+01   2.400982e+06   4.901704e+05   9.480949e+05  -1.255478e+02   4.059623e+02   1.080558e+02   2.627521e+06   3.197666e-36   0.000000e+00   0.000000e+00
     1640000   1.639999e-05   3.947635e+01   2.090378e+01   3.015627e+01   2.400982e+06   4.901704e+05   9.480949e+05  -9.823313e+01   4.960533e+02  -7.694073e+00   2.627521e+06   4.253695e-36   0.000000e+00   0.000000e+00
     1648000   1.647999e-05   3.966843e+01   2.094300e+01   3.023212e+01   2.400982e+06   4.901704e+05   9.480949e+05  -1.277272e+02   6.256409e+02  -5.296912e-20   2.627521e+06   6.779744e-36   0.000000e+00   0.000000e+00
     1656000   1.655999e-05   3.986051e+01   2.098221e+01   3.030796e+01   2.400982e+06   4.901704e+05   9.480949e+05  -1.106320e+02   5.419042e+02  -3.146558e-19   2.627521e+06   5.087453e-36   0.000000e+00   0.000000e+00
     1664000   1.663999e-05   4.005259e+01   2.102142e+01   3.038381e+01   2.400982e+06   4.901704e+05   9.480949e+05  -1.060160e+02   5.192938e+02   7.432161e-19   2.627521e+06   4.670942e-36   0.000000e+00   0.000000e+00
     1672000   1.671999e-05   4.024467e+01   2.106064e+01   3.045966e+01   2.400982e+06   4.901704e+05   9.480949e+05  -9.781909e+01   4.791432e+02   2.683616e-19   2.627521e+06   3.978143e-36   0.000000e+00   0.000000e+00
     1680000   1.679999e-05   4.043675e+01   2.109985e+01   3.053551e+01   2.400982e+06   4.901704e+05   9.480949e+05  -8.795276e+01   4.308154e+02   6.700608e-19   2.627521e+06   3.215768e-36   0.000000e+00   0.000000e+00
     1688000   1.687999e-05   4.062883e+01   2.113906e+01   3.061135e+01   2.400982e+06   4.901704e+05   9.480949e+05  -9.498162e+01   4.652446e+02   1.551028e-19   2.627521e+06   3.749607e-36   0.000000e+00   0.000000e+00
     1696000   1.695999e-05   4.082090e+01   2.117828e+01   3.068720e+01   2.400982e+06   4.901704e+05   9.480949e+05  -9.466461e+01   4.636918e+02   1.304306e-19   2.627521e+06   3.724659e-36   0.000000e+00   0.000000e+00
     1704000   1.703999e-05   4.101298e+01   2.121749e+01   3.076305e+01   2.400982e+06   4.901704e+05   9.480949e+05  -8.693037e+01   4.258075e+02  -1.297668e-19   2.627521e+06   3.141247e-36   0.000000e+00   0.000000e+00
     1712000   1.711999e-05   4.120506e+01   2.125671e+01   3.083890e+01   2.400982e+06   4.901704e+05   9.480949e+05  -8.962824e+01   4.390223e+02   1.051304e-19   2.627521e+06   3.339678e-36   0.000000e+00   0.000000e+00
     1720000   1.719999e-05   4.139714e+01   2.129592e+01   3.091474e+01   2.400982e+06   4.901704e+05   9.480949e+05  -8.566162e+01   4.195928e+02   5.795715e-20   2.627521e+06   3.050314e-36   0.000000e+00   0.000000e+00
     1728000   1.727999e-05   4.158922e+01   2.133513e+01   3.099059e+01   2.400982e+06   4.901704e+05   9.480949e+05  -6.548822e+01   3.207783e+02   3.808668e-19   2.627521e+06   1.783032e-36   0.000000e+00   0.000000e+00
     1736000   1.735999e-05   4.178130e+01   2.137435e+01   3.106644e+01   2.400982e+06   4.901704e+05   9.480949e+05  -9.639173e+01   4.721517e+02   2.082870e-19   2.627521e+06   3.861859e-36   0.000000e+00   0.000000e+00
     1744000   1.743999e-05   4.197338e+01   2.141356e+01   3.114229e+01   2.400982e+06   4.901704e+05   9.480949e+05  -7.890544e+01   3.864993e+02  -3.442983e-19   2.627521e+06   2.588101e-36   0.000000e+00   0.000000e+00
     1752000   1.751999e-05   4.216545e+01   2.145277e+01   3.121813e+01   2.400982e+06   4.901704e+05   9.480949e+05  -9.389700e+01   4.599318e+02   5.374044e-20   2.627521e+06   3.664325e-36   0.000000e+00   0.000000e+00
     1760000   1.759999e-05   4.235753e+01   2.149199e+01   3.129398e+01   2.400982e+06   4.901704e+05   9.480949e+05  -6.717350e+01   3.290332e+02  -5.630285e-19   2.627521e+06   1.875800e-36   0.000000e+00   0.000000e+00
     1768000   1.767999e-05   4.254961e+01   2.153120e+01   3.136983e+01   2.400982e+06   4.901704e+05   9.480949e+05  -8.021174e+01   3.928979e+02  -4.728808e-19   2.627521e+06   2.674224e-36   0.000000e+00   0.000000e+00
     1776000   1.775999e-05   4.274169e+01   2.157041e+01   3.144568e+01   2.400982e+06   4.901704e+05   9.480949e+05  -6.298544e+01   3.085190e+02  -2.566806e-19   2.627521e+06   1.649279e-36   0.000000e+00   0.000000e+00
     1784000   1.783999e-05   4.293377e+01   2.160963e+01   3.152153e+01   2.400982e+06   4.901704e+05   9.480949e+05  -7.319628e+01   3.585343e+02  -4.418028e-19   2.627521e+06   2.226567e-36   0.000000e+00   0.000000e+00
     1792000   1.791999e-05   4.312585e+01   2.164884e+01   3.159737e+01   2.400982e+06   4.901704e+05   9.480949e+05  -6.989094e+01   3.423439e+02  -1.812644e-19   2.627521e+06   2.030737e-36   0.000000e+00   0.000000e+00
     1800000   1.799999e-05   4.331793e+01   2.168806e+01   3.167322e+01   2.400982e+06   4.901704e+05   9.480949e+05  -7.113478e+01   3.484366e+02   1.263934e-19   2.627521e+06   2.103361e-36   0.000000e+00   0.000000e+00
     1808000   1.807999e-05   4.351000e+01   2.172727e+01   3.174907e+01   2.400982e+06   4.901704e+05   9.480949e+05  -6.618234e+01   3.241782e+02  -4.000664e-19   2.627521e+06   1.820950e-36   0.000000e+00   0.000000e+00
     1816000   1.815999e-05   4.370208e+01   2.176648e+01   3.182492e+01   2.400982e+06   4.901704e+05   9.480949e+05  -6.960565e+01   3.409465e+02  -2.656164e-19   2.627521e+06   2.013776e-36   0.000000e+00   0.000000e+00
     1824000   1.823999e-05   4.389416e+01   2.180570e+01   3.190076e+01   2.400982e+06   4.901704e+05   9.480949e+05  -5.451207e+01   2.670142e+02   1.542954e-19   2.627521e+06   1.235191e-36   0.000000e+00   0.000000e+00
     1832000   1.831999e-05   4.408624e+01   2.184491e+01   3.197661e+01   2.400982e+06   4.901704e+05   9.480949e+05  -4.648992e+01   2.277197e+02  -2.703177e-20   2.627521e+06   8.987244e-37   0.000000e+00   0.000000e+00
     1840000   1.839999e-05   4.427832e+01   2.188412e+01   3.205246e+01   2.400982e+06   4.901704e+05   9.480949e+05  -6.996609e+01   3.427120e+02   7.930941e-21   2.627521e+06   2.034707e-36   0.000000e+00   0.000000e+00
     1848000   1.847999e-05   4.447040e+01   2.192334e+01   3.212831e+01   2.400982e+06   4.901704e+05   9.480949e+05  -4.663232e+01   2.284172e+02   6.278398e-20   2.627521e+06   9.040322e-37   0.000000e+00   0.000000e+00
     1856000   1.855999e-05   4.466248e+01   2.196255e+01   3.220415e+01   2.400982e+06   4.901704e+05   9.480949e+05  -6.307481e+01   3.089568e+02  -1.973814e-21   2.627521e+06   1.653520e-36   0.000000e+00   0.000000e+00
     1864000   1.863999e-05   4.485455e+01   2.200176e+01   3.228000e+01   2.400982e+06   4.901704e+05   9.480949e+05  -4.834090e+01   2.367862e+02  -2.146032e-19   2.627521e+06   9.714761e-37   0.000000e+00   0.000000e+00
     1872000   1.871999e-05   4.504663e+01   2.204098e+01   3.235585e+01   2.400982e+06   4.901704e+05   9.480949e+05  -5.038757e+01   2.468114e+02  -2.144240e-20   2.627521e+06   1.055621e-36   0.000000e+00   0.000000e+00
     1880000   1.879999e-05   4.523871e+01   2.208019e+01   3.243170e+01   2.400982e+06   4.901704e+05   9.480949e+05  -6.495207e+01   3.181521e+02   1.230200e-19   2.627521e+06   1.753351e-36   0.000000e+00   0.000000e+00
     1888000   1.887999e-05   4.543079e+01   2.211941e+01   3.250754e+01   2.400982e+06   4.901704e+05   9.480949e+05  -5.137584e+01   2.516522e+02  -2.181381e-19   2.627521e+06   1.096884e-36   0.000000e+00   0.000000e+00
     1896000   1.895999e-05   4.562287e+01   2.215862e+01   3.258339e+01   2.400982e+06   4.901704e+05   9.480949e+05  -4.622707e+01   2.264321e+02   2.304921e-19   2.627521e+06   8.884401e-37   0.000000e+00   0.000000e+00
     1904000   1.903999e-05   4.581495e+01   2.219783e+01   3.265924e+01   2.400982e+06   4.901704e+05   9.480949e+05  -4.173905e+01   2.044487e+02  -2.090425e-21   2.627521e+06   7.242997e-37   0.000000e+00   0.000000e+00
     1912000   1.911999e-05   4.600702e+01   2.223705e+01   3.273509e+01   2.400982e+06   4.901704e+05   9.480949e+05  -4.810681e+01   2.356396e+02   9.938854e-20   2.627521e+06   9.621770e-37   0.000000e+00   0.000000e+00
     1920000   1.919999e-05   4.619910e+01   2.227626e+01   3.281093e+01   2.400982e+06   4.901704e+05   9.480949e+05  -4.965384e+01   2.432174e+02  -2.917689e-19   2.627521e+06   1.024770e-36   0.000000e+00   0.000000e+00
     1928000   1.927999e-05   4.639118e+01   2.231547e+01   3.288678e+01   2.400982e+06   4.901704e+05   9.480949e+05  -4.038640e+01   1.978230e+02   2.222381e-19   2.627521e+06   6.780677e-37   0.000000e+00   0.000000e+00
     1936000   1.935999e-05   4.658326e+01   2.235469e+01   3.296263e+01   2.400982e+06   4.901704e+05   9.480949e+05  -3.471091e+01   1.700230e+02  -4.737073e-21   2.627521e+06   5.009038e-37   0.000000e+00   0.000000e+00
     1944000   1.943999e-05   4.677534e+01   2.239390e+01   3.303848e+01   2.400982e+06   4.901704e+05   9.480949e+05  -4.816118e+01   2.359059e+02   2.423886e-19   2.627521e+06   9.641642e-37   0.000000e+00   0.000000e+00
     1952000   1.951999e-05   4.696742e+01   2.243311e+01   3.311432e+01   2.400982e+06   4.901704e+05   9.480949e+05  -3.652979e+01   1.789324e+02   2.715018e-19   2.627521e+06   5.547141e-37   0.000000e+00   0.000000e+00
     1960000   1.959999e-05   4.715950e+01   2.247233e+01   3.319017e+01   2.400982e+06   4.901704e+05   9.480949e+05  -2.660036e+01   1.302955e+02  -2.554245e-19   2.627521e+06   2.941923e-37   0.000000e+00   0.000000e+00
     1968000   1.967999e-05   4.735157e+01   2.251154e+01   3.326602e+01   2.400982e+06   4.901704e+05   9.480949e+05  -3.504485e+01   1.716587e+02   1.182830e-19   2.627521e+06   5.105307e-37   0.000000e+00   0.000000e+00
     1976000   1.975999e-05   4.754365e+01   2.255076e+01   3.334187e+01   2.400982e+06   4.901704e+05   9.480949e+05  -3.605060e+01   1.765852e+02   1.534072e-19   2.627521e+06   5.402428e-37   0.000000e+00   0.000000e+00
     1984000   1.983999e-05   4.773573e+01   2.258997e+01   3.341772e+01   2.400982e+06   4.901704e+05   9.480949e+05  -2.261807e+01   1.107892e+02   6.491025e-21   2.627521e+06   2.126536e-37   0.000000e+00   0.000000e+00
     1992000   1.991999e-05   4.792781e+01   2.262918e+01   3.349356e+01   2.400982e+06   4.901704e+05   9.480949e+05  -2.930292e+01   1.435333e+02   2.246514e-20   2.627521e+06   3.570085e-37   0.000000e+00   0.000000e+00
     2000000   1.999999e-05   4.811989e+01   2.266840e+01   3.356941e+01   2.400982e+06   4.901704e+05   9.480949e+05  -3.470810e+01   1.700093e+02  -1.473065e-19   2.627521e+06   5.007366e-37   0.000000e+00   0.000000e+00
     2008000   2.007999e-05   4.831197e+01   2.270761e+01   3.364526e+01   2.400982e+06   4.901704e+05   9.480949e+05  -2.864784e+01   1.403245e+02  -1.225625e-19   2.627521e+06   3.411506e-37   0.000000e+00   0.000000e+00
     2016000   2.015999e-05   4.850405e+01   2.274682e+01   3.372111e+01   2.400982e+06   4.901704e+05   9.480949e+05  -3.443200e+01   1.686568e+02  -1.447136e-19   2.627521e+06   4.928847e-37   0.000000e+00   0.000000e+00
     2024000   2.023999e-05   4.869612e+01   2.278604e+01   3.379695e+01   2.400982e+06   4.901704e+05   9.480949e+05  -1.679163e+01   8.224974e+01   5.946447e-20   2.627521e+06   1.172554e-37   0.000000e+00   0.000000e+00
     2032000   2.031999e-05   4.888820e+01   2.282525e+01   3.387280e+01   2.400982e+06   4.901704e+05   9.480949e+05  -2.645690e+01   1.295927e+02   1.075528e-19   2.627521e+06   2.909870e-37   0.000000e+00   0.000000e+00
     2040000   2.039999e-05   4.908028e+01   2.286446e+01   3.394865e+01   2.400982e+06   4.901704e+05   9.480949e+05  -4.296581e+01   2.104577e+02  -1.111236e-19   2.627521e+06   7.671798e-37   0.000000e+00   0.000000e+00
     2048000   2.047999e-05   4.927236e+01   2.290368e+01   3.402450e+01   2.400982e+06   4.901704e+05   9.480949e+05  -2.751149e+01   1.347584e+02  -1.151698e-19   2.627521e+06   3.146302e-37   0.000000e+00   0.000000e+00
     2056000   2.055999e-05   4.946444e+01   2.294289e+01   3.410034e+01   2.400982e+06   4.901704e+05   9.480949e+05  -2.821051e+01   1.381824e+02  -6.621127e-21   2.627521e+06   3.307863e-37   0.000000e+00   0.000000e+00
     2064000   2.063999e-05   4.965652e+01   2.298211e+01   3.417619e+01   2.400981e+06   4.901751e+05   9.480949e+05  -6.616039e+07   3.240675e+08  -1.955044e-13   2.627521e+06   1.818264e-24   0.000000e+00   0.000000e+00
     2072000   2.071999e-05   4.984860e+01   2.302132e+01   3.425204e+01   2.400974e+06   4.902060e+05   9.480949e+05  -4.757648e+07   2.330243e+08  -9.595462e-14   2.627521e+06   9.418569e-25   0.000000e+00   0.000000e+00
