     timestep     time              x             y              z              vx             vy             vz             ax             ay             az         v_magnitude      ELoss        Electronic      Nuclear
           0   0.000000e+00   1.000000e-01   1.038111e+01   2.096498e+01   8.574467e+04  -9.438919e+04   1.519789e+06   0.000000e+00   0.000000e+00   0.000000e+00   1.525130e+06   0.000000e+00   0.000000e+00   0.000000e+00
        8000   7.999000e-08   1.068596e-01   1.037356e+01   2.108657e+01   8.574545e+04  -9.438849e+04   1.519789e+06   1.602808e+07   1.456041e+07   4.235985e-15   1.525130e+06   2.626930e-27   0.000000e+00   0.000000e+00
       16000   1.599900e-07   1.137193e-01   1.036600e+01   2.120815e+01   8.574582e+04  -9.438816e+04   1.519789e+06   9.859960e+06   8.957165e+06   2.372851e-15   1.525130e+06   9.940458e-28   0.000000e+00   0.000000e+00
       24000   2.399900e-07   1.205790e-01   1.035845e+01   2.132973e+01   8.574668e+04  -9.438737e+04   1.519789e+06   3.535678e+06   3.212004e+06   6.394239e-16   1.525130e+06   1.279262e-28   0.000000e+00   0.000000e+00
       32000   3.199900e-07   1.274387e-01   1.035090e+01   2.145132e+01   8.574705e+04  -9.438703e+04   1.519789e+06   1.131122e+07   1.027581e+07   2.605504e-15   1.525130e+06   1.308265e-27   0.000000e+00   0.000000e+00
       40000   3.999900e-07   1.342985e-01   1.034335e+01   2.157290e+01   8.574758e+04  -9.438655e+04   1.519789e+06  -6.064351e+04  -5.509296e+04  -2.268457e-17   1.525130e+06   3.627613e-32   0.000000e+00   0.000000e+00
       48000   4.799900e-07   1.411583e-01   1.033580e+01   2.169448e+01   8.574817e+04  -9.438601e+04   1.519789e+06   1.276246e+07   1.159449e+07   1.995698e-15   1.525130e+06   1.665572e-27   0.000000e+00   0.000000e+00
       56000   5.599900e-07   1.480182e-01   1.032825e+01   2.181606e+01   8.574836e+04  -9.438585e+04   1.519789e+06   6.594523e+06   5.991041e+06  -8.191631e-16   1.525130e+06   4.446338e-28   0.000000e+00   0.000000e+00
       64000   6.399900e-07   1.548781e-01   1.032070e+01   2.193765e+01   8.574893e+04  -9.438532e+04   1.519789e+06   1.438496e+06   1.306872e+06   6.271539e-17   1.525130e+06   2.119528e-29   0.000000e+00   0.000000e+00
       72000   7.199900e-07   1.617380e-01   1.031315e+01   2.205923e+01   8.574914e+04  -9.438513e+04   1.519789e+06   8.045827e+06   7.309655e+06  -3.489306e-15   1.525130e+06   6.619213e-28   0.000000e+00   0.000000e+00
       80000   7.999900e-07   1.685979e-01   1.030560e+01   2.218081e+01   8.574943e+04  -9.438487e+04   1.519789e+06  -2.157798e+06  -1.960377e+06   9.297175e-16   1.525130e+06   4.757232e-29   0.000000e+00   0.000000e+00
       88000   8.799900e-07   1.754579e-01   1.029805e+01   2.230240e+01   8.574948e+04  -9.438483e+04   1.519789e+06   9.506189e+06   8.636459e+06  -2.019584e-15   1.525130e+06   9.240528e-28   0.000000e+00   0.000000e+00
       96000   9.599900e-07   1.823179e-01   1.029050e+01   2.242398e+01   8.575021e+04  -9.438417e+04   1.519789e+06  -5.715842e+06  -5.192975e+06   6.917969e-16   1.525130e+06   3.340201e-28   0.000000e+00   0.000000e+00
      104000   1.039990e-06   1.891779e-01   1.028295e+01   2.254556e+01   8.575007e+04  -9.438429e+04   1.519789e+06   1.095238e+07   9.950466e+06   5.364448e-16   1.525130e+06   1.226641e-27   0.000000e+00   0.000000e+00
      112000   1.119990e-06   1.960379e-01   1.027539e+01   2.266715e+01   8.575022e+04  -9.438416e+04   1.519789e+06  -9.299582e+06  -8.448888e+06   4.235755e-16   1.525130e+06   8.843059e-28   0.000000e+00   0.000000e+00
      120000   1.199990e-06   2.028979e-01   1.026784e+01   2.278873e+01   8.575017e+04  -9.438420e+04   1.519789e+06  -1.020083e+06  -9.267684e+05   8.374611e-17   1.525130e+06   1.063718e-29   0.000000e+00   0.000000e+00
      128000   1.279990e-06   2.097579e-01   1.026029e+01   2.291031e+01   8.575029e+04  -9.438409e+04   1.519789e+06   3.371488e+05   3.063080e+05   6.660076e-17   1.525130e+06   1.164363e-30   0.000000e+00   0.000000e+00
      136000   1.359990e-06   2.166180e-01   1.025274e+01   2.303190e+01   8.575029e+04  -9.438409e+04   1.519789e+06   1.455039e+06   1.321939e+06  -3.869086e-16   1.525130e+06   2.164616e-29   0.000000e+00   0.000000e+00
      144000   1.439990e-06   2.234780e-01   1.024519e+01   2.315348e+01   8.575038e+04  -9.438400e+04   1.519789e+06  -3.797439e+05  -3.450075e+05  -2.349877e-16   1.525130e+06   1.472878e-30   0.000000e+00   0.000000e+00
      152000   1.519990e-06   2.303380e-01   1.023764e+01   2.327506e+01   8.575043e+04  -9.438397e+04   1.519789e+06   1.935632e+06   1.758575e+06  -2.966192e-16   1.525130e+06   3.831022e-29   0.000000e+00   0.000000e+00
      160000   1.599990e-06   2.371981e-01   1.023009e+01   2.339665e+01   8.575044e+04  -9.438395e+04   1.519789e+06  -1.096636e+06  -9.963245e+05   9.665022e-17   1.525130e+06   1.229415e-29   0.000000e+00   0.000000e+00
      168000   1.679990e-06   2.440581e-01   1.022254e+01   2.351823e+01   8.575053e+04  -9.438387e+04   1.519789e+06   2.605915e+05   2.367551e+05   5.126485e-18   1.525130e+06   6.959271e-31   0.000000e+00   0.000000e+00
      176000   1.759990e-06   2.509181e-01   1.021499e+01   2.363981e+01   8.575053e+04  -9.438388e+04   1.519789e+06   9.408499e+05   8.547898e+05  -1.182297e-16   1.525130e+06   9.048870e-30   0.000000e+00   0.000000e+00
      184000   1.839990e-06   2.577782e-01   1.020744e+01   2.376139e+01   8.575059e+04  -9.438382e+04   1.519789e+06  -4.563008e+05  -4.145632e+05  -1.069632e-17   1.525130e+06   2.127104e-30   0.000000e+00   0.000000e+00
      192000   1.919990e-06   2.646382e-01   1.019989e+01   2.388298e+01   8.575060e+04  -9.438381e+04   1.519789e+06  -2.521571e+06  -2.290925e+06  -1.057417e-15   1.525130e+06   6.501799e-29   0.000000e+00   0.000000e+00
      200000   1.999990e-06   2.714983e-01   1.019234e+01   2.400456e+01   8.575073e+04  -9.438369e+04   1.519789e+06  -1.169090e+06  -1.062157e+06  -1.582507e-16   1.525130e+06   1.397285e-29   0.000000e+00   0.000000e+00
      208000   2.079990e-06   2.783583e-01   1.018479e+01   2.412614e+01   8.575064e+04  -9.438377e+04   1.519789e+06   1.901383e+06   1.727467e+06  -6.546964e-16   1.525130e+06   3.696650e-29   0.000000e+00   0.000000e+00
      216000   2.159990e-06   2.852184e-01   1.017724e+01   2.424773e+01   8.575071e+04  -9.438371e+04   1.519789e+06  -1.883476e+06  -1.711200e+06   9.276207e-16   1.525130e+06   3.627286e-29   0.000000e+00   0.000000e+00
      224000   2.239990e-06   2.920785e-01   1.016968e+01   2.436931e+01   8.575072e+04  -9.438370e+04   1.519789e+06   2.380292e+06   2.162574e+06  -7.901346e-17   1.525130e+06   5.793655e-29   0.000000e+00   0.000000e+00
      232000   2.319990e-06   2.989385e-01   1.016213e+01   2.449089e+01   8.575066e+04  -9.438375e+04   1.519789e+06  -2.597862e+06  -2.360241e+06  -8.060014e-16   1.525130e+06   6.901228e-29   0.000000e+00   0.000000e+00
      240000   2.399990e-06   3.057986e-01   1.015458e+01   2.461248e+01   8.575065e+04  -9.438376e+04   1.519789e+06  -1.244468e+00  -1.130639e+00   1.805923e-22   1.525130e+06   1.584809e-41   0.000000e+00   0.000000e+00
      248000   2.479990e-06   3.126586e-01   1.014703e+01   2.473406e+01   8.575065e+04  -9.438376e+04   1.519789e+06  -2.120370e+00  -1.926424e+00   1.472592e-22   1.525130e+06   4.596944e-41   0.000000e+00   0.000000e+00
      256000   2.559990e-06   3.195187e-01   1.013948e+01   2.485564e+01   8.575065e+04  -9.438376e+04   1.519789e+06  -2.720983e-01  -2.472100e-01   1.262102e-22   1.525130e+06   7.590642e-43   0.000000e+00   0.000000e+00
      264000   2.639990e-06   3.263787e-01   1.013193e+01   2.497723e+01   8.575065e+04  -9.438376e+04   1.519789e+06  -3.097155e+00  -2.813864e+00   1.110928e-21   1.525130e+06   9.808766e-41   0.000000e+00   0.000000e+00
      272000   2.719990e-06   3.332388e-01   1.012438e+01   2.509881e+01   8.575065e+04  -9.438376e+04   1.519789e+06   7.002716e-01   6.362191e-01  -2.141186e-22   1.525130e+06   5.010795e-42   0.000000e+00   0.000000e+00
      280000   2.799990e-06   3.400988e-01   1.011683e+01   2.522039e+01   8.575065e+04  -9.438376e+04   1.519789e+06  -9.509855e-01  -8.640006e-01   3.231438e-22   1.525130e+06   9.256093e-42   0.000000e+00   0.000000e+00
      288000   2.879990e-06   3.469589e-01   1.010928e+01   2.534198e+01   8.575065e+04  -9.438376e+04   1.519789e+06  -2.424892e+00  -2.203091e+00  -1.792815e-23   1.525130e+06   6.012395e-41   0.000000e+00   0.000000e+00
      296000   2.959990e-06   3.538189e-01   1.010173e+01   2.546356e+01   8.575065e+04  -9.438376e+04   1.519789e+06   2.138446e-02   1.942846e-02   1.444290e-24   1.525130e+06   4.534748e-45   0.000000e+00   0.000000e+00
      304000   3.039990e-06   3.606790e-01   1.009418e+01   2.558514e+01   8.575065e+04  -9.438376e+04   1.519789e+06  -1.169816e+00  -1.062815e+00  -2.358705e-22   1.525130e+06   1.399539e-41   0.000000e+00   0.000000e+00
      312000   3.119990e-06   3.675390e-01   1.008663e+01   2.570672e+01   8.575065e+04  -9.438376e+04   1.519789e+06  -1.095548e+00  -9.953402e-01   1.736045e-22   1.525130e+06   1.227469e-41   0.000000e+00   0.000000e+00
      320000   3.199990e-06   3.743991e-01   1.007908e+01   2.582831e+01   8.575065e+04  -9.438376e+04   1.519789e+06  -4.193798e+00  -3.810199e+00   5.605273e-22   1.525130e+06   1.798872e-40   0.000000e+00   0.000000e+00
      328000   3.279990e-06   3.812591e-01   1.007153e+01   2.594989e+01   8.575065e+04  -9.438376e+04   1.519789e+06  -1.349560e+00  -1.226118e+00   4.612564e-22   1.525130e+06   1.862680e-41   0.000000e+00   0.000000e+00
      336000   3.359990e-06   3.881192e-01   1.006397e+01   2.607147e+01   8.575065e+04  -9.438376e+04   1.519789e+06  -4.231131e+00  -3.844117e+00   1.263604e-21   1.525130e+06   1.831041e-40   0.000000e+00   0.000000e+00
      344000   3.439990e-06   3.949792e-01   1.005642e+01   2.619306e+01   8.575065e+04  -9.438376e+04   1.519789e+06  -1.603571e+00  -1.456896e+00  -1.131088e-22   1.525130e+06   2.629873e-41   0.000000e+00   0.000000e+00
      352000   3.519990e-06   4.018393e-01   1.004887e+01   2.631464e+01   8.575065e+04  -9.438376e+04   1.519789e+06  -2.340158e+00  -2.126108e+00   3.644491e-22   1.525130e+06   5.599616e-41   0.000000e+00   0.000000e+00
      360000   3.599990e-06   4.086993e-01   1.004132e+01   2.643622e+01   8.575065e+04  -9.438376e+04   1.519789e+06  -1.342720e+00  -1.219903e+00   2.292190e-22   1.525130e+06   1.844770e-41   0.000000e+00   0.000000e+00
      368000   3.679990e-06   4.155594e-01   1.003377e+01   2.655781e+01   8.575065e+04  -9.438376e+04   1.519789e+06  -3.144385e+00  -2.856774e+00   1.428626e-22   1.525130e+06   1.011040e-40   0.000000e+00   0.000000e+00
      376000   3.759990e-06   4.224194e-01   1.002622e+01   2.667939e+01   8.575065e+04  -9.438376e+04   1.519789e+06  -6.541938e-01  -5.943558e-01  -2.566183e-22   1.525130e+06   4.381123e-42   0.000000e+00   0.000000e+00
      384000   3.839990e-06   4.292795e-01   1.001867e+01   2.680097e+01   8.575065e+04  -9.438376e+04   1.519789e+06  -2.329520e+00  -2.116443e+00   7.513134e-22   1.525130e+06   5.551667e-41   0.000000e+00   0.000000e+00
      392000   3.919990e-06   4.361396e-01   1.001112e+01   2.692256e+01   8.575065e+04  -9.438376e+04   1.519789e+06  -2.331137e+00  -2.117912e+00  -2.934090e-22   1.525130e+06   5.556524e-41   0.000000e+00   0.000000e+00
      400000   3.999990e-06   4.429996e-01   1.000357e+01   2.704414e+01   8.575065e+04  -9.438376e+04   1.519789e+06  -1.640994e+00  -1.490895e+00  -2.167677e-23   1.525130e+06   2.755185e-41   0.000000e+00   0.000000e+00
      408000   4.079990e-06   4.498597e-01   9.996019e+00   2.716572e+01   8.575065e+04  -9.438376e+04   1.519789e+06  -2.274794e+00  -2.066723e+00  -3.573222e-22   1.525130e+06   5.292212e-41   0.000000e+00   0.000000e+00
      416000   4.159990e-06   4.567197e-01   9.988468e+00   2.728731e+01   8.575065e+04  -9.438376e+04   1.519789e+06  -3.560487e+00  -3.234816e+00  -1.753754e-21   1.525130e+06   1.296639e-40   0.000000e+00   0.000000e+00
      424000   4.239990e-06   4.635798e-01   9.980917e+00   2.740889e+01   8.575065e+04  -9.438376e+04   1.519789e+06  -3.833040e+00  -3.482438e+00   7.028634e-22   1.525130e+06   1.502746e-40   0.000000e+00   0.000000e+00
      432000   4.319990e-06   4.704398e-01   9.973366e+00   2.753047e+01   8.575065e+04  -9.438376e+04   1.519789e+06  -2.138082e+00  -1.942515e+00   3.698766e-22   1.525130e+06   4.675197e-41   0.000000e+00   0.000000e+00
      440000   4.399990e-06   4.772999e-01   9.965816e+00   2.765205e+01   8.575065e+04  -9.438376e+04   1.519789e+06  -3.451036e+00  -3.135376e+00   5.606441e-23   1.525130e+06   1.218148e-40   0.000000e+00   0.000000e+00
      448000   4.479990e-06   4.841599e-01   9.958265e+00   2.777364e+01   8.575065e+04  -9.438376e+04   1.519789e+06  -2.355976e+00  -2.140479e+00  -7.394947e-22   1.525130e+06   5.676699e-41   0.000000e+00   0.000000e+00
      456000   4.559990e-06   4.910200e-01   9.950714e+00   2.789522e+01   8.575065e+04  -9.438376e+04   1.519789e+06  -3.069033e+00  -2.788314e+00   5.595204e-22   1.525130e+06   9.634000e-41   0.000000e+00   0.000000e+00
      464000   4.639990e-06   4.978800e-01   9.943164e+00   2.801680e+01   8.575065e+04  -9.438376e+04   1.519789e+06  -3.341585e+00  -3.035937e+00   7.174940e-22   1.525130e+06   1.142107e-40   0.000000e+00   0.000000e+00
      472000   4.719990e-06   5.047401e-01   9.935613e+00   2.813839e+01   8.575065e+04  -9.438376e+04   1.519789e+06  -2.162044e+00  -1.964286e+00   6.289896e-22   1.525130e+06   4.780435e-41   0.000000e+00   0.000000e+00
      480000   4.799990e-06   5.116001e-01   9.928062e+00   2.825997e+01   8.575065e+04  -9.438376e+04   1.519789e+06  -1.706567e+00  -1.550470e+00  -4.797388e-22   1.525130e+06   2.979059e-41   0.000000e+00   0.000000e+00
      488000   4.879990e-06   5.184602e-01   9.920512e+00   2.838155e+01   8.575065e+04  -9.438376e+04   1.519789e+06  -2.395835e+00  -2.176692e+00   2.534497e-22   1.525130e+06   5.870245e-41   0.000000e+00   0.000000e+00
      496000   4.959990e-06   5.253202e-01   9.912961e+00   2.850314e+01   8.575065e+04  -9.438376e+04   1.519789e+06  -1.792014e+00  -1.628102e+00   2.702695e-22   1.525130e+06   3.284071e-41   0.000000e+00   0.000000e+00
      504000   5.039990e-06   5.321803e-01   9.905410e+00   2.862472e+01   8.575065e+04  -9.438376e+04   1.519789e+06  -2.132841e+00  -1.937754e+00   1.533581e-22   1.525130e+06   4.653063e-41   0.000000e+00   0.000000e+00
      512000   5.119990e-06   5.390403e-01   9.897859e+00   2.874630e+01   8.575065e+04  -9.438376e+04   1.519789e+06  -2.199435e+00  -1.998257e+00   5.753872e-23   1.525130e+06   4.947265e-41   0.000000e+00   0.000000e+00
      520000   5.199990e-06   5.459004e-01   9.890309e+00   2.886789e+01   8.575065e+04  -9.438376e+04   1.519789e+06  -1.919065e+00  -1.743531e+00  -3.996861e-22   1.525130e+06   3.767094e-41   0.000000e+00   0.000000e+00
      528000   5.279990e-06   5.527604e-01   9.882758e+00   2.898947e+01   8.575065e+04  -9.438376e+04   1.519789e+06  -2.449526e+00  -2.225473e+00  -4.451081e-22   1.525130e+06   6.136363e-41   0.000000e+00   0.000000e+00
      536000   5.359990e-06   5.596205e-01   9.875207e+00   2.911105e+01   8.575065e+04  -9.438376e+04   1.519789e+06  -1.941230e+00  -1.763669e+00  -4.702779e-22   1.525130e+06   3.853826e-41   0.000000e+00   0.000000e+00
      544000   5.439990e-06   5.664805e-01   9.867657e+00   2.923264e+01   8.575065e+04  -9.438376e+04   1.519789e+06  -1.971919e+00  -1.791551e+00   4.806145e-22   1.525130e+06   3.977445e-41   0.000000e+00   0.000000e+00
      552000   5.519990e-06   5.733406e-01   9.860106e+00   2.935422e+01   8.575065e+04  -9.438376e+04   1.519789e+06  -2.191322e+00  -1.990886e+00   1.760964e-22   1.525130e+06   4.910833e-41   0.000000e+00   0.000000e+00
      560000   5.599990e-06   5.802006e-01   9.852555e+00   2.947580e+01   8.575065e+04  -9.438376e+04   1.519789e+06  -1.584928e+00  -1.439957e+00   6.972476e-23   1.525130e+06   2.569543e-41   0.000000e+00   0.000000e+00
      568000   5.679990e-06   5.870607e-01   9.845005e+00   2.959738e+01   8.575065e+04  -9.438376e+04   1.519789e+06  -2.441413e+00  -2.218102e+00  -3.292591e-22   1.525130e+06   6.095780e-41   0.000000e+00   0.000000e+00
      576000   5.759990e-06   5.939208e-01   9.837454e+00   2.971897e+01   8.575065e+04  -9.438376e+04   1.519789e+06   6.859043e-01  -1.227510e+01  -8.010239e-01   1.525130e+06   8.504577e-40   0.000000e+00   0.000000e+00
      584000   5.839990e-06   6.007808e-01   9.829903e+00   2.984055e+01   8.575065e+04  -9.438376e+04   1.519789e+06  -7.530218e+00   1.137441e+00   4.955142e-01   1.525130e+06   3.263097e-40   0.000000e+00   0.000000e+00
      592000   5.919990e-06   6.076409e-01   9.822352e+00   2.996213e+01   8.575065e+04  -9.438376e+04   1.519789e+06  -3.061159e+00   8.684283e+00   7.120408e-01   1.525130e+06   4.776515e-40   0.000000e+00   0.000000e+00
      600000   5.999990e-06   6.145009e-01   9.814802e+00   3.008372e+01   8.575065e+04  -9.438376e+04   1.519789e+06  -8.242740e-01   4.204302e-01   7.261786e-02   1.525130e+06   4.831740e-42   0.000000e+00   0.000000e+00
      608000   6.079990e-06   6.213610e-01   9.807251e+00   3.020530e+01   8.575065e+04  -9.438376e+04   1.519789e+06  -1.566125e+00  -1.422874e+00   2.131501e-22   1.525130e+06   2.508680e-41   0.000000e+00   0.000000e+00
      616000   6.159990e-06   6.282210e-01   9.799700e+00   3.032688e+01   8.575065e+04  -9.438376e+04   1.519789e+06  -1.702186e+00  -1.546490e+00  -2.869696e-22   1.525130e+06   2.962970e-41   0.000000e+00   0.000000e+00
      624000   6.239990e-06   6.350811e-01   9.792150e+00   3.044847e+01   8.575065e+04  -9.438376e+04   1.519789e+06  -1.316618e+00  -1.196189e+00   5.097325e-23   1.525130e+06   1.773298e-41   0.000000e+00   0.000000e+00
      632000   6.319990e-06   6.419411e-01   9.784599e+00   3.057005e+01   8.575065e+04  -9.438376e+04   1.519789e+06  -2.045914e+00  -1.858778e+00  -4.129932e-22   1.525130e+06   4.280548e-41   0.000000e+00   0.000000e+00
      640000   6.399990e-06   6.488012e-01   9.777048e+00   3.069163e+01   8.575065e+04  -9.438376e+04   1.519789e+06  -1.086123e+00  -9.867772e-01   2.011765e-23   1.525130e+06   1.206807e-41   0.000000e+00   0.000000e+00
      648000   6.479990e-06   6.556612e-01   9.769497e+00   3.081322e+01   8.575065e+04  -9.438376e+04   1.519789e+06  -1.849200e+00  -1.680057e+00  -1.027580e-21   1.525130e+06   3.497895e-41   0.000000e+00   0.000000e+00
      656000   6.559990e-06   6.625213e-01   9.761947e+00   3.093480e+01   8.575065e+04  -9.438376e+04   1.519789e+06  -1.683181e+00  -1.529224e+00  -1.445611e-22   1.525130e+06   2.897173e-41   0.000000e+00   0.000000e+00
      664000   6.639990e-06   6.693813e-01   9.754396e+00   3.105638e+01   8.575065e+04  -9.438376e+04   1.519789e+06  -1.618706e+00  -1.470646e+00  -1.971318e-22   1.525130e+06   2.680297e-41   0.000000e+00   0.000000e+00
      672000   6.719990e-06   6.762414e-01   9.746845e+00   3.117796e+01   8.575065e+04  -9.438376e+04   1.519789e+06  -2.026910e+00  -1.841512e+00  -2.711260e-22   1.525130e+06   4.201389e-41   0.000000e+00   0.000000e+00
      680000   6.799990e-06   6.831014e-01   9.739295e+00   3.129955e+01   8.575065e+04  -9.438376e+04   1.519789e+06  -1.388211e+00  -1.261234e+00  -2.277432e-22   1.525130e+06   1.971374e-41   0.000000e+00   0.000000e+00
      688000   6.879990e-06   6.899615e-01   9.731744e+00   3.142113e+01   8.575065e+04  -9.438376e+04   1.519789e+06  -2.151289e+00  -1.954514e+00   1.586798e-22   1.525130e+06   4.733996e-41   0.000000e+00   0.000000e+00
      696000   6.959990e-06   6.968215e-01   9.724193e+00   3.154271e+01   8.575065e+04  -9.438376e+04   1.519789e+06  -1.664177e+00  -1.511958e+00   5.722551e-22   1.525130e+06   2.832115e-41   0.000000e+00   0.000000e+00
      704000   7.039990e-06   7.036816e-01   9.716643e+00   3.166430e+01   8.575065e+04  -9.438376e+04   1.519789e+06  -1.407912e+00  -1.279133e+00  -1.101350e-22   1.525130e+06   2.027978e-41   0.000000e+00   0.000000e+00
      712000   7.119990e-06   7.105416e-01   9.709092e+00   3.178588e+01   8.575065e+04  -9.438376e+04   1.519789e+06  -2.252559e+00  -2.046522e+00   4.357445e-22   1.525130e+06   5.188659e-41   0.000000e+00   0.000000e+00
      720000   7.199990e-06   7.174017e-01   9.701541e+00   3.190746e+01   8.575065e+04  -9.438376e+04   1.519789e+06  -1.200541e+00  -1.090730e+00  -2.248829e-22   1.525130e+06   1.473632e-41   0.000000e+00   0.000000e+00
      728000   7.279990e-06   7.242617e-01   9.693990e+00   3.202905e+01   8.575065e+04  -9.438376e+04   1.519789e+06  -2.982724e+00  -2.709900e+00   3.385501e-22   1.525130e+06   9.099117e-41   0.000000e+00   0.000000e+00
      736000   7.359990e-06   7.311218e-01   9.686440e+00   3.215063e+01   8.575065e+04  -9.438376e+04   1.519789e+06  -1.355981e+00  -1.231952e+00  -3.618032e-22   1.525130e+06   1.880612e-41   0.000000e+00   0.000000e+00
      744000   7.439990e-06   7.379818e-01   9.678889e+00   3.227221e+01   8.575065e+04  -9.438376e+04   1.519789e+06  -3.077568e+00  -2.796069e+00  -3.430640e-22   1.525130e+06   9.686987e-41   0.000000e+00   0.000000e+00
      752000   7.519990e-06   7.448419e-01   9.671338e+00   3.239380e+01   8.575065e+04  -9.438376e+04   1.519789e+06  -1.371784e+00  -1.246310e+00   8.482403e-23   1.525130e+06   1.924702e-41   0.000000e+00   0.000000e+00
      760000   7.599990e-06   7.517019e-01   9.663788e+00   3.251538e+01   8.575065e+04  -9.438376e+04   1.519789e+06  -1.531628e+00  -1.391533e+00  -3.236403e-22   1.525130e+06   2.399369e-41   0.000000e+00   0.000000e+00
      768000   7.679990e-06   7.585620e-01   9.656237e+00   3.263696e+01   8.575065e+04  -9.438376e+04   1.519789e+06  -3.067893e+00  -2.787278e+00   4.147469e-22   1.525130e+06   9.626175e-41   0.000000e+00   0.000000e+00
      776000   7.759990e-06   7.654221e-01   9.648686e+00   3.275855e+01   8.575065e+04  -9.438376e+04   1.519789e+06  -1.547431e+00  -1.405890e+00  -1.643360e-22   1.525130e+06   2.449138e-41   0.000000e+00   0.000000e+00
      784000   7.839990e-06   7.722821e-01   9.641136e+00   3.288013e+01   8.575065e+04  -9.438376e+04   1.519789e+06  -3.162737e+00  -2.873447e+00  -8.414613e-22   1.525130e+06   1.023057e-40   0.000000e+00   0.000000e+00
      792000   7.919990e-06   7.791422e-01   9.633585e+00   3.300171e+01   8.575065e+04  -9.438376e+04   1.519789e+06  -3.058218e+00  -2.778488e+00   1.172587e-21   1.525130e+06   9.565553e-41   0.000000e+00   0.000000e+00
      800000   7.999990e-06   7.860022e-01   9.626034e+00   3.312329e+01   8.575065e+04  -9.438376e+04   1.519789e+06  -1.723078e+00  -1.565471e+00   1.602168e-22   1.525130e+06   3.036682e-41   0.000000e+00   0.000000e+00
      808000   8.079990e-06   7.928623e-01   9.618483e+00   3.324488e+01   8.575065e+04  -9.438376e+04   1.519789e+06  -3.153062e+00  -2.864657e+00   4.905117e-22   1.525130e+06   1.016807e-40   0.000000e+00   0.000000e+00
      816000   8.159990e-06   7.997223e-01   9.610933e+00   3.336646e+01   8.575065e+04  -9.438376e+04   1.519789e+06  -1.738881e+00  -1.579829e+00  -2.549630e-22   1.525130e+06   3.092640e-41   0.000000e+00   0.000000e+00
      824000   8.239990e-06   8.065824e-01   9.603382e+00   3.348804e+01   8.575065e+04  -9.438376e+04   1.519789e+06  -1.902337e+00  -1.728334e+00  -3.993503e-22   1.525130e+06   3.701829e-41   0.000000e+00   0.000000e+00
      832000   8.319990e-06   8.134424e-01   9.595831e+00   3.360963e+01   8.575065e+04  -9.438376e+04   1.519789e+06  -3.126029e+00  -2.840097e+00  -3.436662e-22   1.525130e+06   9.993935e-41   0.000000e+00   0.000000e+00
      840000   8.399990e-06   8.203025e-01   9.588281e+00   3.373121e+01   8.575065e+04  -9.438376e+04   1.519789e+06  -1.798207e+00  -1.633728e+00  -6.048179e-22   1.525130e+06   3.307598e-41   0.000000e+00   0.000000e+00
      848000   8.479990e-06   8.271625e-01   9.580730e+00   3.385279e+01   8.575065e+04  -9.438376e+04   1.519789e+06  -3.324294e+00  -3.020227e+00  -2.456482e-22   1.525130e+06   1.130189e-40   0.000000e+00   0.000000e+00
      856000   8.559990e-06   8.340226e-01   9.573179e+00   3.397438e+01   8.575065e+04  -9.438376e+04   1.519789e+06  -1.571980e+00  -1.428194e+00  -6.106725e-22   1.525130e+06   2.527756e-41   0.000000e+00   0.000000e+00
      864000   8.639990e-06   8.408826e-01   9.565629e+00   3.409596e+01   8.575065e+04  -9.438376e+04   1.519789e+06  -3.522559e+00  -3.200357e+00   1.000662e-21   1.525130e+06   1.269026e-40   0.000000e+00   0.000000e+00
      872000   8.719990e-06   8.477427e-01   9.558078e+00   3.421754e+01   8.575065e+04  -9.438376e+04   1.519789e+06  -2.855847e+00  -2.594628e+00  -9.527759e-23   1.525130e+06   8.340988e-41   0.000000e+00   0.000000e+00
      880000   8.799990e-06   8.546027e-01   9.550527e+00   3.433913e+01   8.575065e+04  -9.438376e+04   1.519789e+06  -1.998484e+00  -1.815687e+00  -3.355518e-22   1.525130e+06   4.085354e-41   0.000000e+00   0.000000e+00
      888000   8.879990e-06   8.614628e-01   9.542976e+00   3.446071e+01   8.575065e+04  -9.438376e+04   1.519789e+06  -3.054112e+00  -2.774758e+00  -5.716695e-22   1.525130e+06   9.539369e-41   0.000000e+00   0.000000e+00
      896000   8.959990e-06   8.683228e-01   9.535426e+00   3.458229e+01   8.575065e+04  -9.438376e+04   1.519789e+06  -1.772257e+00  -1.610152e+00   2.330913e-22   1.525130e+06   3.212831e-41   0.000000e+00   0.000000e+00
      904000   9.039990e-06   8.751829e-01   9.527875e+00   3.470388e+01   8.575065e+04  -9.438376e+04   1.519789e+06  -2.424989e+00  -2.203179e+00  -6.194770e-23   1.525130e+06   6.015049e-41   0.000000e+00   0.000000e+00
      912000   9.119990e-06   8.820429e-01   9.520324e+00   3.482546e+01   8.575065e+04  -9.438376e+04   1.519789e+06  -2.585665e+00  -2.349159e+00   1.302533e-21   1.525130e+06   6.837363e-41   0.000000e+00   0.000000e+00
      920000   9.199990e-06   8.889030e-01   9.512774e+00   3.494704e+01   8.575065e+04  -9.438376e+04   1.519789e+06  -2.198762e+00  -1.997645e+00  -6.805920e-23   1.525130e+06   4.945158e-41   0.000000e+00   0.000000e+00
      928000   9.279990e-06   8.957630e-01   9.505223e+00   3.506862e+01   8.575065e+04  -9.438376e+04   1.519789e+06  -2.783930e+00  -2.529289e+00   8.255016e-22   1.525130e+06   7.926169e-41   0.000000e+00   0.000000e+00
      936000   9.359990e-06   9.026231e-01   9.497672e+00   3.519021e+01   8.575065e+04  -9.438376e+04   1.519789e+06  -2.624753e+00  -2.384671e+00   6.932249e-22   1.525130e+06   7.046251e-41   0.000000e+00   0.000000e+00
      944000   9.439990e-06   9.094831e-01   9.490122e+00   3.531179e+01   8.575065e+04  -9.438376e+04   1.519789e+06  -2.636289e+00  -2.395152e+00  -1.256892e-22   1.525130e+06   7.108325e-41   0.000000e+00   0.000000e+00
      952000   9.519990e-06   9.163432e-01   9.482571e+00   3.543337e+01   8.575065e+04  -9.438376e+04   1.519789e+06  -2.267994e+00  -2.060545e+00  -1.101771e-21   1.525130e+06   5.260923e-41   0.000000e+00   0.000000e+00
      960000   9.599990e-06   9.232032e-01   9.475020e+00   3.555496e+01   8.575065e+04  -9.438376e+04   1.519789e+06  -2.624933e+00  -2.384835e+00  -8.685006e-22   1.525130e+06   7.047218e-41   0.000000e+00   0.000000e+00
      968000   9.679990e-06   9.300633e-01   9.467469e+00   3.567654e+01   8.575065e+04  -9.438376e+04   1.519789e+06  -2.325560e+00  -2.112846e+00  -4.230523e-22   1.525130e+06   5.531381e-41   0.000000e+00   0.000000e+00
      976000   9.759990e-06   9.369234e-01   9.459919e+00   3.579812e+01   8.575065e+04  -9.438376e+04   1.519789e+06  -2.613577e+00  -2.374518e+00  -4.627538e-22   1.525130e+06   6.986375e-41   0.000000e+00   0.000000e+00
      984000   9.839990e-06   9.437834e-01   9.452368e+00   3.591971e+01   8.575065e+04  -9.438376e+04   1.519789e+06  -2.625113e+00  -2.384999e+00  -7.074399e-22   1.525130e+06   7.048185e-41   0.000000e+00   0.000000e+00
      992000   9.919990e-06   9.506435e-01   9.444817e+00   3.604129e+01   8.575065e+04  -9.438376e+04   1.519789e+06  -2.394696e+00  -2.175658e+00   1.808772e-22   1.525130e+06   5.865152e-41   0.000000e+00   0.000000e+00
     1000000   9.999990e-06   9.575035e-01   9.437267e+00   3.616287e+01   8.575065e+04  -9.438376e+04   1.519789e+06  -2.613757e+00  -2.374681e+00   2.727142e-22   1.525130e+06   6.987338e-41   0.000000e+00   0.000000e+00
     1008000   1.007999e-05   9.643636e-01   9.429716e+00   3.628446e+01   8.575065e+04  -9.438376e+04   1.519789e+06  -2.452263e+00  -2.227959e+00  -1.437500e-21   1.525130e+06   6.150530e-41   0.000000e+00   0.000000e+00
     1016000   1.015999e-05   9.712236e-01   9.422165e+00   3.640604e+01   8.575065e+04  -9.438376e+04   1.519789e+06  -2.463832e+00  -2.238470e+00  -9.378603e-22   1.525130e+06   6.208701e-41   0.000000e+00   0.000000e+00
     1024000   1.023999e-05   9.780837e-01   9.414615e+00   3.652762e+01   8.575065e+04  -9.438376e+04   1.519789e+06  -2.613937e+00  -2.374845e+00  -7.140961e-22   1.525130e+06   6.988301e-41   0.000000e+00   0.000000e+00
     1032000   1.031999e-05   9.849437e-01   9.407064e+00   3.664921e+01   8.575065e+04  -9.438376e+04   1.519789e+06  -2.521399e+00  -2.290771e+00   8.891874e-22   1.525130e+06   6.502220e-41   0.000000e+00   0.000000e+00
     1040000   1.039999e-05   9.918038e-01   9.399513e+00   3.677079e+01   8.575065e+04  -9.438376e+04   1.519789e+06  -4.414157e+00  -4.010402e+00   2.577807e-22   1.525130e+06   1.992784e-40   0.000000e+00   0.000000e+00
     1048000   1.047999e-05   9.986638e-01   9.391962e+00   3.689237e+01   8.575065e+04  -9.438376e+04   1.519789e+06  -2.764489e+00  -2.511626e+00  -1.088743e-21   1.525130e+06   7.816916e-41   0.000000e+00   0.000000e+00
     1056000   1.055999e-05   1.005524e+00   9.384412e+00   3.701395e+01   8.575065e+04  -9.438376e+04   1.519789e+06  -2.535615e+00  -2.303687e+00  -8.221837e-22   1.525130e+06   6.575547e-41   0.000000e+00   0.000000e+00
     1064000   1.063999e-05   1.012384e+00   9.376861e+00   3.713554e+01   8.575065e+04  -9.438376e+04   1.519789e+06  -2.383716e+00  -2.165682e+00  -7.860558e-22   1.525130e+06   5.811805e-41   0.000000e+00   0.000000e+00
     1072000   1.071999e-05   1.019244e+00   9.369310e+00   3.725712e+01   8.575065e+04  -9.438376e+04   1.519789e+06  -2.585937e+00  -2.349406e+00   1.094351e-22   1.525130e+06   6.839143e-41   0.000000e+00   0.000000e+00
     1080000   1.079999e-05   1.026104e+00   9.361760e+00   3.737870e+01   8.575065e+04  -9.438376e+04   1.519789e+06  -2.093942e+00  -1.902413e+00  -1.890535e-22   1.525130e+06   4.484710e-41   0.000000e+00   0.000000e+00
     1088000   1.087999e-05   1.032964e+00   9.354209e+00   3.750029e+01   8.575065e+04  -9.438376e+04   1.519789e+06  -2.276297e+00  -2.068088e+00  -8.133223e-22   1.525130e+06   5.299815e-41   0.000000e+00   0.000000e+00
     1096000   1.095999e-05   1.039824e+00   9.346658e+00   3.762187e+01   8.575065e+04  -9.438376e+04   1.519789e+06  -2.334180e+00  -2.120677e+00   1.335167e-22   1.525130e+06   5.572278e-41   0.000000e+00   0.000000e+00
     1104000   1.103999e-05   1.046684e+00   9.339108e+00   3.774345e+01   8.575065e+04  -9.438376e+04   1.519789e+06  -1.986523e+00  -1.804819e+00  -2.150371e-22   1.525130e+06   4.036392e-41   0.000000e+00   0.000000e+00
     1112000   1.111999e-05   1.053544e+00   9.331557e+00   3.786504e+01   8.575065e+04  -9.438376e+04   1.519789e+06  -2.384503e+00  -2.166397e+00  -6.570507e-22   1.525130e+06   5.815138e-41   0.000000e+00   0.000000e+00
     1120000   1.119999e-05   1.060404e+00   9.324006e+00   3.798662e+01   8.575065e+04  -9.438376e+04   1.519789e+06  -1.696749e+00  -1.541550e+00   9.686216e-23   1.525130e+06   2.944733e-41   0.000000e+00   0.000000e+00
     1128000   1.127999e-05   1.067264e+00   9.316455e+00   3.810820e+01   8.575065e+04  -9.438376e+04   1.519789e+06  -1.879103e+00  -1.707225e+00  -8.148024e-22   1.525130e+06   3.611678e-41   0.000000e+00   0.000000e+00
     1136000   1.135999e-05   1.074124e+00   9.308905e+00   3.822979e+01   8.575065e+04  -9.438376e+04   1.519789e+06  -2.132746e+00  -1.937667e+00   5.175604e-22   1.525130e+06   4.652009e-41   0.000000e+00   0.000000e+00
     1144000   1.143999e-05   1.080984e+00   9.301354e+00   3.835137e+01   8.575065e+04  -9.438376e+04   1.519789e+06  -1.589330e+00  -1.443956e+00   7.220312e-23   1.525130e+06   2.583691e-41   0.000000e+00   0.000000e+00
     1152000   1.151999e-05   1.087844e+00   9.293803e+00   3.847295e+01   8.575065e+04  -9.438376e+04   1.519789e+06  -1.625320e+00  -1.476655e+00   9.115144e-23   1.525130e+06   2.701863e-41   0.000000e+00   0.000000e+00
     1160000   1.159999e-05   1.094705e+00   9.286253e+00   3.859454e+01   8.575065e+04  -9.438376e+04   1.519789e+06  -2.918090e+00  -2.651177e+00  -1.886523e-21   1.525130e+06   8.709196e-41   0.000000e+00   0.000000e+00
     1168000   1.167999e-05   1.101565e+00   9.278702e+00   3.871612e+01   8.575065e+04  -9.438376e+04   1.519789e+06  -1.542760e+00  -1.401647e+00  -2.578644e-22   1.525130e+06   2.434869e-41   0.000000e+00   0.000000e+00
     1176000   1.175999e-05   1.108425e+00   9.271151e+00   3.883770e+01   8.575065e+04  -9.438376e+04   1.519789e+06  -2.097919e+00  -1.906026e+00   5.418547e-22   1.525130e+06   4.500828e-41   0.000000e+00   0.000000e+00
     1184000   1.183999e-05   1.115285e+00   9.263601e+00   3.895928e+01   8.575065e+04  -9.438376e+04   1.519789e+06  -9.974331e-01  -9.061997e-01  -2.307915e-23   1.525130e+06   1.017888e-41   0.000000e+00   0.000000e+00
     1192000   1.191999e-05   1.122145e+00   9.256050e+00   3.908087e+01   8.575065e+04  -9.438376e+04   1.519789e+06  -2.378424e+00  -2.160874e+00   2.025199e-22   1.525130e+06   5.784973e-41   0.000000e+00   0.000000e+00
     1200000   1.199999e-05   1.129005e+00   9.248499e+00   3.920245e+01   8.575065e+04  -9.438376e+04   1.519789e+06  -1.394065e+00  -1.266553e+00  -1.275063e-21   1.525130e+06   1.987230e-41   0.000000e+00   0.000000e+00
     1208000   1.207999e-05   1.135865e+00   9.240948e+00   3.932403e+01   8.575065e+04  -9.438376e+04   1.519789e+06  -1.304054e+00  -1.184775e+00   3.462001e-22   1.525130e+06   1.739754e-41   0.000000e+00   0.000000e+00
     1216000   1.215999e-05   1.142725e+00   9.233398e+00   3.944562e+01   8.575065e+04  -9.438376e+04   1.519789e+06  -1.674570e+00  -1.521401e+00   3.961043e-22   1.525130e+06   2.867512e-41   0.000000e+00   0.000000e+00
     1224000   1.223999e-05   1.149585e+00   9.225847e+00   3.956720e+01   8.575065e+04  -9.438376e+04   1.519789e+06  -7.587270e-01  -6.893276e-01   1.516817e-22   1.525130e+06   5.890491e-42   0.000000e+00   0.000000e+00
     1232000   1.231999e-05   1.156445e+00   9.218296e+00   3.968878e+01   8.575065e+04  -9.438376e+04   1.519789e+06  -1.955076e+00  -1.776248e+00  -2.300106e-22   1.525130e+06   3.908744e-41   0.000000e+00   0.000000e+00
     1240000   1.239999e-05   1.163305e+00   9.210746e+00   3.981037e+01   8.575065e+04  -9.438376e+04   1.519789e+06  -9.707167e-01  -8.819270e-01   1.705642e-23   1.525130e+06   9.634383e-42   0.000000e+00   0.000000e+00
     1248000   1.247999e-05   1.170165e+00   9.203195e+00   3.993195e+01   8.575065e+04  -9.438376e+04   1.519789e+06  -1.065348e+00  -9.679026e-01  -1.968188e-22   1.525130e+06   1.161197e-41   0.000000e+00   0.000000e+00
     1256000   1.255999e-05   1.177025e+00   9.195644e+00   4.005353e+01   8.575065e+04  -9.438376e+04   1.519789e+06  -1.961649e+00  -1.782221e+00   5.833733e-22   1.525130e+06   3.935418e-41   0.000000e+00   0.000000e+00
     1264000   1.263999e-05   1.183885e+00   9.188094e+00   4.017512e+01   8.575065e+04  -9.438376e+04   1.519789e+06  -2.823691e+00  -2.565414e+00  -1.307922e-21   1.525130e+06   8.155179e-41   0.000000e+00   0.000000e+00
     1272000   1.271999e-05   1.190745e+00   9.180543e+00   4.029670e+01   8.575065e+04  -9.438376e+04   1.519789e+06  -2.273510e+00  -2.065556e+00  -7.105732e-22   1.525130e+06   5.286233e-41   0.000000e+00   0.000000e+00
     1280000   1.279999e-05   1.197605e+00   9.172992e+00   4.041828e+01   8.575065e+04  -9.438376e+04   1.519789e+06  -2.001753e+00  -1.818656e+00   8.202248e-23   1.525130e+06   4.097979e-41   0.000000e+00   0.000000e+00
     1288000   1.287999e-05   1.204465e+00   9.165441e+00   4.053987e+01   8.575065e+04  -9.438376e+04   1.519789e+06  -1.318813e+00  -1.198184e+00  -1.888706e-22   1.525130e+06   1.779197e-41   0.000000e+00   0.000000e+00
     1296000   1.295999e-05   1.211325e+00   9.157891e+00   4.066145e+01   8.575065e+04  -9.438376e+04   1.519789e+06  -1.418543e+00  -1.288792e+00  -1.725253e-22   1.525130e+06   2.057760e-41   0.000000e+00   0.000000e+00
     1304000   1.303999e-05   1.218185e+00   9.150340e+00   4.078303e+01   8.575065e+04  -9.438376e+04   1.519789e+06  -1.035612e+00  -9.408866e-01  -3.267746e-22   1.525130e+06   1.097167e-41   0.000000e+00   0.000000e+00
     1312000   1.311999e-05   1.225046e+00   9.142789e+00   4.090461e+01   8.575065e+04  -9.438376e+04   1.519789e+06  -1.687516e+00  -1.533162e+00  -5.647531e-22   1.525130e+06   2.912972e-41   0.000000e+00   0.000000e+00
     1320000   1.319999e-05   1.231906e+00   9.135239e+00   4.102620e+01   8.575065e+04  -9.438376e+04   1.519789e+06  -1.022854e+00  -9.292957e-01  -4.366212e-22   1.525130e+06   1.069817e-41   0.000000e+00   0.000000e+00
     1328000   1.327999e-05   1.238766e+00   9.127688e+00   4.114778e+01   8.575065e+04  -9.438376e+04   1.519789e+06  -1.404315e+00  -1.275865e+00   1.587676e-22   1.525130e+06   2.017352e-41   0.000000e+00   0.000000e+00
     1336000   1.335999e-05   1.245626e+00   9.120137e+00   4.126936e+01   8.575065e+04  -9.438376e+04   1.519789e+06  -1.288065e+00  -1.170248e+00   4.229565e-22   1.525130e+06   1.696593e-41   0.000000e+00   0.000000e+00
     1344000   1.343999e-05   1.252486e+00   9.112587e+00   4.139095e+01   8.575065e+04  -9.438376e+04   1.519789e+06  -1.121114e+00  -1.018568e+00   5.955381e-22   1.525130e+06   1.285791e-41   0.000000e+00   0.000000e+00
     1352000   1.351999e-05   1.259346e+00   9.105036e+00   4.151253e+01   8.575065e+04  -9.438376e+04   1.519789e+06  -1.773017e+00  -1.610843e+00   3.564215e-22   1.525130e+06   3.215613e-41   0.000000e+00   0.000000e+00
     1360000   1.359999e-05   1.266206e+00   9.097485e+00   4.163411e+01   8.575065e+04  -9.438376e+04   1.519789e+06  -3.991206e+00  -3.626137e+00  -6.414602e-22   1.525130e+06   1.629051e-40   0.000000e+00   0.000000e+00
     1368000   1.367999e-05   1.273066e+00   9.089934e+00   4.175570e+01   8.575065e+04  -9.438376e+04   1.519789e+06  -2.682692e+00  -2.437311e+00   6.584896e-22   1.525130e+06   7.361966e-41   0.000000e+00   0.000000e+00
     1376000   1.375999e-05   1.279926e+00   9.082384e+00   4.187728e+01   8.575065e+04  -9.438376e+04   1.519789e+06  -4.891615e+00  -4.444188e+00  -5.064468e-22   1.525130e+06   2.447039e-40   0.000000e+00   0.000000e+00
     1384000   1.383999e-05   1.286786e+00   9.074833e+00   4.199886e+01   8.575065e+04  -9.438376e+04   1.519789e+06  -2.198407e+00  -1.997323e+00  -1.211305e-21   1.525130e+06   4.944068e-41   0.000000e+00   0.000000e+00
     1392000   1.391999e-05   1.293646e+00   9.067282e+00   4.212045e+01   8.575065e+04  -9.438376e+04   1.519789e+06  -3.489712e+00  -3.170515e+00  -4.843459e-22   1.525130e+06   1.245704e-40   0.000000e+00   0.000000e+00
     1400000   1.399999e-05   1.300506e+00   9.059732e+00   4.224203e+01   8.575065e+04  -9.438376e+04   1.519789e+06  -1.545134e+00  -1.403803e+00  -8.865369e-22   1.525130e+06   2.441635e-41   0.000000e+00   0.000000e+00
     1408000   1.407999e-05   1.307366e+00   9.052181e+00   4.236361e+01   8.575065e+04  -9.438376e+04   1.519789e+06  -2.402489e+00  -2.182738e+00   3.609903e-22   1.525130e+06   5.903546e-41   0.000000e+00   0.000000e+00
     1416000   1.415999e-05   1.314226e+00   9.044630e+00   4.248519e+01   8.575065e+04  -9.438376e+04   1.519789e+06  -1.902282e+00  -1.728284e+00  -1.214676e-21   1.525130e+06   3.700873e-41   0.000000e+00   0.000000e+00
     1424000   1.423999e-05   1.321086e+00   9.037079e+00   4.260678e+01   8.575065e+04  -9.438376e+04   1.519789e+06  -1.805215e+00  -1.640096e+00  -3.591954e-23   1.525130e+06   3.332815e-41   0.000000e+00   0.000000e+00
     1432000   1.431999e-05   1.327946e+00   9.029529e+00   4.272836e+01   8.575065e+04  -9.438376e+04   1.519789e+06  -2.867965e+00  -2.605637e+00  -9.361583e-22   1.525130e+06   8.412714e-41   0.000000e+00   0.000000e+00
     1440000   1.439999e-05   1.334806e+00   9.021978e+00   4.284994e+01   8.575065e+04  -9.438376e+04   1.519789e+06  -2.162363e+00  -1.964576e+00  -7.766620e-23   1.525130e+06   4.782059e-41   0.000000e+00   0.000000e+00
     1448000   1.447999e-05   1.341666e+00   9.014427e+00   4.297153e+01   8.575065e+04  -9.438376e+04   1.519789e+06  -2.994522e+00  -2.720618e+00   1.294732e-21   1.525130e+06   9.171555e-41   0.000000e+00   0.000000e+00
     1456000   1.455999e-05   1.348526e+00   9.006877e+00   4.309311e+01   8.575065e+04  -9.438376e+04   1.519789e+06  -2.519511e+00  -2.289056e+00  -1.213439e-22   1.525130e+06   6.492223e-41   0.000000e+00   0.000000e+00
     1464000   1.463999e-05   1.355387e+00   8.999326e+00   4.321469e+01   8.575065e+04  -9.438376e+04   1.519789e+06  -4.407912e+00  -4.004729e+00   8.001634e-22   1.525130e+06   1.987290e-40   0.000000e+00   0.000000e+00
     1472000   1.471999e-05   1.362247e+00   8.991775e+00   4.333628e+01   8.575065e+04  -9.438376e+04   1.519789e+06  -5.817865e+00  -5.285716e+00  -9.262001e-22   1.525130e+06   3.461775e-40   0.000000e+00   0.000000e+00
     1480000   1.479999e-05   1.369107e+00   8.984225e+00   4.345786e+01   8.575065e+04  -9.438376e+04   1.519789e+06  -4.037106e+00  -3.667840e+00  -1.273833e-21   1.525130e+06   1.667005e-40   0.000000e+00   0.000000e+00
     1488000   1.487999e-05   1.375967e+00   8.976674e+00   4.357944e+01   8.575065e+04  -9.438376e+04   1.519789e+06  -5.939316e+00  -5.396057e+00  -9.337074e-23   1.525130e+06   3.607817e-40   0.000000e+00   0.000000e+00
     1496000   1.495999e-05   1.382827e+00   8.969123e+00   4.370103e+01   8.575065e+04  -9.438376e+04   1.519789e+06  -5.582931e+00  -5.072270e+00   9.847909e-23   1.525130e+06   3.187834e-40   0.000000e+00   0.000000e+00
     1504000   1.503999e-05   1.389687e+00   8.961572e+00   4.382261e+01   8.575065e+04  -9.438376e+04   1.519789e+06  -3.898008e+00  -3.541464e+00  -7.128043e-22   1.525130e+06   1.554113e-40   0.000000e+00   0.000000e+00
     1512000   1.511999e-05   1.396547e+00   8.954022e+00   4.394419e+01   8.575065e+04  -9.438376e+04   1.519789e+06  -5.704382e+00  -5.182612e+00  -3.662696e-21   1.525130e+06   3.328040e-40   0.000000e+00   0.000000e+00
     1520000   1.519999e-05   1.403407e+00   8.946471e+00   4.406578e+01   8.575065e+04  -9.438376e+04   1.519789e+06  -2.849174e+00  -2.588565e+00  -8.178454e-22   1.525130e+06   8.301416e-41   0.000000e+00   0.000000e+00
     1528000   1.527999e-05   1.410267e+00   8.938920e+00   4.418736e+01   8.575065e+04  -9.438376e+04   1.519789e+06  -2.354027e+00  -2.138709e+00  -7.203933e-22   1.525130e+06   5.668583e-41   0.000000e+00   0.000000e+00
     1536000   1.535999e-05   1.417127e+00   8.931370e+00   4.430894e+01   8.575065e+04  -9.438376e+04   1.519789e+06  -3.430345e+00  -3.116578e+00   3.829735e-22   1.525130e+06   1.203663e-40   0.000000e+00   0.000000e+00
     1544000   1.543999e-05   1.423987e+00   8.923819e+00   4.443052e+01   8.575065e+04  -9.438376e+04   1.519789e+06  -2.816660e+00  -2.559025e+00  -3.854639e-23   1.525130e+06   8.113018e-41   0.000000e+00   0.000000e+00
     1552000   1.551999e-05   1.430847e+00   8.916268e+00   4.455211e+01   8.575065e+04  -9.438376e+04   1.519789e+06  -2.965770e+00  -2.694496e+00  -9.762698e-22   1.525130e+06   8.997291e-41   0.000000e+00   0.000000e+00
     1560000   1.559999e-05   1.437707e+00   8.908718e+00   4.467369e+01   8.575065e+04  -9.438376e+04   1.519789e+06  -3.667388e+00  -3.331939e+00  -1.395208e-21   1.525130e+06   1.375444e-40   0.000000e+00   0.000000e+00
     1568000   1.567999e-05   1.444567e+00   8.901167e+00   4.479527e+01   8.575065e+04  -9.438376e+04   1.519789e+06  -2.501195e+00  -2.272415e+00  -3.733093e-23   1.525130e+06   6.399444e-41   0.000000e+00   0.000000e+00
     1576000   1.575999e-05   1.451427e+00   8.893616e+00   4.491686e+01   8.575065e+04  -9.438376e+04   1.519789e+06  -4.152350e+00  -3.772542e+00  -6.151952e-22   1.525130e+06   1.763380e-40   0.000000e+00   0.000000e+00
     1584000   1.583999e-05   1.458287e+00   8.886065e+00   4.503844e+01   8.575065e+04  -9.438376e+04   1.519789e+06   3.733407e-01   3.391919e-01   9.109061e-23   1.525130e+06   1.424278e-42   0.000000e+00   0.000000e+00
     1592000   1.591999e-05   1.465147e+00   8.878515e+00   4.516002e+01   8.575065e+04  -9.438376e+04   1.519789e+06  -4.196345e+00  -3.812513e+00  -1.949638e-21   1.525130e+06   1.800945e-40   0.000000e+00   0.000000e+00
     1600000   1.599999e-05   1.472007e+00   8.870964e+00   4.528161e+01   8.575065e+04  -9.438376e+04   1.519789e+06   1.412516e+00   1.283316e+00   4.781545e-22   1.525130e+06   2.040153e-41   0.000000e+00   0.000000e+00
     1608000   1.607999e-05   1.478867e+00   8.863413e+00   4.540319e+01   8.575065e+04  -9.438376e+04   1.519789e+06   1.089480e+00   9.898273e-01   4.513123e-23   1.525130e+06   1.213622e-41   0.000000e+00   0.000000e+00
     1616000   1.615999e-05   1.485728e+00   8.855863e+00   4.552477e+01   8.575065e+04  -9.438376e+04   1.519789e+06  -3.419713e+00  -3.106918e+00  -1.254720e-22   1.525130e+06   1.196003e-40   0.000000e+00   0.000000e+00
     1624000   1.623999e-05   1.492588e+00   8.848312e+00   4.564636e+01   8.575065e+04  -9.438376e+04   1.519789e+06   2.128656e+00   1.933951e+00   2.181395e-22   1.525130e+06   4.633635e-41   0.000000e+00   0.000000e+00
     1632000   1.631999e-05   1.499448e+00   8.840761e+00   4.576794e+01   8.575065e+04  -9.438376e+04   1.519789e+06  -3.463707e+00  -3.146888e+00  -2.605604e-21   1.525130e+06   1.226975e-40   0.000000e+00   0.000000e+00
     1640000   1.639999e-05   1.506308e+00   8.833211e+00   4.588952e+01   8.575065e+04  -9.438376e+04   1.519789e+06  -3.481036e+00  -3.162632e+00   5.754699e-22   1.525130e+06   1.238926e-40   0.000000e+00   0.000000e+00
     1648000   1.647999e-05   1.513168e+00   8.825660e+00   4.601111e+01   8.575065e+04  -9.438376e+04   1.519789e+06  -1.204556e-01  -1.094378e-01  -4.014621e-23   1.525130e+06   1.469025e-43   0.000000e+00   0.000000e+00
     1656000   1.655999e-05   1.520028e+00   8.818109e+00   4.613269e+01   8.575065e+04  -9.438376e+04   1.519789e+06  -6.553112e-01  -5.953711e-01  -1.659562e-22   1.525130e+06   4.400835e-42   0.000000e+00   0.000000e+00
     1664000   1.663999e-05   1.526888e+00   8.810558e+00   4.625427e+01   8.575065e+04  -9.438376e+04   1.519789e+06  -1.634931e+00  -1.485387e+00  -2.700194e-22   1.525130e+06   2.731840e-41   0.000000e+00   0.000000e+00
     1672000   1.671999e-05   1.533748e+00   8.803008e+00   4.637585e+01   8.575065e+04  -9.438376e+04   1.519789e+06   1.488352e+00   1.352215e+00  -1.718891e-22   1.525130e+06   2.263669e-41   0.000000e+00   0.000000e+00
     1680000   1.679999e-05   1.540608e+00   8.795457e+00   4.649744e+01   8.575065e+04  -9.438376e+04   1.519789e+06   2.950653e+00   2.680762e+00   8.221304e-22   1.525130e+06   8.904619e-41   0.000000e+00   0.000000e+00
     1688000   1.687999e-05   1.547468e+00   8.787906e+00   4.661902e+01   8.575065e+04  -9.438376e+04   1.519789e+06   2.435165e+00   2.212425e+00   2.901898e-22   1.525130e+06   6.065068e-41   0.000000e+00   0.000000e+00
     1696000   1.695999e-05   1.554328e+00   8.780356e+00   4.674060e+01   8.575065e+04  -9.438376e+04   1.519789e+06  -1.670683e+00  -1.517869e+00   2.858970e-22   1.525130e+06   2.854604e-41   0.000000e+00   0.000000e+00
     1704000   1.703999e-05   1.561188e+00   8.772805e+00   4.686219e+01   8.575065e+04  -9.438376e+04   1.519789e+06   1.953399e+00   1.774726e+00   2.108123e-22   1.525130e+06   3.902660e-41   0.000000e+00   0.000000e+00
     1712000   1.711999e-05   1.568048e+00   8.765254e+00   4.698377e+01   8.575065e+04  -9.438376e+04   1.519789e+06  -1.823952e+00  -1.657119e+00   3.851281e-22   1.525130e+06   3.402409e-41   0.000000e+00   0.000000e+00
     1720000   1.719999e-05   1.574908e+00   8.757704e+00   4.710535e+01   8.575065e+04  -9.438376e+04   1.519789e+06  -1.625982e+00  -1.477257e+00  -5.074659e-22   1.525130e+06   2.703887e-41   0.000000e+00   0.000000e+00
     1728000   1.727999e-05   1.581768e+00   8.750153e+00   4.722694e+01   8.575065e+04  -9.438376e+04   1.519789e+06   9.561463e-01   8.686894e-01   1.744003e-22   1.525130e+06   9.350296e-42   0.000000e+00   0.000000e+00
     1736000   1.735999e-05   1.588628e+00   8.742602e+00   4.734852e+01   8.575065e+04  -9.438376e+04   1.519789e+06  -1.779251e+00  -1.616507e+00  -4.082146e-22   1.525130e+06   3.237678e-41   0.000000e+00   0.000000e+00
     1744000   1.743999e-05   1.595488e+00   8.735051e+00   4.747010e+01   8.575065e+04  -9.438376e+04   1.519789e+06   4.743808e-01   4.309901e-01  -4.771676e-23   1.525130e+06   2.301585e-42   0.000000e+00   0.000000e+00
     1752000   1.751999e-05   1.602348e+00   8.727501e+00   4.759169e+01   8.575065e+04  -9.438376e+04   1.519789e+06  -1.343919e+00  -1.220993e+00  -4.513200e-22   1.525130e+06   1.847405e-41   0.000000e+00   0.000000e+00
     1760000   1.759999e-05   1.609208e+00   8.719950e+00   4.771327e+01   8.575065e+04  -9.438376e+04   1.519789e+06  -1.778428e+00  -1.615759e+00   4.689362e-22   1.525130e+06   3.235044e-41   0.000000e+00   0.000000e+00
     1768000   1.767999e-05   1.616069e+00   8.712399e+00   4.783485e+01   8.575065e+04  -9.438376e+04   1.519789e+06  -1.755500e+00  -1.594928e+00  -3.602105e-22   1.525130e+06   3.151737e-41   0.000000e+00   0.000000e+00
     1776000   1.775999e-05   1.622929e+00   8.704849e+00   4.795644e+01   8.575065e+04  -9.438376e+04   1.519789e+06  -1.771771e+00  -1.609710e+00   2.962478e-22   1.525130e+06   3.210868e-41   0.000000e+00   0.000000e+00
     1784000   1.783999e-05   1.629789e+00   8.697298e+00   4.807802e+01   8.575065e+04  -9.438376e+04   1.519789e+06  -2.991537e+00  -2.717906e+00   3.514451e-22   1.525130e+06   9.151953e-41   0.000000e+00   0.000000e+00
     1792000   1.791999e-05   1.636649e+00   8.689747e+00   4.819960e+01   8.575065e+04  -9.438376e+04   1.519789e+06  -6.651234e-01  -6.042858e-01   1.318445e-22   1.525130e+06   4.526932e-42   0.000000e+00   0.000000e+00
     1800000   1.799999e-05   1.643509e+00   8.682197e+00   4.832118e+01   8.575065e+04  -9.438376e+04   1.519789e+06  -1.569834e+00  -1.426244e+00  -2.228016e-22   1.525130e+06   2.521047e-41   0.000000e+00   0.000000e+00
     1808000   1.807999e-05   1.650369e+00   8.674646e+00   4.844277e+01   8.575065e+04  -9.438376e+04   1.519789e+06  -3.071657e+00  -2.790698e+00  -1.141155e-21   1.525130e+06   9.648770e-41   0.000000e+00   0.000000e+00
     1816000   1.815999e-05   1.657229e+00   8.667095e+00   4.856435e+01   8.575065e+04  -9.438376e+04   1.519789e+06  -1.132212e+00  -1.028651e+00  -8.427954e-23   1.525130e+06   1.311490e-41   0.000000e+00   0.000000e+00
     1824000   1.823999e-05   1.664089e+00   8.659544e+00   4.868593e+01   8.575065e+04  -9.438376e+04   1.519789e+06  -3.874085e+00  -3.519729e+00  -2.229555e-21   1.525130e+06   1.534885e-40   0.000000e+00   0.000000e+00
     1832000   1.831999e-05   1.670949e+00   8.651994e+00   4.880752e+01   8.575065e+04  -9.438376e+04   1.519789e+06  -3.151777e+00  -2.863490e+00  -2.060284e-21   1.525130e+06   1.015872e-40   0.000000e+00   0.000000e+00
     1840000   1.839999e-05   1.677809e+00   8.644443e+00   4.892910e+01   8.575065e+04  -9.438376e+04   1.519789e+06  -1.599301e+00  -1.453016e+00  -5.894583e-22   1.525130e+06   2.616568e-41   0.000000e+00   0.000000e+00
     1848000   1.847999e-05   1.684669e+00   8.636892e+00   4.905068e+01   8.575065e+04  -9.438376e+04   1.519789e+06  -3.954205e+00  -3.592521e+00  -8.536668e-22   1.525130e+06   1.599031e-40   0.000000e+00   0.000000e+00
     1856000   1.855999e-05   1.691529e+00   8.629342e+00   4.917227e+01   8.575065e+04  -9.438376e+04   1.519789e+06  -1.161679e+00  -1.055423e+00  -4.499274e-22   1.525130e+06   1.380633e-41   0.000000e+00   0.000000e+00
     1864000   1.863999e-05   1.698389e+00   8.621791e+00   4.929385e+01   8.575065e+04  -9.438376e+04   1.519789e+06  -4.756633e+00  -4.321553e+00  -2.241596e-22   1.525130e+06   2.313902e-40   0.000000e+00   0.000000e+00
     1872000   1.871999e-05   1.705249e+00   8.614240e+00   4.941543e+01   8.575065e+04  -9.438376e+04   1.519789e+06  -3.277389e+00  -2.977612e+00   4.046776e-23   1.525130e+06   1.098740e-40   0.000000e+00   0.000000e+00
     1880000   1.879999e-05   1.712109e+00   8.606690e+00   4.953702e+01   8.575074e+04  -9.438388e+04   1.519789e+06   6.972686e+06  -9.924322e+06  -1.009751e+06   1.525130e+06   8.292810e-28   0.000000e+00   0.000000e+00
     1888000   1.887999e-05   1.718969e+00   8.599139e+00   4.965860e+01   8.575280e+04  -9.438682e+04   1.519789e+06   9.993454e+07  -1.415110e+08  -1.442730e+07   1.525130e+06   1.692548e-25   0.000000e+00   0.000000e+00
     1896000   1.895999e-05   1.725830e+00   8.591587e+00   4.978018e+01   8.575941e+04  -9.439619e+04   1.519788e+06   7.555214e+07  -1.072406e+08  -1.092416e+07   1.525130e+06   9.707200e-26   0.000000e+00   0.000000e+00
     1904000   1.903999e-05   1.732691e+00   8.584035e+00   4.990176e+01   8.576466e+04  -9.440368e+04   1.519787e+06   0.000000e+00   0.000000e+00   0.000000e+00   1.525130e+06   0.000000e+00   0.000000e+00   0.000000e+00
