     timestep     time              x             y              z              vx             vy             vz             ax             ay             az         v_magnitude      ELoss        Electronic      Nuclear
           0   0.000000e+00   1.000000e-01   1.961877e+01   1.005678e+01   5.869048e+05   1.015196e+06  -1.111007e+05   0.000000e+00   0.000000e+00   0.000000e+00   1.177889e+06   0.000000e+00   0.000000e+00   0.000000e+00
        8000   7.999000e-08   1.469524e-01   1.969999e+01   1.004789e+01   5.869048e+05   1.015196e+06  -1.111007e+05   0.000000e+00   0.000000e+00   0.000000e+00   1.177889e+06   0.000000e+00   0.000000e+00   0.000000e+00
       16000   1.599900e-07   1.939048e-01   1.978120e+01   1.003901e+01   5.869048e+05   1.015196e+06  -1.111007e+05   0.000000e+00   0.000000e+00   0.000000e+00   1.177889e+06   0.000000e+00   0.000000e+00   0.000000e+00
       24000   2.399900e-07   2.408572e-01   1.986242e+01   1.003012e+01   5.869048e+05   1.015196e+06  -1.111007e+05   0.000000e+00   0.000000e+00   0.000000e+00   1.177889e+06   0.000000e+00   0.000000e+00   0.000000e+00
       32000   3.199900e-07   2.878095e-01   1.994363e+01   1.002123e+01   5.869048e+05   1.015196e+06  -1.111007e+05   0.000000e+00   0.000000e+00   0.000000e+00   1.177889e+06   0.000000e+00   0.000000e+00   0.000000e+00
       40000   3.999900e-07   3.347619e-01   2.002485e+01   1.001234e+01   5.869048e+05   1.015196e+06  -1.111007e+05   0.000000e+00   0.000000e+00   0.000000e+00   1.177889e+06   0.000000e+00   0.000000e+00   0.000000e+00
       48000   4.799900e-07   3.817143e-01   2.010606e+01   1.000345e+01   5.869048e+05   1.015196e+06  -1.111007e+05   0.000000e+00   0.000000e+00   0.000000e+00   1.177889e+06   0.000000e+00   0.000000e+00   0.000000e+00
       56000   5.599900e-07   4.286667e-01   2.018728e+01   9.994566e+00   5.869048e+05   1.015196e+06  -1.111007e+05   0.000000e+00   0.000000e+00   0.000000e+00   1.177889e+06   0.000000e+00   0.000000e+00   0.000000e+00
       64000   6.399900e-07   4.756191e-01   2.026850e+01   9.985678e+00   5.869048e+05   1.015196e+06  -1.111007e+05   0.000000e+00   0.000000e+00   0.000000e+00   1.177889e+06   0.000000e+00   0.000000e+00   0.000000e+00
       72000   7.199900e-07   5.225715e-01   2.034971e+01   9.976790e+00   5.869048e+05   1.015196e+06  -1.111007e+05   0.000000e+00   0.000000e+00   0.000000e+00   1.177889e+06   0.000000e+00   0.000000e+00   0.000000e+00
       80000   7.999900e-07   5.695239e-01   2.043093e+01   9.967901e+00   5.869048e+05   1.015196e+06  -1.111007e+05   0.000000e+00   0.000000e+00   0.000000e+00   1.177889e+06   0.000000e+00   0.000000e+00   0.000000e+00
       88000   8.799900e-07   6.164762e-01   2.051214e+01   9.959013e+00   5.869048e+05   1.015196e+06  -1.111007e+05   0.000000e+00   0.000000e+00   0.000000e+00   1.177889e+06   0.000000e+00   0.000000e+00   0.000000e+00
       96000   9.599900e-07   6.634286e-01   2.059336e+01   9.950125e+00   5.869048e+05   1.015196e+06  -1.111007e+05   0.000000e+00   0.000000e+00   0.000000e+00   1.177889e+06   0.000000e+00   0.000000e+00   0.000000e+00
      104000   1.039990e-06   7.103810e-01   2.067457e+01   9.941237e+00   5.869048e+05   1.015196e+06  -1.111007e+05   0.000000e+00   0.000000e+00   0.000000e+00   1.177889e+06   0.000000e+00   0.000000e+00   0.000000e+00
      112000   1.119990e-06   7.573334e-01   2.075579e+01   9.932349e+00   5.869048e+05   1.015196e+06  -1.111007e+05   0.000000e+00   0.000000e+00   0.000000e+00   1.177889e+06   0.000000e+00   0.000000e+00   0.000000e+00
      120000   1.199990e-06   8.042858e-01   2.083701e+01   9.923461e+00   5.869048e+05   1.015196e+06  -1.111007e+05   0.000000e+00   0.000000e+00   0.000000e+00   1.177889e+06   0.000000e+00   0.000000e+00   0.000000e+00
      128000   1.279990e-06   8.512382e-01   2.091822e+01   9.914573e+00   5.869048e+05   1.015196e+06  -1.111007e+05   0.000000e+00   0.000000e+00   0.000000e+00   1.177889e+06   0.000000e+00   0.000000e+00   0.000000e+00
      136000   1.359990e-06   8.981906e-01   2.099944e+01   9.905685e+00   5.869048e+05   1.015196e+06  -1.111007e+05   0.000000e+00   0.000000e+00   0.000000e+00   1.177889e+06   0.000000e+00   0.000000e+00   0.000000e+00
      144000   1.439990e-06   9.451429e-01   2.108065e+01   9.896797e+00   5.869048e+05   1.015196e+06  -1.111007e+05   0.000000e+00   0.000000e+00   0.000000e+00   1.177889e+06   0.000000e+00   0.000000e+00   0.000000e+00
      152000   1.519990e-06   9.920953e-01   2.116187e+01   9.887909e+00   5.869048e+05   1.015196e+06  -1.111007e+05   0.000000e+00   0.000000e+00   0.000000e+00   1.177889e+06   0.000000e+00   0.000000e+00   0.000000e+00
      160000   1.599990e-06   1.039048e+00   2.124308e+01   9.879021e+00   5.869048e+05   1.015196e+06  -1.111007e+05   0.000000e+00   0.000000e+00   0.000000e+00   1.177889e+06   0.000000e+00   0.000000e+00   0.000000e+00
      168000   1.679990e-06   1.086000e+00   2.132430e+01   9.870133e+00   5.869048e+05   1.015196e+06  -1.111007e+05   0.000000e+00   0.000000e+00   0.000000e+00   1.177889e+06   0.000000e+00   0.000000e+00   0.000000e+00
      176000   1.759990e-06   1.132952e+00   2.140552e+01   9.861245e+00   5.869048e+05   1.015196e+06  -1.111007e+05   0.000000e+00   0.000000e+00   0.000000e+00   1.177889e+06   0.000000e+00   0.000000e+00   0.000000e+00
      184000   1.839990e-06   1.179905e+00   2.148673e+01   9.852357e+00   5.869048e+05   1.015196e+06  -1.111007e+05   0.000000e+00   0.000000e+00   0.000000e+00   1.177889e+06   0.000000e+00   0.000000e+00   0.000000e+00
      192000   1.919990e-06   1.226857e+00   2.156795e+01   9.843469e+00   5.869048e+05   1.015196e+06  -1.111007e+05   0.000000e+00   0.000000e+00   0.000000e+00   1.177889e+06   0.000000e+00   0.000000e+00   0.000000e+00
      200000   1.999990e-06   1.273810e+00   2.164916e+01   9.834581e+00   5.869048e+05   1.015196e+06  -1.111007e+05   0.000000e+00   0.000000e+00   0.000000e+00   1.177889e+06   0.000000e+00   0.000000e+00   0.000000e+00
      208000   2.079990e-06   1.320762e+00   2.173038e+01   9.825693e+00   5.869048e+05   1.015196e+06  -1.111007e+05   0.000000e+00   0.000000e+00   0.000000e+00   1.177889e+06   0.000000e+00   0.000000e+00   0.000000e+00
      216000   2.159990e-06   1.367714e+00   2.181159e+01   9.816805e+00   5.869048e+05   1.015196e+06  -1.111007e+05   0.000000e+00   0.000000e+00   0.000000e+00   1.177889e+06   0.000000e+00   0.000000e+00   0.000000e+00
      224000   2.239990e-06   1.414667e+00   2.189281e+01   9.807917e+00   5.869048e+05   1.015196e+06  -1.111007e+05   0.000000e+00   0.000000e+00   0.000000e+00   1.177889e+06   0.000000e+00   0.000000e+00   0.000000e+00
      232000   2.319990e-06   1.461619e+00   2.197403e+01   9.799028e+00   5.869048e+05   1.015196e+06  -1.111007e+05   0.000000e+00   0.000000e+00   0.000000e+00   1.177889e+06   0.000000e+00   0.000000e+00   0.000000e+00
      240000   2.399990e-06   1.508572e+00   2.205524e+01   9.790140e+00   5.869048e+05   1.015196e+06  -1.111007e+05   0.000000e+00   0.000000e+00   0.000000e+00   1.177889e+06   0.000000e+00   0.000000e+00   0.000000e+00
      248000   2.479990e-06   1.555524e+00   2.213646e+01   9.781252e+00   5.869048e+05   1.015196e+06  -1.111007e+05   0.000000e+00   0.000000e+00   0.000000e+00   1.177889e+06   0.000000e+00   0.000000e+00   0.000000e+00
      256000   2.559990e-06   1.602476e+00   2.221767e+01   9.772364e+00   5.869048e+05   1.015196e+06  -1.111007e+05   0.000000e+00   0.000000e+00   0.000000e+00   1.177889e+06   0.000000e+00   0.000000e+00   0.000000e+00
      264000   2.639990e-06   1.649429e+00   2.229889e+01   9.763476e+00   5.869048e+05   1.015196e+06  -1.111007e+05   0.000000e+00   0.000000e+00   0.000000e+00   1.177889e+06   0.000000e+00   0.000000e+00   0.000000e+00
      272000   2.719990e-06   1.696381e+00   2.238010e+01   9.754588e+00   5.869048e+05   1.015196e+06  -1.111007e+05   0.000000e+00   0.000000e+00   0.000000e+00   1.177889e+06   0.000000e+00   0.000000e+00   0.000000e+00
      280000   2.799990e-06   1.743334e+00   2.246132e+01   9.745700e+00   5.869048e+05   1.015196e+06  -1.111007e+05   0.000000e+00   0.000000e+00   0.000000e+00   1.177889e+06   0.000000e+00   0.000000e+00   0.000000e+00
      288000   2.879990e-06   1.790286e+00   2.254253e+01   9.736812e+00   5.869048e+05   1.015196e+06  -1.111007e+05   0.000000e+00   0.000000e+00   0.000000e+00   1.177889e+06   0.000000e+00   0.000000e+00   0.000000e+00
      296000   2.959990e-06   1.837238e+00   2.262375e+01   9.727924e+00   5.869048e+05   1.015196e+06  -1.111007e+05   0.000000e+00   0.000000e+00   0.000000e+00   1.177889e+06   0.000000e+00   0.000000e+00   0.000000e+00
      304000   3.039990e-06   1.884191e+00   2.270497e+01   9.719036e+00   5.869048e+05   1.015196e+06  -1.111007e+05   0.000000e+00   0.000000e+00   0.000000e+00   1.177889e+06   0.000000e+00   0.000000e+00   0.000000e+00
      312000   3.119990e-06   1.931143e+00   2.278618e+01   9.710148e+00   5.869048e+05   1.015196e+06  -1.111007e+05   0.000000e+00   0.000000e+00   0.000000e+00   1.177889e+06   0.000000e+00   0.000000e+00   0.000000e+00
      320000   3.199990e-06   1.978095e+00   2.286740e+01   9.701260e+00   5.869048e+05   1.015196e+06  -1.111007e+05   0.000000e+00   0.000000e+00   0.000000e+00   1.177889e+06   0.000000e+00   0.000000e+00   0.000000e+00
      328000   3.279990e-06   2.025048e+00   2.294861e+01   9.692372e+00   5.869048e+05   1.015196e+06  -1.111007e+05   0.000000e+00   0.000000e+00   0.000000e+00   1.177889e+06   0.000000e+00   0.000000e+00   0.000000e+00
      336000   3.359990e-06   2.072000e+00   2.302983e+01   9.683484e+00   5.869048e+05   1.015196e+06  -1.111007e+05   0.000000e+00   0.000000e+00   0.000000e+00   1.177889e+06   0.000000e+00   0.000000e+00   0.000000e+00
      344000   3.439990e-06   2.118953e+00   2.311104e+01   9.674596e+00   5.869048e+05   1.015196e+06  -1.111007e+05   0.000000e+00   0.000000e+00   0.000000e+00   1.177889e+06   0.000000e+00   0.000000e+00   0.000000e+00
      352000   3.519990e-06   2.165905e+00   2.319226e+01   9.665708e+00   5.869048e+05   1.015196e+06  -1.111007e+05   0.000000e+00   0.000000e+00   0.000000e+00   1.177889e+06   0.000000e+00   0.000000e+00   0.000000e+00
      360000   3.599990e-06   2.212857e+00   2.327348e+01   9.656820e+00   5.869048e+05   1.015196e+06  -1.111007e+05   0.000000e+00   0.000000e+00   0.000000e+00   1.177889e+06   0.000000e+00   0.000000e+00   0.000000e+00
      368000   3.679990e-06   2.259810e+00   2.335469e+01   9.647932e+00   5.869048e+05   1.015196e+06  -1.111007e+05   0.000000e+00   0.000000e+00   0.000000e+00   1.177889e+06   0.000000e+00   0.000000e+00   0.000000e+00
      376000   3.759990e-06   2.306762e+00   2.343591e+01   9.639044e+00   5.869048e+05   1.015196e+06  -1.111007e+05   0.000000e+00   0.000000e+00   0.000000e+00   1.177889e+06   0.000000e+00   0.000000e+00   0.000000e+00
      384000   3.839990e-06   2.353715e+00   2.351712e+01   9.630156e+00   5.869048e+05   1.015196e+06  -1.111007e+05   0.000000e+00   0.000000e+00   0.000000e+00   1.177889e+06   0.000000e+00   0.000000e+00   0.000000e+00
      392000   3.919990e-06   2.400667e+00   2.359834e+01   9.621267e+00   5.869048e+05   1.015196e+06  -1.111007e+05   0.000000e+00   0.000000e+00   0.000000e+00   1.177889e+06   0.000000e+00   0.000000e+00   0.000000e+00
      400000   3.999990e-06   2.447619e+00   2.367955e+01   9.612379e+00   5.869048e+05   1.015196e+06  -1.111007e+05   0.000000e+00   0.000000e+00   0.000000e+00   1.177889e+06   0.000000e+00   0.000000e+00   0.000000e+00
      408000   4.079990e-06   2.494572e+00   2.376077e+01   9.603491e+00   5.869048e+05   1.015196e+06  -1.111007e+05   0.000000e+00   0.000000e+00   0.000000e+00   1.177889e+06   0.000000e+00   0.000000e+00   0.000000e+00
      416000   4.159990e-06   2.541524e+00   2.384199e+01   9.594603e+00   5.869048e+05   1.015196e+06  -1.111007e+05   0.000000e+00   0.000000e+00   0.000000e+00   1.177889e+06   0.000000e+00   0.000000e+00   0.000000e+00
      424000   4.239990e-06   2.588476e+00   2.392320e+01   9.585715e+00   5.869048e+05   1.015196e+06  -1.111007e+05   0.000000e+00   0.000000e+00   0.000000e+00   1.177889e+06   0.000000e+00   0.000000e+00   0.000000e+00
      432000   4.319990e-06   2.635429e+00   2.400442e+01   9.576827e+00   5.869048e+05   1.015196e+06  -1.111007e+05   0.000000e+00   0.000000e+00   0.000000e+00   1.177889e+06   0.000000e+00   0.000000e+00   0.000000e+00
      440000   4.399990e-06   2.682381e+00   2.408563e+01   9.567939e+00   5.869048e+05   1.015196e+06  -1.111007e+05   0.000000e+00   0.000000e+00   0.000000e+00   1.177889e+06   0.000000e+00   0.000000e+00   0.000000e+00
      448000   4.479990e-06   2.729334e+00   2.416685e+01   9.559051e+00   5.869048e+05   1.015196e+06  -1.111007e+05   0.000000e+00   0.000000e+00   0.000000e+00   1.177889e+06   0.000000e+00   0.000000e+00   0.000000e+00
      456000   4.559990e-06   2.776286e+00   2.424806e+01   9.550163e+00   5.869048e+05   1.015196e+06  -1.111007e+05   0.000000e+00   0.000000e+00   0.000000e+00   1.177889e+06   0.000000e+00   0.000000e+00   0.000000e+00
      464000   4.639990e-06   2.823238e+00   2.432928e+01   9.541275e+00   5.869048e+05   1.015196e+06  -1.111007e+05   0.000000e+00   0.000000e+00   0.000000e+00   1.177889e+06   0.000000e+00   0.000000e+00   0.000000e+00
      472000   4.719990e-06   2.870191e+00   2.441049e+01   9.532387e+00   5.869048e+05   1.015196e+06  -1.111007e+05   0.000000e+00   0.000000e+00   0.000000e+00   1.177889e+06   0.000000e+00   0.000000e+00   0.000000e+00
      480000   4.799990e-06   2.917143e+00   2.449171e+01   9.523499e+00   5.869048e+05   1.015196e+06  -1.111007e+05   0.000000e+00   0.000000e+00   0.000000e+00   1.177889e+06   0.000000e+00   0.000000e+00   0.000000e+00
      488000   4.879990e-06   2.964096e+00   2.457293e+01   9.514611e+00   5.869048e+05   1.015196e+06  -1.111007e+05   0.000000e+00   0.000000e+00   0.000000e+00   1.177889e+06   0.000000e+00   0.000000e+00   0.000000e+00
      496000   4.959990e-06   3.011048e+00   2.465414e+01   9.505723e+00   5.869048e+05   1.015196e+06  -1.111007e+05   0.000000e+00   0.000000e+00   0.000000e+00   1.177889e+06   0.000000e+00   0.000000e+00   0.000000e+00
      504000   5.039990e-06   3.058000e+00   2.473536e+01   9.496835e+00   5.869048e+05   1.015196e+06  -1.111007e+05   0.000000e+00   0.000000e+00   0.000000e+00   1.177889e+06   0.000000e+00   0.000000e+00   0.000000e+00
      512000   5.119990e-06   3.104953e+00   2.481657e+01   9.487947e+00   5.869048e+05   1.015196e+06  -1.111007e+05   0.000000e+00   0.000000e+00   0.000000e+00   1.177889e+06   0.000000e+00   0.000000e+00   0.000000e+00
      520000   5.199990e-06   3.151905e+00   2.489779e+01   9.479059e+00   5.869048e+05   1.015196e+06  -1.111007e+05   0.000000e+00   0.000000e+00   0.000000e+00   1.177889e+06   0.000000e+00   0.000000e+00   0.000000e+00
      528000   5.279990e-06   3.198857e+00   2.497900e+01   9.470171e+00   5.869048e+05   1.015196e+06  -1.111007e+05   0.000000e+00   0.000000e+00   0.000000e+00   1.177889e+06   0.000000e+00   0.000000e+00   0.000000e+00
      536000   5.359990e-06   3.245810e+00   2.506022e+01   9.461283e+00   5.869048e+05   1.015196e+06  -1.111007e+05   0.000000e+00   0.000000e+00   0.000000e+00   1.177889e+06   0.000000e+00   0.000000e+00   0.000000e+00
      544000   5.439990e-06   3.292762e+00   2.514144e+01   9.452394e+00   5.869048e+05   1.015196e+06  -1.111007e+05   0.000000e+00   0.000000e+00   0.000000e+00   1.177889e+06   0.000000e+00   0.000000e+00   0.000000e+00
      552000   5.519990e-06   3.339715e+00   2.522265e+01   9.443506e+00   5.869048e+05   1.015196e+06  -1.111007e+05   0.000000e+00   0.000000e+00   0.000000e+00   1.177889e+06   0.000000e+00   0.000000e+00   0.000000e+00
      560000   5.599990e-06   3.386667e+00   2.530387e+01   9.434618e+00   5.869048e+05   1.015196e+06  -1.111007e+05   0.000000e+00   0.000000e+00   0.000000e+00   1.177889e+06   0.000000e+00   0.000000e+00   0.000000e+00
      568000   5.679990e-06   3.433619e+00   2.538508e+01   9.425730e+00   5.869048e+05   1.015196e+06  -1.111007e+05   0.000000e+00   0.000000e+00   0.000000e+00   1.177889e+06   0.000000e+00   0.000000e+00   0.000000e+00
      576000   5.759990e-06   3.480572e+00   2.546630e+01   9.416842e+00   5.869048e+05   1.015196e+06  -1.111007e+05   0.000000e+00   0.000000e+00   0.000000e+00   1.177889e+06   0.000000e+00   0.000000e+00   0.000000e+00
      584000   5.839990e-06   3.527524e+00   2.554751e+01   9.407954e+00   5.869048e+05   1.015196e+06  -1.111007e+05   0.000000e+00   0.000000e+00   0.000000e+00   1.177889e+06   0.000000e+00   0.000000e+00   0.000000e+00
      592000   5.919990e-06   3.574477e+00   2.562873e+01   9.399066e+00   5.869048e+05   1.015196e+06  -1.111007e+05   0.000000e+00   0.000000e+00   0.000000e+00   1.177889e+06   0.000000e+00   0.000000e+00   0.000000e+00
      600000   5.999990e-06   3.621429e+00   2.570995e+01   9.390178e+00   5.869048e+05   1.015196e+06  -1.111007e+05   0.000000e+00   0.000000e+00   0.000000e+00   1.177889e+06   0.000000e+00   0.000000e+00   0.000000e+00
      608000   6.079990e-06   3.668381e+00   2.579116e+01   9.381290e+00   5.869048e+05   1.015196e+06  -1.111007e+05   0.000000e+00   0.000000e+00   0.000000e+00   1.177889e+06   0.000000e+00   0.000000e+00   0.000000e+00
      616000   6.159990e-06   3.715334e+00   2.587238e+01   9.372402e+00   5.869048e+05   1.015196e+06  -1.111007e+05   0.000000e+00   0.000000e+00   0.000000e+00   1.177889e+06   0.000000e+00   0.000000e+00   0.000000e+00
      624000   6.239990e-06   3.762286e+00   2.595359e+01   9.363514e+00   5.869048e+05   1.015196e+06  -1.111007e+05   0.000000e+00   0.000000e+00   0.000000e+00   1.177889e+06   0.000000e+00   0.000000e+00   0.000000e+00
      632000   6.319990e-06   3.809238e+00   2.603481e+01   9.354626e+00   5.869048e+05   1.015196e+06  -1.111007e+05   0.000000e+00   0.000000e+00   0.000000e+00   1.177889e+06   0.000000e+00   0.000000e+00   0.000000e+00
      640000   6.399990e-06   3.856191e+00   2.611602e+01   9.345738e+00   5.869048e+05   1.015196e+06  -1.111007e+05   0.000000e+00   0.000000e+00   0.000000e+00   1.177889e+06   0.000000e+00   0.000000e+00   0.000000e+00
      648000   6.479990e-06   3.903143e+00   2.619724e+01   9.336850e+00   5.869048e+05   1.015196e+06  -1.111007e+05   0.000000e+00   0.000000e+00   0.000000e+00   1.177889e+06   0.000000e+00   0.000000e+00   0.000000e+00
      656000   6.559990e-06   3.950096e+00   2.627845e+01   9.327962e+00   5.869048e+05   1.015196e+06  -1.111007e+05   0.000000e+00   0.000000e+00   0.000000e+00   1.177889e+06   0.000000e+00   0.000000e+00   0.000000e+00
      664000   6.639990e-06   3.997048e+00   2.635967e+01   9.319074e+00   5.869048e+05   1.015196e+06  -1.111007e+05   0.000000e+00   0.000000e+00   0.000000e+00   1.177889e+06   0.000000e+00   0.000000e+00   0.000000e+00
      672000   6.719990e-06   4.044000e+00   2.644089e+01   9.310186e+00   5.869048e+05   1.015196e+06  -1.111007e+05   0.000000e+00   0.000000e+00   0.000000e+00   1.177889e+06   0.000000e+00   0.000000e+00   0.000000e+00
      680000   6.799990e-06   4.090953e+00   2.652210e+01   9.301298e+00   5.869048e+05   1.015196e+06  -1.111007e+05   0.000000e+00   0.000000e+00   0.000000e+00   1.177889e+06   0.000000e+00   0.000000e+00   0.000000e+00
      688000   6.879990e-06   4.137905e+00   2.660332e+01   9.292410e+00   5.869048e+05   1.015196e+06  -1.111007e+05   0.000000e+00   0.000000e+00   0.000000e+00   1.177889e+06   0.000000e+00   0.000000e+00   0.000000e+00
      696000   6.959990e-06   4.184858e+00   2.668453e+01   9.283521e+00   5.869048e+05   1.015196e+06  -1.111007e+05   0.000000e+00   0.000000e+00   0.000000e+00   1.177889e+06   0.000000e+00   0.000000e+00   0.000000e+00
      704000   7.039990e-06   4.231810e+00   2.676575e+01   9.274633e+00   5.869048e+05   1.015196e+06  -1.111007e+05   0.000000e+00   0.000000e+00   0.000000e+00   1.177889e+06   0.000000e+00   0.000000e+00   0.000000e+00
      712000   7.119990e-06   4.278762e+00   2.684696e+01   9.265745e+00   5.869048e+05   1.015196e+06  -1.111007e+05   0.000000e+00   0.000000e+00   0.000000e+00   1.177889e+06   0.000000e+00   0.000000e+00   0.000000e+00
      720000   7.199990e-06   4.325715e+00   2.692818e+01   9.256857e+00   5.869048e+05   1.015196e+06  -1.111007e+05   0.000000e+00   0.000000e+00   0.000000e+00   1.177889e+06   0.000000e+00   0.000000e+00   0.000000e+00
      728000   7.279990e-06   4.372667e+00   2.700940e+01   9.247969e+00   5.869048e+05   1.015196e+06  -1.111007e+05   0.000000e+00   0.000000e+00   0.000000e+00   1.177889e+06   0.000000e+00   0.000000e+00   0.000000e+00
      736000   7.359990e-06   4.419619e+00   2.709061e+01   9.239081e+00   5.869048e+05   1.015196e+06  -1.111007e+05   0.000000e+00   0.000000e+00   0.000000e+00   1.177889e+06   0.000000e+00   0.000000e+00   0.000000e+00
      744000   7.439990e-06   4.466572e+00   2.717183e+01   9.230193e+00   5.869048e+05   1.015196e+06  -1.111007e+05   0.000000e+00   0.000000e+00   0.000000e+00   1.177889e+06   0.000000e+00   0.000000e+00   0.000000e+00
      752000   7.519990e-06   4.513524e+00   2.725304e+01   9.221305e+00   5.869048e+05   1.015196e+06  -1.111007e+05   0.000000e+00   0.000000e+00   0.000000e+00   1.177889e+06   0.000000e+00   0.000000e+00   0.000000e+00
      760000   7.599990e-06   4.560477e+00   2.733426e+01   9.212417e+00   5.869048e+05   1.015196e+06  -1.111007e+05   0.000000e+00   0.000000e+00   0.000000e+00   1.177889e+06   0.000000e+00   0.000000e+00   0.000000e+00
      768000   7.679990e-06   4.607429e+00   2.741547e+01   9.203529e+00   5.869048e+05   1.015196e+06  -1.111007e+05   0.000000e+00   0.000000e+00   0.000000e+00   1.177889e+06   0.000000e+00   0.000000e+00   0.000000e+00
      776000   7.759990e-06   4.654381e+00   2.749669e+01   9.194641e+00   5.869048e+05   1.015196e+06  -1.111007e+05   0.000000e+00   0.000000e+00   0.000000e+00   1.177889e+06   0.000000e+00   0.000000e+00   0.000000e+00
      784000   7.839990e-06   4.701334e+00   2.757791e+01   9.185753e+00   5.869048e+05   1.015196e+06  -1.111007e+05   0.000000e+00   0.000000e+00   0.000000e+00   1.177889e+06   0.000000e+00   0.000000e+00   0.000000e+00
      792000   7.919990e-06   4.748286e+00   2.765912e+01   9.176865e+00   5.869048e+05   1.015196e+06  -1.111007e+05   0.000000e+00   0.000000e+00   0.000000e+00   1.177889e+06   0.000000e+00   0.000000e+00   0.000000e+00
      800000   7.999990e-06   4.795239e+00   2.774034e+01   9.167977e+00   5.869048e+05   1.015196e+06  -1.111007e+05   0.000000e+00   0.000000e+00   0.000000e+00   1.177889e+06   0.000000e+00   0.000000e+00   0.000000e+00
      808000   8.079990e-06   4.842191e+00   2.782155e+01   9.159089e+00   5.869048e+05   1.015196e+06  -1.111007e+05   0.000000e+00   0.000000e+00   0.000000e+00   1.177889e+06   0.000000e+00   0.000000e+00   0.000000e+00
      816000   8.159990e-06   4.889143e+00   2.790277e+01   9.150201e+00   5.869048e+05   1.015196e+06  -1.111007e+05   0.000000e+00   0.000000e+00   0.000000e+00   1.177889e+06   0.000000e+00   0.000000e+00   0.000000e+00
      824000   8.239990e-06   4.936096e+00   2.798398e+01   9.141313e+00   5.869048e+05   1.015196e+06  -1.111007e+05   0.000000e+00   0.000000e+00   0.000000e+00   1.177889e+06   0.000000e+00   0.000000e+00   0.000000e+00
      832000   8.319990e-06   4.983048e+00   2.806520e+01   9.132425e+00   5.869048e+05   1.015196e+06  -1.111007e+05   0.000000e+00   0.000000e+00   0.000000e+00   1.177889e+06   0.000000e+00   0.000000e+00   0.000000e+00
      840000   8.399990e-06   5.030001e+00   2.814641e+01   9.123537e+00   5.869048e+05   1.015196e+06  -1.111007e+05   0.000000e+00   0.000000e+00   0.000000e+00   1.177889e+06   0.000000e+00   0.000000e+00   0.000000e+00
      848000   8.479990e-06   5.076953e+00   2.822763e+01   9.114648e+00   5.869048e+05   1.015196e+06  -1.111007e+05   0.000000e+00   0.000000e+00   0.000000e+00   1.177889e+06   0.000000e+00   0.000000e+00   0.000000e+00
      856000   8.559990e-06   5.123905e+00   2.830885e+01   9.105760e+00   5.869048e+05   1.015196e+06  -1.111007e+05   0.000000e+00   0.000000e+00   0.000000e+00   1.177889e+06   0.000000e+00   0.000000e+00   0.000000e+00
      864000   8.639990e-06   5.170858e+00   2.839006e+01   9.096872e+00   5.869048e+05   1.015196e+06  -1.111007e+05   0.000000e+00   0.000000e+00   0.000000e+00   1.177889e+06   0.000000e+00   0.000000e+00   0.000000e+00
      872000   8.719990e-06   5.217810e+00   2.847128e+01   9.087984e+00   5.869048e+05   1.015196e+06  -1.111007e+05   0.000000e+00   0.000000e+00   0.000000e+00   1.177889e+06   0.000000e+00   0.000000e+00   0.000000e+00
      880000   8.799990e-06   5.264762e+00   2.855249e+01   9.079096e+00   5.869048e+05   1.015196e+06  -1.111007e+05   0.000000e+00   0.000000e+00   0.000000e+00   1.177889e+06   0.000000e+00   0.000000e+00   0.000000e+00
      888000   8.879990e-06   5.311715e+00   2.863371e+01   9.070208e+00   5.869048e+05   1.015196e+06  -1.111007e+05   0.000000e+00   0.000000e+00   0.000000e+00   1.177889e+06   0.000000e+00   0.000000e+00   0.000000e+00
      896000   8.959990e-06   5.358667e+00   2.871492e+01   9.061320e+00   5.869048e+05   1.015196e+06  -1.111007e+05   0.000000e+00   0.000000e+00   0.000000e+00   1.177889e+06   0.000000e+00   0.000000e+00   0.000000e+00
      904000   9.039990e-06   5.405620e+00   2.879614e+01   9.052432e+00   5.869048e+05   1.015196e+06  -1.111007e+05   0.000000e+00   0.000000e+00   0.000000e+00   1.177889e+06   0.000000e+00   0.000000e+00   0.000000e+00
      912000   9.119990e-06   5.452572e+00   2.887736e+01   9.043544e+00   5.869048e+05   1.015196e+06  -1.111007e+05   0.000000e+00   0.000000e+00   0.000000e+00   1.177889e+06   0.000000e+00   0.000000e+00   0.000000e+00
      920000   9.199990e-06   5.499524e+00   2.895857e+01   9.034656e+00   5.869048e+05   1.015196e+06  -1.111007e+05   0.000000e+00   0.000000e+00   0.000000e+00   1.177889e+06   0.000000e+00   0.000000e+00   0.000000e+00
      928000   9.279990e-06   5.546477e+00   2.903979e+01   9.025768e+00   5.869048e+05   1.015196e+06  -1.111007e+05   0.000000e+00   0.000000e+00   0.000000e+00   1.177889e+06   0.000000e+00   0.000000e+00   0.000000e+00
      936000   9.359990e-06   5.593429e+00   2.912100e+01   9.016880e+00   5.869048e+05   1.015196e+06  -1.111007e+05   0.000000e+00   0.000000e+00   0.000000e+00   1.177889e+06   0.000000e+00   0.000000e+00   0.000000e+00
      944000   9.439990e-06   5.640382e+00   2.920222e+01   9.007992e+00   5.869048e+05   1.015196e+06  -1.111007e+05   0.000000e+00   0.000000e+00   0.000000e+00   1.177889e+06   0.000000e+00   0.000000e+00   0.000000e+00
      952000   9.519990e-06   5.687334e+00   2.928343e+01   8.999104e+00   5.869048e+05   1.015196e+06  -1.111007e+05   0.000000e+00   0.000000e+00   0.000000e+00   1.177889e+06   0.000000e+00   0.000000e+00   0.000000e+00
      960000   9.599990e-06   5.734286e+00   2.936465e+01   8.990216e+00   5.869048e+05   1.015196e+06  -1.111007e+05   0.000000e+00   0.000000e+00   0.000000e+00   1.177889e+06   0.000000e+00   0.000000e+00   0.000000e+00
      968000   9.679990e-06   5.781239e+00   2.944587e+01   8.981328e+00   5.869048e+05   1.015196e+06  -1.111007e+05   0.000000e+00   0.000000e+00   0.000000e+00   1.177889e+06   0.000000e+00   0.000000e+00   0.000000e+00
      976000   9.759990e-06   5.828191e+00   2.952708e+01   8.972440e+00   5.869048e+05   1.015196e+06  -1.111007e+05   0.000000e+00   0.000000e+00   0.000000e+00   1.177889e+06   0.000000e+00   0.000000e+00   0.000000e+00
      984000   9.839990e-06   5.875143e+00   2.960830e+01   8.963552e+00   5.869048e+05   1.015196e+06  -1.111007e+05   0.000000e+00   0.000000e+00   0.000000e+00   1.177889e+06   0.000000e+00   0.000000e+00   0.000000e+00
      992000   9.919990e-06   5.922096e+00   2.968951e+01   8.954664e+00   5.869048e+05   1.015196e+06  -1.111007e+05   0.000000e+00   0.000000e+00   0.000000e+00   1.177889e+06   0.000000e+00   0.000000e+00   0.000000e+00
     1000000   9.999990e-06   5.969048e+00   2.977073e+01   8.945775e+00   5.869048e+05   1.015196e+06  -1.111007e+05   0.000000e+00   0.000000e+00   0.000000e+00   1.177889e+06   0.000000e+00   0.000000e+00   0.000000e+00
     1008000   1.007999e-05   6.016001e+00   2.985194e+01   8.936887e+00   5.869048e+05   1.015196e+06  -1.111007e+05   0.000000e+00   0.000000e+00   0.000000e+00   1.177889e+06   0.000000e+00   0.000000e+00   0.000000e+00
     1016000   1.015999e-05   6.062953e+00   2.993316e+01   8.927999e+00   5.869048e+05   1.015196e+06  -1.111007e+05   0.000000e+00   0.000000e+00   0.000000e+00   1.177889e+06   0.000000e+00   0.000000e+00   0.000000e+00
     1024000   1.023999e-05   6.109905e+00   3.001438e+01   8.919111e+00   5.869048e+05   1.015196e+06  -1.111007e+05   0.000000e+00   0.000000e+00   0.000000e+00   1.177889e+06   0.000000e+00   0.000000e+00   0.000000e+00
     1032000   1.031999e-05   6.156858e+00   3.009559e+01   8.910223e+00   5.869048e+05   1.015196e+06  -1.111007e+05   0.000000e+00   0.000000e+00   0.000000e+00   1.177889e+06   0.000000e+00   0.000000e+00   0.000000e+00
     1040000   1.039999e-05   6.203810e+00   3.017681e+01   8.901335e+00   5.869048e+05   1.015196e+06  -1.111007e+05   0.000000e+00   0.000000e+00   0.000000e+00   1.177889e+06   0.000000e+00   0.000000e+00   0.000000e+00
     1048000   1.047999e-05   6.250763e+00   3.025802e+01   8.892447e+00   5.869048e+05   1.015196e+06  -1.111007e+05   0.000000e+00   0.000000e+00   0.000000e+00   1.177889e+06   0.000000e+00   0.000000e+00   0.000000e+00
     1056000   1.055999e-05   6.297715e+00   3.033924e+01   8.883559e+00   5.869048e+05   1.015196e+06  -1.111007e+05   0.000000e+00   0.000000e+00   0.000000e+00   1.177889e+06   0.000000e+00   0.000000e+00   0.000000e+00
     1064000   1.063999e-05   6.344667e+00   3.042045e+01   8.874671e+00   5.869048e+05   1.015196e+06  -1.111007e+05   0.000000e+00   0.000000e+00   0.000000e+00   1.177889e+06   0.000000e+00   0.000000e+00   0.000000e+00
     1072000   1.071999e-05   6.391620e+00   3.050167e+01   8.865783e+00   5.869048e+05   1.015196e+06  -1.111007e+05   0.000000e+00   0.000000e+00   0.000000e+00   1.177889e+06   0.000000e+00   0.000000e+00   0.000000e+00
     1080000   1.079999e-05   6.438572e+00   3.058288e+01   8.856895e+00   5.869048e+05   1.015196e+06  -1.111007e+05   0.000000e+00   0.000000e+00   0.000000e+00   1.177889e+06   0.000000e+00   0.000000e+00   0.000000e+00
     1088000   1.087999e-05   6.485524e+00   3.066410e+01   8.848007e+00   5.869048e+05   1.015196e+06  -1.111007e+05   0.000000e+00   0.000000e+00   0.000000e+00   1.177889e+06   0.000000e+00   0.000000e+00   0.000000e+00
     1096000   1.095999e-05   6.532477e+00   3.074532e+01   8.839119e+00   5.869048e+05   1.015196e+06  -1.111007e+05   0.000000e+00   0.000000e+00   0.000000e+00   1.177889e+06   0.000000e+00   0.000000e+00   0.000000e+00
     1104000   1.103999e-05   6.579429e+00   3.082653e+01   8.830231e+00   5.869048e+05   1.015196e+06  -1.111007e+05   0.000000e+00   0.000000e+00   0.000000e+00   1.177889e+06   0.000000e+00   0.000000e+00   0.000000e+00
     1112000   1.111999e-05   6.626382e+00   3.090775e+01   8.821343e+00   5.869048e+05   1.015196e+06  -1.111007e+05   0.000000e+00   0.000000e+00   0.000000e+00   1.177889e+06   0.000000e+00   0.000000e+00   0.000000e+00
     1120000   1.119999e-05   6.673334e+00   3.098896e+01   8.812455e+00   5.869048e+05   1.015196e+06  -1.111007e+05   0.000000e+00   0.000000e+00   0.000000e+00   1.177889e+06   0.000000e+00   0.000000e+00   0.000000e+00
     1128000   1.127999e-05   6.720286e+00   3.107018e+01   8.803567e+00   5.869048e+05   1.015196e+06  -1.111007e+05   0.000000e+00   0.000000e+00   0.000000e+00   1.177889e+06   0.000000e+00   0.000000e+00   0.000000e+00
     1136000   1.135999e-05   6.767239e+00   3.115139e+01   8.794679e+00   5.869048e+05   1.015196e+06  -1.111007e+05   0.000000e+00   0.000000e+00   0.000000e+00   1.177889e+06   0.000000e+00   0.000000e+00   0.000000e+00
     1144000   1.143999e-05   6.814191e+00   3.123261e+01   8.785791e+00   5.869048e+05   1.015196e+06  -1.111007e+05   0.000000e+00   0.000000e+00   0.000000e+00   1.177889e+06   0.000000e+00   0.000000e+00   0.000000e+00
     1152000   1.151999e-05   6.861144e+00   3.131383e+01   8.776903e+00   5.869048e+05   1.015196e+06  -1.111007e+05   0.000000e+00   0.000000e+00   0.000000e+00   1.177889e+06   0.000000e+00   0.000000e+00   0.000000e+00
     1160000   1.159999e-05   6.908096e+00   3.139504e+01   8.768014e+00   5.869048e+05   1.015196e+06  -1.111007e+05   0.000000e+00   0.000000e+00   0.000000e+00   1.177889e+06   0.000000e+00   0.000000e+00   0.000000e+00
     1168000   1.167999e-05   6.955048e+00   3.147626e+01   8.759126e+00   5.869048e+05   1.015196e+06  -1.111007e+05   0.000000e+00   0.000000e+00   0.000000e+00   1.177889e+06   0.000000e+00   0.000000e+00   0.000000e+00
     1176000   1.175999e-05   7.002001e+00   3.155747e+01   8.750238e+00   5.869048e+05   1.015196e+06  -1.111007e+05   0.000000e+00   0.000000e+00   0.000000e+00   1.177889e+06   0.000000e+00   0.000000e+00   0.000000e+00
     1184000   1.183999e-05   7.048953e+00   3.163869e+01   8.741350e+00   5.869048e+05   1.015196e+06  -1.111007e+05   0.000000e+00   0.000000e+00   0.000000e+00   1.177889e+06   0.000000e+00   0.000000e+00   0.000000e+00
     1192000   1.191999e-05   7.095905e+00   3.171990e+01   8.732462e+00   5.869048e+05   1.015196e+06  -1.111007e+05   0.000000e+00   0.000000e+00   0.000000e+00   1.177889e+06   0.000000e+00   0.000000e+00   0.000000e+00
     1200000   1.199999e-05   7.142858e+00   3.180112e+01   8.723574e+00   5.869048e+05   1.015196e+06  -1.111007e+05   0.000000e+00   0.000000e+00   0.000000e+00   1.177889e+06   0.000000e+00   0.000000e+00   0.000000e+00
     1208000   1.207999e-05   7.189810e+00   3.188234e+01   8.714686e+00   5.869048e+05   1.015196e+06  -1.111007e+05   0.000000e+00   0.000000e+00   0.000000e+00   1.177889e+06   0.000000e+00   0.000000e+00   0.000000e+00
     1216000   1.215999e-05   7.236763e+00   3.196355e+01   8.705798e+00   5.869048e+05   1.015196e+06  -1.111007e+05   0.000000e+00   0.000000e+00   0.000000e+00   1.177889e+06   0.000000e+00   0.000000e+00   0.000000e+00
     1224000   1.223999e-05   7.283715e+00   3.204477e+01   8.696910e+00   5.869048e+05   1.015196e+06  -1.111007e+05   0.000000e+00   0.000000e+00   0.000000e+00   1.177889e+06   0.000000e+00   0.000000e+00   0.000000e+00
     1232000   1.231999e-05   7.330667e+00   3.212598e+01   8.688022e+00   5.869048e+05   1.015196e+06  -1.111007e+05   0.000000e+00   0.000000e+00   0.000000e+00   1.177889e+06   0.000000e+00   0.000000e+00   0.000000e+00
     1240000   1.239999e-05   7.377620e+00   3.220720e+01   8.679134e+00   5.869048e+05   1.015196e+06  -1.111007e+05   0.000000e+00   0.000000e+00   0.000000e+00   1.177889e+06   0.000000e+00   0.000000e+00   0.000000e+00
     1248000   1.247999e-05   7.424572e+00   3.228841e+01   8.670246e+00   5.869048e+05   1.015196e+06  -1.111007e+05   0.000000e+00   0.000000e+00   0.000000e+00   1.177889e+06   0.000000e+00   0.000000e+00   0.000000e+00
     1256000   1.255999e-05   7.471525e+00   3.236963e+01   8.661358e+00   5.869048e+05   1.015196e+06  -1.111007e+05   0.000000e+00   0.000000e+00   0.000000e+00   1.177889e+06   0.000000e+00   0.000000e+00   0.000000e+00
     1264000   1.263999e-05   7.518477e+00   3.245084e+01   8.652470e+00   5.869048e+05   1.015196e+06  -1.111007e+05   0.000000e+00   0.000000e+00   0.000000e+00   1.177889e+06   0.000000e+00   0.000000e+00   0.000000e+00
     1272000   1.271999e-05   7.565429e+00   3.253206e+01   8.643582e+00   5.869048e+05   1.015196e+06  -1.111007e+05   0.000000e+00   0.000000e+00   0.000000e+00   1.177889e+06   0.000000e+00   0.000000e+00   0.000000e+00
     1280000   1.279999e-05   7.612382e+00   3.261328e+01   8.634694e+00   5.869048e+05   1.015196e+06  -1.111007e+05   0.000000e+00   0.000000e+00   0.000000e+00   1.177889e+06   0.000000e+00   0.000000e+00   0.000000e+00
     1288000   1.287999e-05   7.659334e+00   3.269449e+01   8.625806e+00   5.869048e+05   1.015196e+06  -1.111007e+05   0.000000e+00   0.000000e+00   0.000000e+00   1.177889e+06   0.000000e+00   0.000000e+00   0.000000e+00
     1296000   1.295999e-05   7.706287e+00   3.277571e+01   8.616918e+00   5.869048e+05   1.015196e+06  -1.111007e+05   0.000000e+00   0.000000e+00   0.000000e+00   1.177889e+06   0.000000e+00   0.000000e+00   0.000000e+00
     1304000   1.303999e-05   7.753239e+00   3.285692e+01   8.608030e+00   5.869048e+05   1.015196e+06  -1.111007e+05   0.000000e+00   0.000000e+00   0.000000e+00   1.177889e+06   0.000000e+00   0.000000e+00   0.000000e+00
     1312000   1.311999e-05   7.800191e+00   3.293814e+01   8.599141e+00   5.869048e+05   1.015196e+06  -1.111007e+05   0.000000e+00   0.000000e+00   0.000000e+00   1.177889e+06   0.000000e+00   0.000000e+00   0.000000e+00
     1320000   1.319999e-05   7.847144e+00   3.301935e+01   8.590253e+00   5.869048e+05   1.015196e+06  -1.111007e+05   0.000000e+00   0.000000e+00   0.000000e+00   1.177889e+06   0.000000e+00   0.000000e+00   0.000000e+00
     1328000   1.327999e-05   7.894096e+00   3.310057e+01   8.581365e+00   5.869048e+05   1.015196e+06  -1.111007e+05   0.000000e+00   0.000000e+00   0.000000e+00   1.177889e+06   0.000000e+00   0.000000e+00   0.000000e+00
     1336000   1.335999e-05   7.941048e+00   3.318179e+01   8.572477e+00   5.869048e+05   1.015196e+06  -1.111007e+05   0.000000e+00   0.000000e+00   0.000000e+00   1.177889e+06   0.000000e+00   0.000000e+00   0.000000e+00
     1344000   1.343999e-05   7.988001e+00   3.326300e+01   8.563589e+00   5.869048e+05   1.015196e+06  -1.111007e+05   0.000000e+00   0.000000e+00   0.000000e+00   1.177889e+06   0.000000e+00   0.000000e+00   0.000000e+00
     1352000   1.351999e-05   8.034953e+00   3.334422e+01   8.554701e+00   5.869048e+05   1.015196e+06  -1.111007e+05   0.000000e+00   0.000000e+00   0.000000e+00   1.177889e+06   0.000000e+00   0.000000e+00   0.000000e+00
     1360000   1.359999e-05   8.081906e+00   3.342543e+01   8.545813e+00   5.869048e+05   1.015196e+06  -1.111007e+05   0.000000e+00   0.000000e+00   0.000000e+00   1.177889e+06   0.000000e+00   0.000000e+00   0.000000e+00
     1368000   1.367999e-05   8.128858e+00   3.350665e+01   8.536925e+00   5.869048e+05   1.015196e+06  -1.111007e+05   0.000000e+00   0.000000e+00   0.000000e+00   1.177889e+06   0.000000e+00   0.000000e+00   0.000000e+00
     1376000   1.375999e-05   8.175810e+00   3.358786e+01   8.528037e+00   5.869048e+05   1.015196e+06  -1.111007e+05   0.000000e+00   0.000000e+00   0.000000e+00   1.177889e+06   0.000000e+00   0.000000e+00   0.000000e+00
     1384000   1.383999e-05   8.222763e+00   3.366908e+01   8.519149e+00   5.869048e+05   1.015196e+06  -1.111007e+05   0.000000e+00   0.000000e+00   0.000000e+00   1.177889e+06   0.000000e+00   0.000000e+00   0.000000e+00
     1392000   1.391999e-05   8.269715e+00   3.375030e+01   8.510261e+00   5.869048e+05   1.015196e+06  -1.111007e+05   0.000000e+00   0.000000e+00   0.000000e+00   1.177889e+06   0.000000e+00   0.000000e+00   0.000000e+00
     1400000   1.399999e-05   8.316668e+00   3.383151e+01   8.501373e+00   5.869048e+05   1.015196e+06  -1.111007e+05   0.000000e+00   0.000000e+00   0.000000e+00   1.177889e+06   0.000000e+00   0.000000e+00   0.000000e+00
     1408000   1.407999e-05   8.363620e+00   3.391273e+01   8.492485e+00   5.869048e+05   1.015196e+06  -1.111007e+05   0.000000e+00   0.000000e+00   0.000000e+00   1.177889e+06   0.000000e+00   0.000000e+00   0.000000e+00
     1416000   1.415999e-05   8.410572e+00   3.399394e+01   8.483597e+00   5.869048e+05   1.015196e+06  -1.111007e+05   0.000000e+00   0.000000e+00   0.000000e+00   1.177889e+06   0.000000e+00   0.000000e+00   0.000000e+00
     1424000   1.423999e-05   8.457525e+00   3.407516e+01   8.474709e+00   5.869048e+05   1.015196e+06  -1.111007e+05   0.000000e+00   0.000000e+00   0.000000e+00   1.177889e+06   0.000000e+00   0.000000e+00   0.000000e+00
     1432000   1.431999e-05   8.504477e+00   3.415637e+01   8.465821e+00   5.869048e+05   1.015196e+06  -1.111007e+05   0.000000e+00   0.000000e+00   0.000000e+00   1.177889e+06   0.000000e+00   0.000000e+00   0.000000e+00
     1440000   1.439999e-05   8.551429e+00   3.423759e+01   8.456933e+00   5.869048e+05   1.015196e+06  -1.111007e+05   0.000000e+00   0.000000e+00   0.000000e+00   1.177889e+06   0.000000e+00   0.000000e+00   0.000000e+00
     1448000   1.447999e-05   8.598382e+00   3.431880e+01   8.448045e+00   5.869048e+05   1.015196e+06  -1.111007e+05   0.000000e+00   0.000000e+00   0.000000e+00   1.177889e+06   0.000000e+00   0.000000e+00   0.000000e+00
     1456000   1.455999e-05   8.645334e+00   3.440002e+01   8.439157e+00   5.869048e+05   1.015196e+06  -1.111007e+05   0.000000e+00   0.000000e+00   0.000000e+00   1.177889e+06   0.000000e+00   0.000000e+00   0.000000e+00
     1464000   1.463999e-05   8.692287e+00   3.448124e+01   8.430268e+00   5.869048e+05   1.015196e+06  -1.111007e+05   0.000000e+00   0.000000e+00   0.000000e+00   1.177889e+06   0.000000e+00   0.000000e+00   0.000000e+00
     1472000   1.471999e-05   8.739239e+00   3.456245e+01   8.421380e+00   5.869048e+05   1.015196e+06  -1.111007e+05   0.000000e+00   0.000000e+00   0.000000e+00   1.177889e+06   0.000000e+00   0.000000e+00   0.000000e+00
     1480000   1.479999e-05   8.786191e+00   3.464367e+01   8.412492e+00   5.869048e+05   1.015196e+06  -1.111007e+05   0.000000e+00   0.000000e+00   0.000000e+00   1.177889e+06   0.000000e+00   0.000000e+00   0.000000e+00
     1488000   1.487999e-05   8.833144e+00   3.472488e+01   8.403604e+00   5.869048e+05   1.015196e+06  -1.111007e+05   0.000000e+00   0.000000e+00   0.000000e+00   1.177889e+06   0.000000e+00   0.000000e+00   0.000000e+00
     1496000   1.495999e-05   8.880096e+00   3.480610e+01   8.394716e+00   5.869048e+05   1.015196e+06  -1.111007e+05   0.000000e+00   0.000000e+00   0.000000e+00   1.177889e+06   0.000000e+00   0.000000e+00   0.000000e+00
     1504000   1.503999e-05   8.927049e+00   3.488731e+01   8.385828e+00   5.869048e+05   1.015196e+06  -1.111007e+05   0.000000e+00   0.000000e+00   0.000000e+00   1.177889e+06   0.000000e+00   0.000000e+00   0.000000e+00
     1512000   1.511999e-05   8.974001e+00   3.496853e+01   8.376940e+00   5.869048e+05   1.015196e+06  -1.111007e+05   0.000000e+00   0.000000e+00   0.000000e+00   1.177889e+06   0.000000e+00   0.000000e+00   0.000000e+00
     1520000   1.519999e-05   9.020953e+00   3.504975e+01   8.368052e+00   5.869048e+05   1.015196e+06  -1.111007e+05   0.000000e+00   0.000000e+00   0.000000e+00   1.177889e+06   0.000000e+00   0.000000e+00   0.000000e+00
     1528000   1.527999e-05   9.067906e+00   3.513096e+01   8.359164e+00   5.869048e+05   1.015196e+06  -1.111007e+05   0.000000e+00   0.000000e+00   0.000000e+00   1.177889e+06   0.000000e+00   0.000000e+00   0.000000e+00
     1536000   1.535999e-05   9.114858e+00   3.521218e+01   8.350276e+00   5.869048e+05   1.015196e+06  -1.111007e+05   0.000000e+00   0.000000e+00   0.000000e+00   1.177889e+06   0.000000e+00   0.000000e+00   0.000000e+00
     1544000   1.543999e-05   9.161810e+00   3.529339e+01   8.341388e+00   5.869048e+05   1.015196e+06  -1.111007e+05   0.000000e+00   0.000000e+00   0.000000e+00   1.177889e+06   0.000000e+00   0.000000e+00   0.000000e+00
     1552000   1.551999e-05   9.208763e+00   3.537461e+01   8.332500e+00   5.869048e+05   1.015196e+06  -1.111007e+05   0.000000e+00   0.000000e+00   0.000000e+00   1.177889e+06   0.000000e+00   0.000000e+00   0.000000e+00
     1560000   1.559999e-05   9.255715e+00   3.545582e+01   8.323612e+00   5.869048e+05   1.015196e+06  -1.111007e+05   0.000000e+00   0.000000e+00   0.000000e+00   1.177889e+06   0.000000e+00   0.000000e+00   0.000000e+00
     1568000   1.567999e-05   9.302668e+00   3.553704e+01   8.314724e+00   5.869048e+05   1.015196e+06  -1.111007e+05   0.000000e+00   0.000000e+00   0.000000e+00   1.177889e+06   0.000000e+00   0.000000e+00   0.000000e+00
     1576000   1.575999e-05   9.349620e+00   3.561826e+01   8.305836e+00   5.869048e+05   1.015196e+06  -1.111007e+05   0.000000e+00   0.000000e+00   0.000000e+00   1.177889e+06   0.000000e+00   0.000000e+00   0.000000e+00
     1584000   1.583999e-05   9.396572e+00   3.569947e+01   8.296948e+00   5.869048e+05   1.015196e+06  -1.111007e+05   0.000000e+00   0.000000e+00   0.000000e+00   1.177889e+06   0.000000e+00   0.000000e+00   0.000000e+00
     1592000   1.591999e-05   9.443525e+00   3.578069e+01   8.288060e+00   5.869048e+05   1.015196e+06  -1.111007e+05   0.000000e+00   0.000000e+00   0.000000e+00   1.177889e+06   0.000000e+00   0.000000e+00   0.000000e+00
     1600000   1.599999e-05   9.490477e+00   3.586190e+01   8.279172e+00   5.869048e+05   1.015196e+06  -1.111007e+05   0.000000e+00   0.000000e+00   0.000000e+00   1.177889e+06   0.000000e+00   0.000000e+00   0.000000e+00
     1608000   1.607999e-05   9.537430e+00   3.594312e+01   8.270284e+00   5.869048e+05   1.015196e+06  -1.111007e+05   0.000000e+00   0.000000e+00   0.000000e+00   1.177889e+06   0.000000e+00   0.000000e+00   0.000000e+00
     1616000   1.615999e-05   9.584382e+00   3.602433e+01   8.261395e+00   5.869048e+05   1.015196e+06  -1.111007e+05   0.000000e+00   0.000000e+00   0.000000e+00   1.177889e+06   0.000000e+00   0.000000e+00   0.000000e+00
     1624000   1.623999e-05   9.631334e+00   3.610555e+01   8.252507e+00   5.869048e+05   1.015196e+06  -1.111007e+05   0.000000e+00   0.000000e+00   0.000000e+00   1.177889e+06   0.000000e+00   0.000000e+00   0.000000e+00
     1632000   1.631999e-05   9.678287e+00   3.618676e+01   8.243619e+00   5.869048e+05   1.015196e+06  -1.111007e+05   0.000000e+00   0.000000e+00   0.000000e+00   1.177889e+06   0.000000e+00   0.000000e+00   0.000000e+00
     1640000   1.639999e-05   9.725239e+00   3.626798e+01   8.234731e+00   5.869048e+05   1.015196e+06  -1.111007e+05   0.000000e+00   0.000000e+00   0.000000e+00   1.177889e+06   0.000000e+00   0.000000e+00   0.000000e+00
     1648000   1.647999e-05   9.772191e+00   3.634920e+01   8.225843e+00   5.869048e+05   1.015196e+06  -1.111007e+05   0.000000e+00   0.000000e+00   0.000000e+00   1.177889e+06   0.000000e+00   0.000000e+00   0.000000e+00
     1656000   1.655999e-05   9.819144e+00   3.643041e+01   8.216955e+00   5.869048e+05   1.015196e+06  -1.111007e+05   0.000000e+00   0.000000e+00   0.000000e+00   1.177889e+06   0.000000e+00   0.000000e+00   0.000000e+00
     1664000   1.663999e-05   9.866096e+00   3.651163e+01   8.208067e+00   5.869048e+05   1.015196e+06  -1.111007e+05   0.000000e+00   0.000000e+00   0.000000e+00   1.177889e+06   0.000000e+00   0.000000e+00   0.000000e+00
     1672000   1.671999e-05   9.913049e+00   3.659284e+01   8.199179e+00   5.869048e+05   1.015196e+06  -1.111007e+05   0.000000e+00   0.000000e+00   0.000000e+00   1.177889e+06   0.000000e+00   0.000000e+00   0.000000e+00
     1680000   1.679999e-05   9.960001e+00   3.667406e+01   8.190291e+00   5.869048e+05   1.015196e+06  -1.111007e+05   0.000000e+00   0.000000e+00   0.000000e+00   1.177889e+06   0.000000e+00   0.000000e+00   0.000000e+00
     1688000   1.687999e-05   1.000695e+01   3.675527e+01   8.181403e+00   5.869048e+05   1.015196e+06  -1.111007e+05   0.000000e+00   0.000000e+00   0.000000e+00   1.177889e+06   0.000000e+00   0.000000e+00   0.000000e+00
     1696000   1.695999e-05   1.005391e+01   3.683649e+01   8.172515e+00   5.869048e+05   1.015196e+06  -1.111007e+05   0.000000e+00   0.000000e+00   0.000000e+00   1.177889e+06   0.000000e+00   0.000000e+00   0.000000e+00
     1704000   1.703999e-05   1.010086e+01   3.691771e+01   8.163627e+00   5.869048e+05   1.015196e+06  -1.111007e+05   0.000000e+00   0.000000e+00   0.000000e+00   1.177889e+06   0.000000e+00   0.000000e+00   0.000000e+00
     1712000   1.711999e-05   1.014781e+01   3.699892e+01   8.154739e+00   5.869048e+05   1.015196e+06  -1.111007e+05   0.000000e+00   0.000000e+00   0.000000e+00   1.177889e+06   0.000000e+00   0.000000e+00   0.000000e+00
     1720000   1.719999e-05   1.019476e+01   3.708014e+01   8.145851e+00   5.869048e+05   1.015196e+06  -1.111007e+05   0.000000e+00   0.000000e+00   0.000000e+00   1.177889e+06   0.000000e+00   0.000000e+00   0.000000e+00
     1728000   1.727999e-05   1.024172e+01   3.716135e+01   8.136963e+00   5.869048e+05   1.015196e+06  -1.111007e+05   0.000000e+00   0.000000e+00   0.000000e+00   1.177889e+06   0.000000e+00   0.000000e+00   0.000000e+00
     1736000   1.735999e-05   1.028867e+01   3.724257e+01   8.128075e+00   5.869048e+05   1.015196e+06  -1.111007e+05   0.000000e+00   0.000000e+00   0.000000e+00   1.177889e+06   0.000000e+00   0.000000e+00   0.000000e+00
     1744000   1.743999e-05   1.033562e+01   3.732378e+01   8.119187e+00   5.869048e+05   1.015196e+06  -1.111007e+05   0.000000e+00   0.000000e+00   0.000000e+00   1.177889e+06   0.000000e+00   0.000000e+00   0.000000e+00
     1752000   1.751999e-05   1.038257e+01   3.740500e+01   8.110299e+00   5.869048e+05   1.015196e+06  -1.111007e+05   0.000000e+00   0.000000e+00   0.000000e+00   1.177889e+06   0.000000e+00   0.000000e+00   0.000000e+00
     1760000   1.759999e-05   1.042952e+01   3.748622e+01   8.101411e+00   5.869048e+05   1.015196e+06  -1.111007e+05   0.000000e+00   0.000000e+00   0.000000e+00   1.177889e+06   0.000000e+00   0.000000e+00   0.000000e+00
     1768000   1.767999e-05   1.047648e+01   3.756743e+01   8.092522e+00   5.869048e+05   1.015196e+06  -1.111007e+05   0.000000e+00   0.000000e+00   0.000000e+00   1.177889e+06   0.000000e+00   0.000000e+00   0.000000e+00
     1776000   1.775999e-05   1.052343e+01   3.764865e+01   8.083634e+00   5.869048e+05   1.015196e+06  -1.111007e+05   0.000000e+00   0.000000e+00   0.000000e+00   1.177889e+06   0.000000e+00   0.000000e+00   0.000000e+00
     1784000   1.783999e-05   1.057038e+01   3.772986e+01   8.074746e+00   5.869048e+05   1.015196e+06  -1.111007e+05   0.000000e+00   0.000000e+00   0.000000e+00   1.177889e+06   0.000000e+00   0.000000e+00   0.000000e+00
     1792000   1.791999e-05   1.061733e+01   3.781108e+01   8.065858e+00   5.869048e+05   1.015196e+06  -1.111007e+05   0.000000e+00   0.000000e+00   0.000000e+00   1.177889e+06   0.000000e+00   0.000000e+00   0.000000e+00
     1800000   1.799999e-05   1.066429e+01   3.789229e+01   8.056970e+00   5.869048e+05   1.015196e+06  -1.111007e+05   0.000000e+00   0.000000e+00   0.000000e+00   1.177889e+06   0.000000e+00   0.000000e+00   0.000000e+00
     1808000   1.807999e-05   1.071124e+01   3.797351e+01   8.048082e+00   5.869048e+05   1.015196e+06  -1.111007e+05   0.000000e+00   0.000000e+00   0.000000e+00   1.177889e+06   0.000000e+00   0.000000e+00   0.000000e+00
     1816000   1.815999e-05   1.075819e+01   3.805473e+01   8.039194e+00   5.869048e+05   1.015196e+06  -1.111007e+05   0.000000e+00   0.000000e+00   0.000000e+00   1.177889e+06   0.000000e+00   0.000000e+00   0.000000e+00
     1824000   1.823999e-05   1.080514e+01   3.813594e+01   8.030306e+00   5.869048e+05   1.015196e+06  -1.111007e+05   0.000000e+00   0.000000e+00   0.000000e+00   1.177889e+06   0.000000e+00   0.000000e+00   0.000000e+00
     1832000   1.831999e-05   1.085210e+01   3.821716e+01   8.021418e+00   5.869048e+05   1.015196e+06  -1.111007e+05   0.000000e+00   0.000000e+00   0.000000e+00   1.177889e+06   0.000000e+00   0.000000e+00   0.000000e+00
     1840000   1.839999e-05   1.089905e+01   3.829837e+01   8.012530e+00   5.869048e+05   1.015196e+06  -1.111007e+05   0.000000e+00   0.000000e+00   0.000000e+00   1.177889e+06   0.000000e+00   0.000000e+00   0.000000e+00
     1848000   1.847999e-05   1.094600e+01   3.837959e+01   8.003642e+00   5.869048e+05   1.015196e+06  -1.111007e+05   0.000000e+00   0.000000e+00   0.000000e+00   1.177889e+06   0.000000e+00   0.000000e+00   0.000000e+00
     1856000   1.855999e-05   1.099295e+01   3.846080e+01   7.994754e+00   5.869048e+05   1.015196e+06  -1.111007e+05   0.000000e+00   0.000000e+00   0.000000e+00   1.177889e+06   0.000000e+00   0.000000e+00   0.000000e+00
     1864000   1.863999e-05   1.103991e+01   3.854202e+01   7.985866e+00   5.869048e+05   1.015196e+06  -1.111007e+05   0.000000e+00   0.000000e+00   0.000000e+00   1.177889e+06   0.000000e+00   0.000000e+00   0.000000e+00
     1872000   1.871999e-05   1.108686e+01   3.862323e+01   7.976978e+00   5.869048e+05   1.015196e+06  -1.111007e+05   0.000000e+00   0.000000e+00   0.000000e+00   1.177889e+06   0.000000e+00   0.000000e+00   0.000000e+00
     1880000   1.879999e-05   1.113381e+01   3.870445e+01   7.968090e+00   5.869048e+05   1.015196e+06  -1.111007e+05   0.000000e+00   0.000000e+00   0.000000e+00   1.177889e+06   0.000000e+00   0.000000e+00   0.000000e+00
     1888000   1.887999e-05   1.118076e+01   3.878567e+01   7.959202e+00   5.869048e+05   1.015196e+06  -1.111007e+05   0.000000e+00   0.000000e+00   0.000000e+00   1.177889e+06   0.000000e+00   0.000000e+00   0.000000e+00
     1896000   1.895999e-05   1.122772e+01   3.886688e+01   7.950314e+00   5.869048e+05   1.015196e+06  -1.111007e+05   0.000000e+00   0.000000e+00   0.000000e+00   1.177889e+06   0.000000e+00   0.000000e+00   0.000000e+00
     1904000   1.903999e-05   1.127467e+01   3.894810e+01   7.941426e+00   5.869048e+05   1.015196e+06  -1.111007e+05   0.000000e+00   0.000000e+00   0.000000e+00   1.177889e+06   0.000000e+00   0.000000e+00   0.000000e+00
     1912000   1.911999e-05   1.132162e+01   3.902931e+01   7.932538e+00   5.869048e+05   1.015196e+06  -1.111007e+05   0.000000e+00   0.000000e+00   0.000000e+00   1.177889e+06   0.000000e+00   0.000000e+00   0.000000e+00
     1920000   1.919999e-05   1.136857e+01   3.911053e+01   7.923650e+00   5.869048e+05   1.015196e+06  -1.111007e+05   0.000000e+00   0.000000e+00   0.000000e+00   1.177889e+06   0.000000e+00   0.000000e+00   0.000000e+00
     1928000   1.927999e-05   1.141552e+01   3.919174e+01   7.914761e+00   5.869048e+05   1.015196e+06  -1.111007e+05   0.000000e+00   0.000000e+00   0.000000e+00   1.177889e+06   0.000000e+00   0.000000e+00   0.000000e+00
     1936000   1.935999e-05   1.146248e+01   3.927296e+01   7.905873e+00   5.869048e+05   1.015196e+06  -1.111007e+05   0.000000e+00   0.000000e+00   0.000000e+00   1.177889e+06   0.000000e+00   0.000000e+00   0.000000e+00
     1944000   1.943999e-05   1.150943e+01   3.935418e+01   7.896985e+00   5.869048e+05   1.015196e+06  -1.111007e+05   0.000000e+00   0.000000e+00   0.000000e+00   1.177889e+06   0.000000e+00   0.000000e+00   0.000000e+00
     1952000   1.951999e-05   1.155638e+01   3.943539e+01   7.888097e+00   5.869048e+05   1.015196e+06  -1.111007e+05   0.000000e+00   0.000000e+00   0.000000e+00   1.177889e+06   0.000000e+00   0.000000e+00   0.000000e+00
     1960000   1.959999e-05   1.160333e+01   3.951661e+01   7.879209e+00   5.869048e+05   1.015196e+06  -1.111007e+05   0.000000e+00   0.000000e+00   0.000000e+00   1.177889e+06   0.000000e+00   0.000000e+00   0.000000e+00
     1968000   1.967999e-05   1.165029e+01   3.959782e+01   7.870321e+00   5.869048e+05   1.015196e+06  -1.111007e+05   0.000000e+00   0.000000e+00   0.000000e+00   1.177889e+06   0.000000e+00   0.000000e+00   0.000000e+00
     1976000   1.975999e-05   1.169724e+01   3.967904e+01   7.861433e+00   5.869048e+05   1.015196e+06  -1.111007e+05   0.000000e+00   0.000000e+00   0.000000e+00   1.177889e+06   0.000000e+00   0.000000e+00   0.000000e+00
     1984000   1.983999e-05   1.174419e+01   3.976025e+01   7.852545e+00   5.869048e+05   1.015196e+06  -1.111007e+05   0.000000e+00   0.000000e+00   0.000000e+00   1.177889e+06   0.000000e+00   0.000000e+00   0.000000e+00
     1992000   1.991999e-05   1.179114e+01   3.984147e+01   7.843657e+00   5.869048e+05   1.015196e+06  -1.111007e+05   0.000000e+00   0.000000e+00   0.000000e+00   1.177889e+06   0.000000e+00   0.000000e+00   0.000000e+00
     2000000   1.999999e-05   1.183810e+01   3.992269e+01   7.834769e+00   5.869048e+05   1.015196e+06  -1.111007e+05   0.000000e+00   0.000000e+00   0.000000e+00   1.177889e+06   0.000000e+00   0.000000e+00   0.000000e+00
     2008000   2.007999e-05   1.188505e+01   4.000390e+01   7.825881e+00   5.869048e+05   1.015196e+06  -1.111007e+05   0.000000e+00   0.000000e+00   0.000000e+00   1.177889e+06   0.000000e+00   0.000000e+00   0.000000e+00
     2016000   2.015999e-05   1.193200e+01   4.008512e+01   7.816993e+00   5.869048e+05   1.015196e+06  -1.111007e+05   0.000000e+00   0.000000e+00   0.000000e+00   1.177889e+06   0.000000e+00   0.000000e+00   0.000000e+00
     2024000   2.023999e-05   1.197895e+01   4.016633e+01   7.808105e+00   5.869048e+05   1.015196e+06  -1.111007e+05   0.000000e+00   0.000000e+00   0.000000e+00   1.177889e+06   0.000000e+00   0.000000e+00   0.000000e+00
     2032000   2.031999e-05   1.202591e+01   4.024755e+01   7.799217e+00   5.869048e+05   1.015196e+06  -1.111007e+05   0.000000e+00   0.000000e+00   0.000000e+00   1.177889e+06   0.000000e+00   0.000000e+00   0.000000e+00
     2040000   2.039999e-05   1.207286e+01   4.032876e+01   7.790329e+00   5.869048e+05   1.015196e+06  -1.111007e+05   0.000000e+00   0.000000e+00   0.000000e+00   1.177889e+06   0.000000e+00   0.000000e+00   0.000000e+00
     2048000   2.047999e-05   1.211981e+01   4.040998e+01   7.781441e+00   5.869048e+05   1.015196e+06  -1.111007e+05   0.000000e+00   0.000000e+00   0.000000e+00   1.177889e+06   0.000000e+00   0.000000e+00   0.000000e+00
     2056000   2.055999e-05   1.216676e+01   4.049119e+01   7.772553e+00   5.869048e+05   1.015196e+06  -1.111007e+05   0.000000e+00   0.000000e+00   0.000000e+00   1.177889e+06   0.000000e+00   0.000000e+00   0.000000e+00
     2064000   2.063999e-05   1.221372e+01   4.057241e+01   7.763665e+00   5.869048e+05   1.015196e+06  -1.111007e+05   0.000000e+00   0.000000e+00   0.000000e+00   1.177889e+06   0.000000e+00   0.000000e+00   0.000000e+00
     2072000   2.071999e-05   1.226067e+01   4.065363e+01   7.754777e+00   5.869048e+05   1.015196e+06  -1.111007e+05   0.000000e+00   0.000000e+00   0.000000e+00   1.177889e+06   0.000000e+00   0.000000e+00   0.000000e+00
     2080000   2.079999e-05   1.230762e+01   4.073484e+01   7.745888e+00   5.869048e+05   1.015196e+06  -1.111007e+05   0.000000e+00   0.000000e+00   0.000000e+00   1.177889e+06   0.000000e+00   0.000000e+00   0.000000e+00
     2088000   2.087999e-05   1.235457e+01   4.081606e+01   7.737000e+00   5.869048e+05   1.015196e+06  -1.111007e+05   0.000000e+00   0.000000e+00   0.000000e+00   1.177889e+06   0.000000e+00   0.000000e+00   0.000000e+00
     2096000   2.095999e-05   1.240153e+01   4.089727e+01   7.728112e+00   5.869048e+05   1.015196e+06  -1.111007e+05   0.000000e+00   0.000000e+00   0.000000e+00   1.177889e+06   0.000000e+00   0.000000e+00   0.000000e+00
     2104000   2.103999e-05   1.244848e+01   4.097849e+01   7.719224e+00   5.869048e+05   1.015196e+06  -1.111007e+05   0.000000e+00   0.000000e+00   0.000000e+00   1.177889e+06   0.000000e+00   0.000000e+00   0.000000e+00
     2112000   2.111999e-05   1.249543e+01   4.105970e+01   7.710336e+00   5.869048e+05   1.015196e+06  -1.111007e+05   0.000000e+00   0.000000e+00   0.000000e+00   1.177889e+06   0.000000e+00   0.000000e+00   0.000000e+00
     2120000   2.119999e-05   1.254238e+01   4.114092e+01   7.701448e+00   5.869048e+05   1.015196e+06  -1.111007e+05   0.000000e+00   0.000000e+00   0.000000e+00   1.177889e+06   0.000000e+00   0.000000e+00   0.000000e+00
     2128000   2.127999e-05   1.258933e+01   4.122214e+01   7.692560e+00   5.869048e+05   1.015196e+06  -1.111007e+05   0.000000e+00   0.000000e+00   0.000000e+00   1.177889e+06   0.000000e+00   0.000000e+00   0.000000e+00
     2136000   2.135999e-05   1.263629e+01   4.130335e+01   7.683672e+00   5.869048e+05   1.015196e+06  -1.111007e+05   0.000000e+00   0.000000e+00   0.000000e+00   1.177889e+06   0.000000e+00   0.000000e+00   0.000000e+00
     2144000   2.143999e-05   1.268324e+01   4.138457e+01   7.674784e+00   5.869048e+05   1.015196e+06  -1.111007e+05   0.000000e+00   0.000000e+00   0.000000e+00   1.177889e+06   0.000000e+00   0.000000e+00   0.000000e+00
     2152000   2.151999e-05   1.273019e+01   4.146578e+01   7.665896e+00   5.869048e+05   1.015196e+06  -1.111007e+05   0.000000e+00   0.000000e+00   0.000000e+00   1.177889e+06   0.000000e+00   0.000000e+00   0.000000e+00
     2160000   2.159999e-05   1.277714e+01   4.154700e+01   7.657008e+00   5.869048e+05   1.015196e+06  -1.111007e+05   0.000000e+00   0.000000e+00   0.000000e+00   1.177889e+06   0.000000e+00   0.000000e+00   0.000000e+00
     2168000   2.167999e-05   1.282410e+01   4.162821e+01   7.648120e+00   5.869048e+05   1.015196e+06  -1.111007e+05   0.000000e+00   0.000000e+00   0.000000e+00   1.177889e+06   0.000000e+00   0.000000e+00   0.000000e+00
     2176000   2.175999e-05   1.287105e+01   4.170943e+01   7.639232e+00   5.869048e+05   1.015196e+06  -1.111007e+05   0.000000e+00   0.000000e+00   0.000000e+00   1.177889e+06   0.000000e+00   0.000000e+00   0.000000e+00
     2184000   2.183999e-05   1.291800e+01   4.179065e+01   7.630344e+00   5.869048e+05   1.015196e+06  -1.111007e+05   0.000000e+00   0.000000e+00   0.000000e+00   1.177889e+06   0.000000e+00   0.000000e+00   0.000000e+00
     2192000   2.191999e-05   1.296495e+01   4.187186e+01   7.621456e+00   5.869048e+05   1.015196e+06  -1.111007e+05   0.000000e+00   0.000000e+00   0.000000e+00   1.177889e+06   0.000000e+00   0.000000e+00   0.000000e+00
     2200000   2.199999e-05   1.301191e+01   4.195308e+01   7.612568e+00   5.869048e+05   1.015196e+06  -1.111007e+05   0.000000e+00   0.000000e+00   0.000000e+00   1.177889e+06   0.000000e+00   0.000000e+00   0.000000e+00
     2208000   2.207999e-05   1.305886e+01   4.203429e+01   7.603680e+00   5.869048e+05   1.015196e+06  -1.111007e+05   0.000000e+00   0.000000e+00   0.000000e+00   1.177889e+06   0.000000e+00   0.000000e+00   0.000000e+00
     2216000   2.215999e-05   1.310581e+01   4.211551e+01   7.594792e+00   5.869048e+05   1.015196e+06  -1.111007e+05   0.000000e+00   0.000000e+00   0.000000e+00   1.177889e+06   0.000000e+00   0.000000e+00   0.000000e+00
     2224000   2.223999e-05   1.315276e+01   4.219672e+01   7.585904e+00   5.869048e+05   1.015196e+06  -1.111007e+05   0.000000e+00   0.000000e+00   0.000000e+00   1.177889e+06   0.000000e+00   0.000000e+00   0.000000e+00
     2232000   2.231999e-05   1.319972e+01   4.227794e+01   7.577015e+00   5.869048e+05   1.015196e+06  -1.111007e+05   0.000000e+00   0.000000e+00   0.000000e+00   1.177889e+06   0.000000e+00   0.000000e+00   0.000000e+00
     2240000   2.239999e-05   1.324667e+01   4.235915e+01   7.568127e+00   5.869048e+05   1.015196e+06  -1.111007e+05   0.000000e+00   0.000000e+00   0.000000e+00   1.177889e+06   0.000000e+00   0.000000e+00   0.000000e+00
     2248000   2.247999e-05   1.329362e+01   4.244037e+01   7.559239e+00   5.869048e+05   1.015196e+06  -1.111007e+05   0.000000e+00   0.000000e+00   0.000000e+00   1.177889e+06   0.000000e+00   0.000000e+00   0.000000e+00
     2256000   2.255999e-05   1.334057e+01   4.252159e+01   7.550351e+00   5.869048e+05   1.015196e+06  -1.111007e+05   0.000000e+00   0.000000e+00   0.000000e+00   1.177889e+06   0.000000e+00   0.000000e+00   0.000000e+00
     2264000   2.263999e-05   1.338753e+01   4.260280e+01   7.541463e+00   5.869048e+05   1.015196e+06  -1.111007e+05   0.000000e+00   0.000000e+00   0.000000e+00   1.177889e+06   0.000000e+00   0.000000e+00   0.000000e+00
     2272000   2.271999e-05   1.343448e+01   4.268402e+01   7.532575e+00   5.869048e+05   1.015196e+06  -1.111007e+05   0.000000e+00   0.000000e+00   0.000000e+00   1.177889e+06   0.000000e+00   0.000000e+00   0.000000e+00
     2280000   2.279999e-05   1.348143e+01   4.276523e+01   7.523687e+00   5.869048e+05   1.015196e+06  -1.111007e+05   0.000000e+00   0.000000e+00   0.000000e+00   1.177889e+06   0.000000e+00   0.000000e+00   0.000000e+00
     2288000   2.287999e-05   1.352838e+01   4.284645e+01   7.514799e+00   5.869048e+05   1.015196e+06  -1.111007e+05   0.000000e+00   0.000000e+00   0.000000e+00   1.177889e+06   0.000000e+00   0.000000e+00   0.000000e+00
     2296000   2.295999e-05   1.357533e+01   4.292766e+01   7.505911e+00   5.869048e+05   1.015196e+06  -1.111007e+05   0.000000e+00   0.000000e+00   0.000000e+00   1.177889e+06   0.000000e+00   0.000000e+00   0.000000e+00
     2304000   2.303999e-05   1.362229e+01   4.300888e+01   7.497023e+00   5.869048e+05   1.015196e+06  -1.111007e+05   0.000000e+00   0.000000e+00   0.000000e+00   1.177889e+06   0.000000e+00   0.000000e+00   0.000000e+00
     2312000   2.311999e-05   1.366924e+01   4.309010e+01   7.488135e+00   5.869048e+05   1.015196e+06  -1.111007e+05   0.000000e+00   0.000000e+00   0.000000e+00   1.177889e+06   0.000000e+00   0.000000e+00   0.000000e+00
     2320000   2.319999e-05   1.371619e+01   4.317131e+01   7.479247e+00   5.869048e+05   1.015196e+06  -1.111007e+05   0.000000e+00   0.000000e+00   0.000000e+00   1.177889e+06   0.000000e+00   0.000000e+00   0.000000e+00
     2328000   2.327999e-05   1.376314e+01   4.325253e+01   7.470359e+00   5.869048e+05   1.015196e+06  -1.111007e+05   0.000000e+00   0.000000e+00   0.000000e+00   1.177889e+06   0.000000e+00   0.000000e+00   0.000000e+00
     2336000   2.335999e-05   1.381010e+01   4.333374e+01   7.461471e+00   5.869048e+05   1.015196e+06  -1.111007e+05   0.000000e+00   0.000000e+00   0.000000e+00   1.177889e+06   0.000000e+00   0.000000e+00   0.000000e+00
     2344000   2.343999e-05   1.385705e+01   4.341496e+01   7.452583e+00   5.869048e+05   1.015196e+06  -1.111007e+05   0.000000e+00   0.000000e+00   0.000000e+00   1.177889e+06   0.000000e+00   0.000000e+00   0.000000e+00
     2352000   2.351999e-05   1.390400e+01   4.349617e+01   7.443695e+00   5.869048e+05   1.015196e+06  -1.111007e+05   0.000000e+00   0.000000e+00   0.000000e+00   1.177889e+06   0.000000e+00   0.000000e+00   0.000000e+00
     2360000   2.359999e-05   1.395095e+01   4.357739e+01   7.434807e+00   5.869048e+05   1.015196e+06  -1.111007e+05   0.000000e+00   0.000000e+00   0.000000e+00   1.177889e+06   0.000000e+00   0.000000e+00   0.000000e+00
     2368000   2.367999e-05   1.399791e+01   4.365861e+01   7.425919e+00   5.869048e+05   1.015196e+06  -1.111007e+05   0.000000e+00   0.000000e+00   0.000000e+00   1.177889e+06   0.000000e+00   0.000000e+00   0.000000e+00
     2376000   2.375999e-05   1.404486e+01   4.373982e+01   7.417031e+00   5.869048e+05   1.015196e+06  -1.111007e+05   0.000000e+00   0.000000e+00   0.000000e+00   1.177889e+06   0.000000e+00   0.000000e+00   0.000000e+00
     2384000   2.383999e-05   1.409181e+01   4.382104e+01   7.408142e+00   5.869048e+05   1.015196e+06  -1.111007e+05   0.000000e+00   0.000000e+00   0.000000e+00   1.177889e+06   0.000000e+00   0.000000e+00   0.000000e+00
     2392000   2.391999e-05   1.413876e+01   4.390225e+01   7.399254e+00   5.869048e+05   1.015196e+06  -1.111007e+05   0.000000e+00   0.000000e+00   0.000000e+00   1.177889e+06   0.000000e+00   0.000000e+00   0.000000e+00
     2400000   2.399999e-05   1.418572e+01   4.398347e+01   7.390366e+00   5.869048e+05   1.015196e+06  -1.111007e+05   0.000000e+00   0.000000e+00   0.000000e+00   1.177889e+06   0.000000e+00   0.000000e+00   0.000000e+00
     2408000   2.407999e-05   1.423267e+01   4.406468e+01   7.381478e+00   5.869048e+05   1.015196e+06  -1.111007e+05   0.000000e+00   0.000000e+00   0.000000e+00   1.177889e+06   0.000000e+00   0.000000e+00   0.000000e+00
     2416000   2.415999e-05   1.427962e+01   4.414590e+01   7.372590e+00   5.869048e+05   1.015196e+06  -1.111007e+05   0.000000e+00   0.000000e+00   0.000000e+00   1.177889e+06   0.000000e+00   0.000000e+00   0.000000e+00
     2424000   2.423999e-05   1.432657e+01   4.422711e+01   7.363702e+00   5.869048e+05   1.015196e+06  -1.111007e+05   0.000000e+00   0.000000e+00   0.000000e+00   1.177889e+06   0.000000e+00   0.000000e+00   0.000000e+00
     2432000   2.431999e-05   1.437353e+01   4.430833e+01   7.354814e+00   5.869048e+05   1.015196e+06  -1.111007e+05   0.000000e+00   0.000000e+00   0.000000e+00   1.177889e+06   0.000000e+00   0.000000e+00   0.000000e+00
     2440000   2.439999e-05   1.442048e+01   4.438955e+01   7.345926e+00   5.869048e+05   1.015196e+06  -1.111007e+05   0.000000e+00   0.000000e+00   0.000000e+00   1.177889e+06   0.000000e+00   0.000000e+00   0.000000e+00
     2448000   2.447999e-05   1.446743e+01   4.447076e+01   7.337038e+00   5.869048e+05   1.015196e+06  -1.111007e+05   0.000000e+00   0.000000e+00   0.000000e+00   1.177889e+06   0.000000e+00   0.000000e+00   0.000000e+00
     2456000   2.455999e-05   1.451438e+01   4.455198e+01   7.328150e+00   5.869048e+05   1.015196e+06  -1.111007e+05   0.000000e+00   0.000000e+00   0.000000e+00   1.177889e+06   0.000000e+00   0.000000e+00   0.000000e+00
     2464000   2.463999e-05   1.456133e+01   4.463319e+01   7.319262e+00   5.869048e+05   1.015196e+06  -1.111007e+05   0.000000e+00   0.000000e+00   0.000000e+00   1.177889e+06   0.000000e+00   0.000000e+00   0.000000e+00
     2472000   2.471999e-05   1.460829e+01   4.471441e+01   7.310374e+00   5.869048e+05   1.015196e+06  -1.111007e+05   0.000000e+00   0.000000e+00   0.000000e+00   1.177889e+06   0.000000e+00   0.000000e+00   0.000000e+00
     2480000   2.479999e-05   1.465524e+01   4.479562e+01   7.301486e+00   5.869048e+05   1.015196e+06  -1.111007e+05   0.000000e+00   0.000000e+00   0.000000e+00   1.177889e+06   0.000000e+00   0.000000e+00   0.000000e+00
     2488000   2.487999e-05   1.470219e+01   4.487684e+01   7.292598e+00   5.869048e+05   1.015196e+06  -1.111007e+05   0.000000e+00   0.000000e+00   0.000000e+00   1.177889e+06   0.000000e+00   0.000000e+00   0.000000e+00
     2496000   2.495999e-05   1.474914e+01   4.495806e+01   7.283710e+00   5.869048e+05   1.015196e+06  -1.111007e+05   0.000000e+00   0.000000e+00   0.000000e+00   1.177889e+06   0.000000e+00   0.000000e+00   0.000000e+00
     2504000   2.503999e-05   1.479610e+01   4.503927e+01   7.274822e+00   5.869048e+05   1.015196e+06  -1.111007e+05   0.000000e+00   0.000000e+00   0.000000e+00   1.177889e+06   0.000000e+00   0.000000e+00   0.000000e+00
     2512000   2.511999e-05   1.484305e+01   4.512049e+01   7.265934e+00   5.869048e+05   1.015196e+06  -1.111007e+05   0.000000e+00   0.000000e+00   0.000000e+00   1.177889e+06   0.000000e+00   0.000000e+00   0.000000e+00
     2520000   2.519999e-05   1.489000e+01   4.520170e+01   7.257046e+00   5.869048e+05   1.015196e+06  -1.111007e+05   0.000000e+00   0.000000e+00   0.000000e+00   1.177889e+06   0.000000e+00   0.000000e+00   0.000000e+00
     2528000   2.527999e-05   1.493695e+01   4.528292e+01   7.248158e+00   5.869048e+05   1.015196e+06  -1.111007e+05   0.000000e+00   0.000000e+00   0.000000e+00   1.177889e+06   0.000000e+00   0.000000e+00   0.000000e+00
     2536000   2.535999e-05   1.498391e+01   4.536413e+01   7.239269e+00   5.869048e+05   1.015196e+06  -1.111007e+05   0.000000e+00   0.000000e+00   0.000000e+00   1.177889e+06   0.000000e+00   0.000000e+00   0.000000e+00
     2544000   2.543999e-05   1.503086e+01   4.544535e+01   7.230381e+00   5.869048e+05   1.015196e+06  -1.111007e+05   0.000000e+00   0.000000e+00   0.000000e+00   1.177889e+06   0.000000e+00   0.000000e+00   0.000000e+00
     2552000   2.551999e-05   1.507781e+01   4.552657e+01   7.221493e+00   5.869048e+05   1.015196e+06  -1.111007e+05   0.000000e+00   0.000000e+00   0.000000e+00   1.177889e+06   0.000000e+00   0.000000e+00   0.000000e+00
     2560000   2.559999e-05   1.512476e+01   4.560778e+01   7.212605e+00   5.869048e+05   1.015196e+06  -1.111007e+05   0.000000e+00   0.000000e+00   0.000000e+00   1.177889e+06   0.000000e+00   0.000000e+00   0.000000e+00
     2568000   2.567999e-05   1.517172e+01   4.568900e+01   7.203717e+00   5.869048e+05   1.015196e+06  -1.111007e+05   0.000000e+00   0.000000e+00   0.000000e+00   1.177889e+06   0.000000e+00   0.000000e+00   0.000000e+00
     2576000   2.575999e-05   1.521867e+01   4.577021e+01   7.194829e+00   5.869048e+05   1.015196e+06  -1.111007e+05   0.000000e+00   0.000000e+00   0.000000e+00   1.177889e+06   0.000000e+00   0.000000e+00   0.000000e+00
     2584000   2.583999e-05   1.526562e+01   4.585143e+01   7.185941e+00   5.869048e+05   1.015196e+06  -1.111007e+05   0.000000e+00   0.000000e+00   0.000000e+00   1.177889e+06   0.000000e+00   0.000000e+00   0.000000e+00
     2592000   2.591999e-05   1.531257e+01   4.593264e+01   7.177053e+00   5.869048e+05   1.015196e+06  -1.111007e+05   0.000000e+00   0.000000e+00   0.000000e+00   1.177889e+06   0.000000e+00   0.000000e+00   0.000000e+00
     2600000   2.599999e-05   1.535953e+01   4.601386e+01   7.168165e+00   5.869048e+05   1.015196e+06  -1.111007e+05   0.000000e+00   0.000000e+00   0.000000e+00   1.177889e+06   0.000000e+00   0.000000e+00   0.000000e+00
     2608000   2.607999e-05   1.540648e+01   4.609508e+01   7.159277e+00   5.869048e+05   1.015196e+06  -1.111007e+05   0.000000e+00   0.000000e+00   0.000000e+00   1.177889e+06   0.000000e+00   0.000000e+00   0.000000e+00
     2616000   2.615999e-05   1.545343e+01   4.617629e+01   7.150389e+00   5.869048e+05   1.015196e+06  -1.111007e+05   0.000000e+00   0.000000e+00   0.000000e+00   1.177889e+06   0.000000e+00   0.000000e+00   0.000000e+00
     2624000   2.623999e-05   1.550038e+01   4.625751e+01   7.141501e+00   5.869048e+05   1.015196e+06  -1.111007e+05   0.000000e+00   0.000000e+00   0.000000e+00   1.177889e+06   0.000000e+00   0.000000e+00   0.000000e+00
     2632000   2.631999e-05   1.554733e+01   4.633872e+01   7.132613e+00   5.869048e+05   1.015196e+06  -1.111007e+05   0.000000e+00   0.000000e+00   0.000000e+00   1.177889e+06   0.000000e+00   0.000000e+00   0.000000e+00
     2640000   2.639999e-05   1.559429e+01   4.641994e+01   7.123725e+00   5.869048e+05   1.015196e+06  -1.111007e+05   0.000000e+00   0.000000e+00   0.000000e+00   1.177889e+06   0.000000e+00   0.000000e+00   0.000000e+00
     2648000   2.647999e-05   1.564124e+01   4.650115e+01   7.114837e+00   5.869048e+05   1.015196e+06  -1.111007e+05   0.000000e+00   0.000000e+00   0.000000e+00   1.177889e+06   0.000000e+00   0.000000e+00   0.000000e+00
     2656000   2.655999e-05   1.568819e+01   4.658237e+01   7.105949e+00   5.869048e+05   1.015196e+06  -1.111007e+05   0.000000e+00   0.000000e+00   0.000000e+00   1.177889e+06   0.000000e+00   0.000000e+00   0.000000e+00
     2664000   2.663999e-05   1.573514e+01   4.666358e+01   7.097061e+00   5.869048e+05   1.015196e+06  -1.111007e+05   0.000000e+00   0.000000e+00   0.000000e+00   1.177889e+06   0.000000e+00   0.000000e+00   0.000000e+00
     2672000   2.671999e-05   1.578210e+01   4.674480e+01   7.088173e+00   5.869048e+05   1.015196e+06  -1.111007e+05   0.000000e+00   0.000000e+00   0.000000e+00   1.177889e+06   0.000000e+00   0.000000e+00   0.000000e+00
     2680000   2.679999e-05   1.582905e+01   4.682602e+01   7.079285e+00   5.869048e+05   1.015196e+06  -1.111007e+05   0.000000e+00   0.000000e+00   0.000000e+00   1.177889e+06   0.000000e+00   0.000000e+00   0.000000e+00
     2688000   2.687999e-05   1.587600e+01   4.690723e+01   7.070397e+00   5.869048e+05   1.015196e+06  -1.111007e+05   0.000000e+00   0.000000e+00   0.000000e+00   1.177889e+06   0.000000e+00   0.000000e+00   0.000000e+00
     2696000   2.695999e-05   1.592295e+01   4.698845e+01   7.061508e+00   5.869048e+05   1.015196e+06  -1.111007e+05   0.000000e+00   0.000000e+00   0.000000e+00   1.177889e+06   0.000000e+00   0.000000e+00   0.000000e+00
     2704000   2.703999e-05   1.596991e+01   4.706966e+01   7.052620e+00   5.869048e+05   1.015196e+06  -1.111007e+05   0.000000e+00   0.000000e+00   0.000000e+00   1.177889e+06   0.000000e+00   0.000000e+00   0.000000e+00
     2712000   2.711999e-05   1.601686e+01   4.715088e+01   7.043732e+00   5.869048e+05   1.015196e+06  -1.111007e+05   0.000000e+00   0.000000e+00   0.000000e+00   1.177889e+06   0.000000e+00   0.000000e+00   0.000000e+00
     2720000   2.719999e-05   1.606381e+01   4.723209e+01   7.034844e+00   5.869048e+05   1.015196e+06  -1.111007e+05   0.000000e+00   0.000000e+00   0.000000e+00   1.177889e+06   0.000000e+00   0.000000e+00   0.000000e+00
     2728000   2.727999e-05   1.611076e+01   4.731331e+01   7.025956e+00   5.869048e+05   1.015196e+06  -1.111007e+05   0.000000e+00   0.000000e+00   0.000000e+00   1.177889e+06   0.000000e+00   0.000000e+00   0.000000e+00
     2736000   2.735999e-05   1.615772e+01   4.739453e+01   7.017068e+00   5.869048e+05   1.015196e+06  -1.111007e+05   0.000000e+00   0.000000e+00   0.000000e+00   1.177889e+06   0.000000e+00   0.000000e+00   0.000000e+00
     2744000   2.743999e-05   1.620467e+01   4.747574e+01   7.008180e+00   5.869048e+05   1.015196e+06  -1.111007e+05   0.000000e+00   0.000000e+00   0.000000e+00   1.177889e+06   0.000000e+00   0.000000e+00   0.000000e+00
     2752000   2.751999e-05   1.625162e+01   4.755696e+01   6.999292e+00   5.869048e+05   1.015196e+06  -1.111007e+05   0.000000e+00   0.000000e+00   0.000000e+00   1.177889e+06   0.000000e+00   0.000000e+00   0.000000e+00
     2760000   2.759999e-05   1.629857e+01   4.763817e+01   6.990404e+00   5.869048e+05   1.015196e+06  -1.111007e+05   0.000000e+00   0.000000e+00   0.000000e+00   1.177889e+06   0.000000e+00   0.000000e+00   0.000000e+00
     2768000   2.767999e-05   1.634553e+01   4.771939e+01   6.981516e+00   5.869048e+05   1.015196e+06  -1.111007e+05   0.000000e+00   0.000000e+00   0.000000e+00   1.177889e+06   0.000000e+00   0.000000e+00   0.000000e+00
     2776000   2.775999e-05   1.639248e+01   4.780060e+01   6.972628e+00   5.869048e+05   1.015196e+06  -1.111007e+05   0.000000e+00   0.000000e+00   0.000000e+00   1.177889e+06   0.000000e+00   0.000000e+00   0.000000e+00
     2784000   2.783999e-05   1.643943e+01   4.788182e+01   6.963740e+00   5.869048e+05   1.015196e+06  -1.111007e+05   0.000000e+00   0.000000e+00   0.000000e+00   1.177889e+06   0.000000e+00   0.000000e+00   0.000000e+00
     2792000   2.791999e-05   1.648638e+01   4.796304e+01   6.954852e+00   5.869048e+05   1.015196e+06  -1.111007e+05   0.000000e+00   0.000000e+00   0.000000e+00   1.177889e+06   0.000000e+00   0.000000e+00   0.000000e+00
     2800000   2.799999e-05   1.653334e+01   4.804425e+01   6.945964e+00   5.869048e+05   1.015196e+06  -1.111007e+05   0.000000e+00   0.000000e+00   0.000000e+00   1.177889e+06   0.000000e+00   0.000000e+00   0.000000e+00
     2808000   2.807999e-05   1.658029e+01   4.812547e+01   6.937076e+00   5.869048e+05   1.015196e+06  -1.111007e+05   0.000000e+00   0.000000e+00   0.000000e+00   1.177889e+06   0.000000e+00   0.000000e+00   0.000000e+00
     2816000   2.815999e-05   1.662724e+01   4.820668e+01   6.928188e+00   5.869048e+05   1.015196e+06  -1.111007e+05   0.000000e+00   0.000000e+00   0.000000e+00   1.177889e+06   0.000000e+00   0.000000e+00   0.000000e+00
     2824000   2.823999e-05   1.667419e+01   4.828790e+01   6.919300e+00   5.869048e+05   1.015196e+06  -1.111007e+05   0.000000e+00   0.000000e+00   0.000000e+00   1.177889e+06   0.000000e+00   0.000000e+00   0.000000e+00
     2832000   2.831999e-05   1.672114e+01   4.836911e+01   6.910412e+00   5.869048e+05   1.015196e+06  -1.111007e+05   0.000000e+00   0.000000e+00   0.000000e+00   1.177889e+06   0.000000e+00   0.000000e+00   0.000000e+00
     2840000   2.839999e-05   1.676810e+01   4.845033e+01   6.901524e+00   5.869048e+05   1.015196e+06  -1.111007e+05   0.000000e+00   0.000000e+00   0.000000e+00   1.177889e+06   0.000000e+00   0.000000e+00   0.000000e+00
     2848000   2.847999e-05   1.681505e+01   4.853154e+01   6.892635e+00   5.869048e+05   1.015196e+06  -1.111007e+05   0.000000e+00   0.000000e+00   0.000000e+00   1.177889e+06   0.000000e+00   0.000000e+00   0.000000e+00
     2856000   2.855999e-05   1.686200e+01   4.861276e+01   6.883747e+00   5.869048e+05   1.015196e+06  -1.111007e+05   0.000000e+00   0.000000e+00   0.000000e+00   1.177889e+06   0.000000e+00   0.000000e+00   0.000000e+00
     2864000   2.863999e-05   1.690895e+01   4.869398e+01   6.874859e+00   5.869048e+05   1.015196e+06  -1.111007e+05   0.000000e+00   0.000000e+00   0.000000e+00   1.177889e+06   0.000000e+00   0.000000e+00   0.000000e+00
     2872000   2.871999e-05   1.695591e+01   4.877519e+01   6.865971e+00   5.869048e+05   1.015196e+06  -1.111007e+05   0.000000e+00   0.000000e+00   0.000000e+00   1.177889e+06   0.000000e+00   0.000000e+00   0.000000e+00
     2880000   2.879999e-05   1.700286e+01   4.885641e+01   6.857083e+00   5.869048e+05   1.015196e+06  -1.111007e+05   0.000000e+00   0.000000e+00   0.000000e+00   1.177889e+06   0.000000e+00   0.000000e+00   0.000000e+00
     2888000   2.887999e-05   1.704981e+01   4.893762e+01   6.848195e+00   5.869048e+05   1.015196e+06  -1.111007e+05   0.000000e+00   0.000000e+00   0.000000e+00   1.177889e+06   0.000000e+00   0.000000e+00   0.000000e+00
     2896000   2.895999e-05   1.709676e+01   4.901884e+01   6.839307e+00   5.869048e+05   1.015196e+06  -1.111007e+05   0.000000e+00   0.000000e+00   0.000000e+00   1.177889e+06   0.000000e+00   0.000000e+00   0.000000e+00
     2904000   2.903999e-05   1.714372e+01   4.910005e+01   6.830419e+00   5.869048e+05   1.015196e+06  -1.111007e+05   0.000000e+00   0.000000e+00   0.000000e+00   1.177889e+06   0.000000e+00   0.000000e+00   0.000000e+00
     2912000   2.911999e-05   1.719067e+01   4.918127e+01   6.821531e+00   5.869048e+05   1.015196e+06  -1.111007e+05   0.000000e+00   0.000000e+00   0.000000e+00   1.177889e+06   0.000000e+00   0.000000e+00   0.000000e+00
     2920000   2.919999e-05   1.723762e+01   4.926249e+01   6.812643e+00   5.869048e+05   1.015196e+06  -1.111007e+05   0.000000e+00   0.000000e+00   0.000000e+00   1.177889e+06   0.000000e+00   0.000000e+00   0.000000e+00
     2928000   2.927999e-05   1.728457e+01   4.934370e+01   6.803755e+00   5.869048e+05   1.015196e+06  -1.111007e+05   0.000000e+00   0.000000e+00   0.000000e+00   1.177889e+06   0.000000e+00   0.000000e+00   0.000000e+00
     2936000   2.935999e-05   1.733153e+01   4.942492e+01   6.794867e+00   5.869048e+05   1.015196e+06  -1.111007e+05   0.000000e+00   0.000000e+00   0.000000e+00   1.177889e+06   0.000000e+00   0.000000e+00   0.000000e+00
     2944000   2.943999e-05   1.737848e+01   4.950613e+01   6.785979e+00   5.869048e+05   1.015196e+06  -1.111007e+05   0.000000e+00   0.000000e+00   0.000000e+00   1.177889e+06   0.000000e+00   0.000000e+00   0.000000e+00
     2952000   2.951999e-05   1.742543e+01   4.958735e+01   6.777091e+00   5.869048e+05   1.015196e+06  -1.111007e+05   0.000000e+00   0.000000e+00   0.000000e+00   1.177889e+06   0.000000e+00   0.000000e+00   0.000000e+00
     2960000   2.959999e-05   1.747238e+01   4.966856e+01   6.768203e+00   5.869048e+05   1.015196e+06  -1.111007e+05   0.000000e+00   0.000000e+00   0.000000e+00   1.177889e+06   0.000000e+00   0.000000e+00   0.000000e+00
     2968000   2.967999e-05   1.751934e+01   4.974978e+01   6.759315e+00   5.869048e+05   1.015196e+06  -1.111007e+05   0.000000e+00   0.000000e+00   0.000000e+00   1.177889e+06   0.000000e+00   0.000000e+00   0.000000e+00
     2976000   2.975999e-05   1.756629e+01   4.983100e+01   6.750427e+00   5.869048e+05   1.015196e+06  -1.111007e+05   0.000000e+00   0.000000e+00   0.000000e+00   1.177889e+06   0.000000e+00   0.000000e+00   0.000000e+00
     2984000   2.983999e-05   1.761324e+01   4.991221e+01   6.741539e+00   5.869048e+05   1.015196e+06  -1.111007e+05   0.000000e+00   0.000000e+00   0.000000e+00   1.177889e+06   0.000000e+00   0.000000e+00   0.000000e+00
     2992000   2.991999e-05   1.766019e+01   4.999343e+01   6.732651e+00   5.869048e+05   1.015196e+06  -1.111007e+05   0.000000e+00   0.000000e+00   0.000000e+00   1.177889e+06   0.000000e+00   0.000000e+00   0.000000e+00
