     timestep     time              x             y              z              vx             vy             vz             ax             ay             az         v_magnitude      ELoss        Electronic      Nuclear
           0   0.000000e+00   1.000000e-01   1.152167e+01   2.084832e+01   3.033551e+05   9.562822e+04   1.805327e+06   0.000000e+00   0.000000e+00   0.000000e+00   1.833133e+06   0.000000e+00   0.000000e+00   0.000000e+00
        8000   7.999000e-08   1.242684e-01   1.152932e+01   2.099274e+01   3.033545e+05   9.563022e+04   1.805327e+06  -7.906763e+05   2.508153e+06   4.377672e-16   1.833133e+06   5.623376e-29   0.000000e+00   0.000000e+00
       16000   1.599900e-07   1.485367e-01   1.153697e+01   2.113717e+01   3.033539e+05   9.563222e+04   1.805327e+06  -1.182050e+06   3.749568e+06  -1.240909e-15   1.833133e+06   1.254905e-28   0.000000e+00   0.000000e+00
       24000   2.399900e-07   1.728050e-01   1.154462e+01   2.128160e+01   3.033535e+05   9.563332e+04   1.805327e+06  -1.201769e+07   3.812069e+07  -6.135614e-15   1.833133e+06   1.292941e-26   0.000000e+00   0.000000e+00
       32000   3.199900e-07   1.970733e-01   1.155227e+01   2.142602e+01   3.033536e+05   9.563314e+04   1.805327e+06  -7.643002e+06   2.424402e+07   1.284071e-14   1.833133e+06   5.228943e-27   0.000000e+00   0.000000e+00
       40000   3.999900e-07   2.213416e-01   1.155992e+01   2.157045e+01   3.033534e+05   9.563354e+04   1.805327e+06  -2.372442e+06   7.525483e+06   1.184151e-15   1.833133e+06   5.038390e-28   0.000000e+00   0.000000e+00
       48000   4.799900e-07   2.456098e-01   1.156757e+01   2.171487e+01   3.033534e+05   9.563356e+04   1.805327e+06  -1.501997e+06   4.764393e+06  -2.138272e-15   1.833133e+06   2.019133e-28   0.000000e+00   0.000000e+00
       56000   5.599900e-07   2.698781e-01   1.157522e+01   2.185930e+01   3.033534e+05   9.563378e+04   1.805327e+06   1.896844e+06  -6.016850e+06  -5.941849e-16   1.833133e+06   3.220361e-28   0.000000e+00   0.000000e+00
       64000   6.399900e-07   2.941464e-01   1.158287e+01   2.200373e+01   3.033533e+05   9.563402e+04   1.805327e+06   1.466965e+06  -4.653247e+06  -7.689495e-16   1.833133e+06   1.925861e-28   0.000000e+00   0.000000e+00
       72000   7.199900e-07   3.184147e-01   1.159052e+01   2.214815e+01   3.033533e+05   9.563390e+04   1.805327e+06   2.537651e+00  -8.049496e+00  -2.734564e-21   1.833133e+06   5.764177e-40   0.000000e+00   0.000000e+00
       80000   7.999900e-07   3.426829e-01   1.159817e+01   2.229258e+01   3.033533e+05   9.563390e+04   1.805327e+06   9.177989e-01  -2.911283e+00   1.135278e-21   1.833133e+06   7.546140e-41   0.000000e+00   0.000000e+00
       88000   8.799900e-07   3.669512e-01   1.160582e+01   2.243700e+01   3.033533e+05   9.563390e+04   1.805327e+06   1.927697e+00  -6.114706e+00   1.758915e-21   1.833133e+06   3.327277e-40   0.000000e+00   0.000000e+00
       96000   9.599900e-07   3.912195e-01   1.161347e+01   2.258143e+01   3.033533e+05   9.563390e+04   1.805327e+06   3.600983e+00  -1.142242e+01   7.262909e-21   1.833133e+06   1.161033e-39   0.000000e+00   0.000000e+00
      104000   1.039990e-06   4.154877e-01   1.162112e+01   2.272586e+01   3.033533e+05   9.563390e+04   1.805327e+06   1.809450e+00  -5.739623e+00   1.892126e-21   1.833133e+06   2.932940e-40   0.000000e+00   0.000000e+00
      112000   1.119990e-06   4.397560e-01   1.162878e+01   2.287028e+01   3.033533e+05   9.563390e+04   1.805327e+06   1.792199e+00  -5.684902e+00  -6.488765e-22   1.833133e+06   2.875488e-40   0.000000e+00   0.000000e+00
      120000   1.199990e-06   4.640243e-01   1.163643e+01   2.301471e+01   3.033533e+05   9.563390e+04   1.805327e+06   5.093694e-01  -1.615733e+00  -9.513827e-23   1.833133e+06   2.321628e-41   0.000000e+00   0.000000e+00
      128000   1.279990e-06   4.882925e-01   1.164408e+01   2.315914e+01   3.033533e+05   9.563390e+04   1.805327e+06  -2.166074e+00   6.870845e+00  -9.003917e-22   1.833133e+06   4.199663e-40   0.000000e+00   0.000000e+00
      136000   1.359990e-06   5.125608e-01   1.165173e+01   2.330356e+01   3.033533e+05   9.563390e+04   1.805327e+06   9.000970e-01  -2.855132e+00   6.922433e-22   1.833133e+06   7.250760e-41   0.000000e+00   0.000000e+00
      144000   1.439990e-06   5.368291e-01   1.165938e+01   2.344799e+01   3.033533e+05   9.563390e+04   1.805327e+06   7.596382e-01  -2.409593e+00  -1.597148e-23   1.833133e+06   5.168975e-41   0.000000e+00   0.000000e+00
      152000   1.519990e-06   5.610973e-01   1.166703e+01   2.359241e+01   3.033533e+05   9.563390e+04   1.805327e+06   2.601349e+00  -8.251550e+00  -5.481421e-21   1.833133e+06   6.058222e-40   0.000000e+00   0.000000e+00
      160000   1.599990e-06   5.853656e-01   1.167468e+01   2.373684e+01   3.033533e+05   9.563390e+04   1.805327e+06   2.489660e+00  -7.897269e+00  -2.588930e-22   1.833133e+06   5.549126e-40   0.000000e+00   0.000000e+00
      168000   1.679990e-06   6.096339e-01   1.168233e+01   2.388127e+01   3.033533e+05   9.563390e+04   1.805327e+06   1.829557e+00  -5.803405e+00   3.241973e-21   1.833133e+06   2.997600e-40   0.000000e+00   0.000000e+00
      176000   1.759990e-06   6.339021e-01   1.168998e+01   2.402569e+01   3.033533e+05   9.563390e+04   1.805327e+06   2.052260e+00  -6.509825e+00  -1.708321e-21   1.833133e+06   3.771727e-40   0.000000e+00   0.000000e+00
      184000   1.839990e-06   6.581704e-01   1.169763e+01   2.417012e+01   3.033533e+05   9.563390e+04   1.805327e+06   3.228458e+00  -1.024076e+01   2.088116e-21   1.833133e+06   9.332014e-40   0.000000e+00   0.000000e+00
      192000   1.919990e-06   6.824387e-01   1.170528e+01   2.431455e+01   3.033533e+05   9.563390e+04   1.805327e+06   1.131173e+00  -3.588110e+00  -8.101848e-24   1.833133e+06   1.145811e-40   0.000000e+00   0.000000e+00
      200000   1.999990e-06   7.067069e-01   1.171293e+01   2.445897e+01   3.033533e+05   9.563390e+04   1.805327e+06   9.000342e-01  -2.854933e+00  -2.683256e-22   1.833133e+06   7.255980e-41   0.000000e+00   0.000000e+00
      208000   2.079990e-06   7.309752e-01   1.172058e+01   2.460340e+01   3.033533e+05   9.563390e+04   1.805327e+06   8.945772e-01  -2.837623e+00   9.672753e-22   1.833133e+06   7.168275e-41   0.000000e+00   0.000000e+00
      216000   2.159990e-06   7.552435e-01   1.172823e+01   2.474782e+01   3.033533e+05   9.563390e+04   1.805327e+06   2.251504e+00  -7.141833e+00   1.429816e-21   1.833133e+06   4.538440e-40   0.000000e+00   0.000000e+00
      224000   2.239990e-06   7.795117e-01   1.173589e+01   2.489225e+01   3.033533e+05   9.563390e+04   1.805327e+06  -3.912367e-01   1.241014e+00  -4.105221e-22   1.833133e+06   1.369454e-41   0.000000e+00   0.000000e+00
      232000   2.319990e-06   8.037800e-01   1.174354e+01   2.503668e+01   3.033533e+05   9.563390e+04   1.805327e+06   8.280419e-01  -2.626571e+00   7.453285e-22   1.833133e+06   6.136003e-41   0.000000e+00   0.000000e+00
      240000   2.399990e-06   8.280483e-01   1.175119e+01   2.518110e+01   3.033533e+05   9.563390e+04   1.805327e+06  -1.274900e+00   4.044016e+00   2.754997e-22   1.833133e+06   1.454571e-40   0.000000e+00   0.000000e+00
      248000   2.479990e-06   8.523165e-01   1.175884e+01   2.532553e+01   3.033533e+05   9.563390e+04   1.805327e+06  -1.301094e+00   4.127107e+00   2.012327e-22   1.833133e+06   1.514974e-40   0.000000e+00   0.000000e+00
      256000   2.559990e-06   8.765848e-01   1.176649e+01   2.546995e+01   3.033533e+05   9.563390e+04   1.805327e+06   7.775405e-01  -2.466379e+00   1.053312e-21   1.833133e+06   5.410173e-41   0.000000e+00   0.000000e+00
      264000   2.639990e-06   9.008531e-01   1.177414e+01   2.561438e+01   3.033533e+05   9.563390e+04   1.805327e+06   2.615243e+00  -8.295621e+00   4.749585e-21   1.833133e+06   6.124258e-40   0.000000e+00   0.000000e+00
      272000   2.719990e-06   9.251213e-01   1.178179e+01   2.575881e+01   3.033533e+05   9.563390e+04   1.805327e+06   1.450534e+00  -4.601132e+00   2.289728e-21   1.833133e+06   1.883623e-40   0.000000e+00   0.000000e+00
      280000   2.799990e-06   9.493896e-01   1.178944e+01   2.590323e+01   3.033533e+05   9.563390e+04   1.805327e+06   1.597624e+00  -5.067707e+00   4.108618e-22   1.833133e+06   2.285048e-40   0.000000e+00   0.000000e+00
      288000   2.879990e-06   9.736579e-01   1.179709e+01   2.604766e+01   3.033533e+05   9.563390e+04   1.805327e+06   4.184046e+00  -1.327191e+01  -1.899885e-21   1.833133e+06   1.567546e-39   0.000000e+00   0.000000e+00
      296000   2.959990e-06   9.979261e-01   1.180474e+01   2.619209e+01   3.033533e+05   9.563390e+04   1.805327e+06   6.915272e+00  -2.193543e+01   8.090333e-21   1.833133e+06   4.281234e-39   0.000000e+00   0.000000e+00
      304000   3.039990e-06   1.022194e+00   1.181239e+01   2.633651e+01   3.033533e+05   9.563390e+04   1.805327e+06   2.694984e+00  -8.548562e+00   2.842662e-21   1.833133e+06   6.505032e-40   0.000000e+00   0.000000e+00
      312000   3.119990e-06   1.046463e+00   1.182004e+01   2.648094e+01   3.033533e+05   9.563390e+04   1.805327e+06   2.325475e+00  -7.376468e+00   4.758308e-21   1.833133e+06   4.841968e-40   0.000000e+00   0.000000e+00
      320000   3.199990e-06   1.070731e+00   1.182769e+01   2.662536e+01   3.033533e+05   9.563390e+04   1.805327e+06   8.342617e-01  -2.646301e+00   4.856173e-23   1.833133e+06   6.231015e-41   0.000000e+00   0.000000e+00
      328000   3.279990e-06   1.094999e+00   1.183534e+01   2.676979e+01   3.033533e+05   9.563390e+04   1.805327e+06  -1.702485e+00   5.400328e+00  -2.924992e-21   1.833133e+06   2.594242e-40   0.000000e+00   0.000000e+00
      336000   3.359990e-06   1.119267e+00   1.184300e+01   2.691422e+01   3.033533e+05   9.563390e+04   1.805327e+06   6.346201e-01  -2.013032e+00   7.269075e-22   1.833133e+06   3.603519e-41   0.000000e+00   0.000000e+00
      344000   3.439990e-06   1.143536e+00   1.185065e+01   2.705864e+01   3.033533e+05   9.563390e+04   1.805327e+06   2.544244e+00  -8.070412e+00   4.478278e-21   1.833133e+06   5.796373e-40   0.000000e+00   0.000000e+00
      352000   3.519990e-06   1.167804e+00   1.185830e+01   2.720307e+01   3.033533e+05   9.563390e+04   1.805327e+06   3.734241e+00  -1.184511e+01   5.553815e-21   1.833133e+06   1.248644e-39   0.000000e+00   0.000000e+00
      360000   3.599990e-06   1.192072e+00   1.186595e+01   2.734749e+01   3.033533e+05   9.563390e+04   1.805327e+06   3.235452e+00  -1.026294e+01   6.819695e-21   1.833133e+06   9.371949e-40   0.000000e+00   0.000000e+00
      368000   3.679990e-06   1.216341e+00   1.187360e+01   2.749192e+01   3.033533e+05   9.563390e+04   1.805327e+06   1.015654e+00  -3.221683e+00  -9.590892e-22   1.833133e+06   9.238835e-41   0.000000e+00   0.000000e+00
      376000   3.759990e-06   1.240609e+00   1.188125e+01   2.763635e+01   3.033533e+05   9.563390e+04   1.805327e+06  -1.916730e-01   6.079921e-01  -1.852074e-22   1.833133e+06   3.285533e-42   0.000000e+00   0.000000e+00
      384000   3.839990e-06   1.264877e+00   1.188890e+01   2.778077e+01   3.033533e+05   9.563390e+04   1.805327e+06  -3.501555e-01   1.110703e+00  -2.707826e-22   1.833133e+06   1.097039e-41   0.000000e+00   0.000000e+00
      392000   3.919990e-06   1.289145e+00   1.189655e+01   2.792520e+01   3.033533e+05   9.563390e+04   1.805327e+06  -1.137953e+00   3.609616e+00  -7.180110e-22   1.833133e+06   1.159238e-40   0.000000e+00   0.000000e+00
      400000   3.999990e-06   1.313414e+00   1.190420e+01   2.806963e+01   3.033533e+05   9.563390e+04   1.805327e+06   1.257171e+00  -3.987781e+00   8.013118e-23   1.833133e+06   1.414382e-40   0.000000e+00   0.000000e+00
      408000   4.079990e-06   1.337682e+00   1.191185e+01   2.821405e+01   3.033533e+05   9.563390e+04   1.805327e+06   2.927268e+00  -9.285375e+00  -2.573081e-21   1.833133e+06   7.670844e-40   0.000000e+00   0.000000e+00
      416000   4.159990e-06   1.361950e+00   1.191950e+01   2.835848e+01   3.033533e+05   9.563390e+04   1.805327e+06   4.083657e+00  -1.295347e+01   3.610841e-21   1.833133e+06   1.493145e-39   0.000000e+00   0.000000e+00
      424000   4.239990e-06   1.386218e+00   1.192715e+01   2.850290e+01   3.033533e+05   9.563390e+04   1.805327e+06   6.014218e+00  -1.907726e+01   7.453699e-21   1.833133e+06   3.238682e-39   0.000000e+00   0.000000e+00
      432000   4.319990e-06   1.410487e+00   1.193480e+01   2.864733e+01   3.033533e+05   9.563390e+04   1.805327e+06   3.833068e+00  -1.215860e+01   4.609204e-21   1.833133e+06   1.315815e-39   0.000000e+00   0.000000e+00
      440000   4.399990e-06   1.434755e+00   1.194245e+01   2.879176e+01   3.033533e+05   9.563390e+04   1.805327e+06   2.280566e+00  -7.234018e+00  -2.670461e-21   1.833133e+06   4.657646e-40   0.000000e+00   0.000000e+00
      448000   4.479990e-06   1.459023e+00   1.195011e+01   2.893618e+01   3.033533e+05   9.563390e+04   1.805327e+06  -8.625624e-02   2.736071e-01   1.752754e-23   1.833133e+06   6.638723e-43   0.000000e+00   0.000000e+00
      456000   4.559990e-06   1.483291e+00   1.195776e+01   2.908061e+01   3.033533e+05   9.563390e+04   1.805327e+06  -2.116262e+00   6.712841e+00  -1.214421e-21   1.833133e+06   4.008862e-40   0.000000e+00   0.000000e+00
      464000   4.639990e-06   1.507560e+00   1.196541e+01   2.922504e+01   3.033533e+05   9.563390e+04   1.805327e+06  -9.329308e-01   2.959282e+00  -2.728973e-22   1.833133e+06   7.787885e-41   0.000000e+00   0.000000e+00
      472000   4.719990e-06   1.531828e+00   1.197306e+01   2.936946e+01   3.033533e+05   9.563390e+04   1.805327e+06   2.525208e+00  -8.010029e+00  -2.545375e-21   1.833133e+06   5.708305e-40   0.000000e+00   0.000000e+00
      480000   4.799990e-06   1.556096e+00   1.198071e+01   2.951389e+01   3.033533e+05   9.563390e+04   1.805327e+06   2.266718e+00  -7.190091e+00  -5.423511e-22   1.833133e+06   4.599336e-40   0.000000e+00   0.000000e+00
      488000   4.879990e-06   1.580365e+00   1.198836e+01   2.965831e+01   3.033533e+05   9.563390e+04   1.805327e+06  -9.970075e+00   2.217710e+01   5.005037e-01   1.833133e+06   4.785660e-39   0.000000e+00   0.000000e+00
      496000   4.959990e-06   1.604633e+00   1.199601e+01   2.980274e+01   3.033533e+05   9.563390e+04   1.805327e+06   7.803595e+00  -1.912493e+01  -2.981479e-01   1.833133e+06   3.458939e-39   0.000000e+00   0.000000e+00
      504000   5.039990e-06   1.628901e+00   1.200366e+01   2.994717e+01   3.033533e+05   9.563390e+04   1.805327e+06  -5.079032e-01  -1.226414e+00   1.503112e-01   1.833133e+06   1.443062e-41   0.000000e+00   0.000000e+00
      512000   5.119990e-06   1.653169e+00   1.201131e+01   3.009159e+01   3.033533e+05   9.563390e+04   1.805327e+06  -1.003077e+01  -8.713546e-01   1.731652e+00   1.833133e+06   8.448668e-40   0.000000e+00   0.000000e+00
      520000   5.199990e-06   1.677438e+00   1.201896e+01   3.023602e+01   3.033533e+05   9.563390e+04   1.805327e+06   1.854520e+00  -5.882589e+00  -1.656753e-22   1.833133e+06   3.079854e-40   0.000000e+00   0.000000e+00
      528000   5.279990e-06   1.701706e+00   1.202661e+01   3.038044e+01   3.033533e+05   9.563390e+04   1.805327e+06   1.927743e+00  -6.114854e+00  -4.890150e-22   1.833133e+06   3.325287e-40   0.000000e+00   0.000000e+00
      536000   5.359990e-06   1.725974e+00   1.203426e+01   3.052487e+01   3.033533e+05   9.563390e+04   1.805327e+06   1.302140e+00  -4.130424e+00   1.211115e-21   1.833133e+06   1.516720e-40   0.000000e+00   0.000000e+00
      544000   5.439990e-06   1.750242e+00   1.204191e+01   3.066930e+01   3.033533e+05   9.563390e+04   1.805327e+06  -8.277477e-01   2.625638e+00   1.686812e-21   1.833133e+06   6.127009e-41   0.000000e+00   0.000000e+00
      552000   5.519990e-06   1.774511e+00   1.204956e+01   3.081372e+01   3.033533e+05   9.563390e+04   1.805327e+06   6.469357e-01  -2.052097e+00   9.962018e-23   1.833133e+06   3.753841e-41   0.000000e+00   0.000000e+00
      560000   5.599990e-06   1.798779e+00   1.205722e+01   3.095815e+01   3.033533e+05   9.563390e+04   1.805327e+06   5.251892e+00  -1.665914e+01   3.960395e-21   1.833133e+06   2.469151e-39   0.000000e+00   0.000000e+00
      568000   5.679990e-06   1.823047e+00   1.206487e+01   3.110258e+01   3.033533e+05   9.563390e+04   1.805327e+06   2.108526e+00  -6.688302e+00  -3.273816e-23   1.833133e+06   3.981116e-40   0.000000e+00   0.000000e+00
      576000   5.759990e-06   1.847315e+00   1.207252e+01   3.124700e+01   3.033533e+05   9.563390e+04   1.805327e+06   3.882645e+00  -1.231585e+01   3.517334e-21   1.833133e+06   1.349668e-39   0.000000e+00   0.000000e+00
      584000   5.839990e-06   1.871584e+00   1.208017e+01   3.139143e+01   3.033533e+05   9.563390e+04   1.805327e+06   2.488346e+00  -7.893102e+00   3.035938e-21   1.833133e+06   5.544532e-40   0.000000e+00   0.000000e+00
      592000   5.919990e-06   1.895852e+00   1.208782e+01   3.153585e+01   3.033533e+05   9.563390e+04   1.805327e+06   3.317995e+00  -1.052477e+01  -2.783519e-21   1.833133e+06   9.858024e-40   0.000000e+00   0.000000e+00
      600000   5.999990e-06   1.920120e+00   1.209547e+01   3.168028e+01   3.033533e+05   9.563390e+04   1.805327e+06  -6.964424e-01   2.209134e+00   3.808274e-22   1.833133e+06   4.338908e-41   0.000000e+00   0.000000e+00
      608000   6.079990e-06   1.944389e+00   1.210312e+01   3.182471e+01   3.033533e+05   9.563390e+04   1.805327e+06   8.776169e-01  -2.783824e+00  -9.755174e-23   1.833133e+06   6.895015e-41   0.000000e+00   0.000000e+00
      616000   6.159990e-06   1.968657e+00   1.211077e+01   3.196913e+01   3.033533e+05   9.563390e+04   1.805327e+06   2.928244e+00  -9.288470e+00  -2.414554e-21   1.833133e+06   7.677765e-40   0.000000e+00   0.000000e+00
      624000   6.239990e-06   1.992925e+00   1.211842e+01   3.211356e+01   3.033533e+05   9.563390e+04   1.805327e+06   4.019579e+00  -1.275021e+01  -6.765720e-22   1.833133e+06   1.446713e-39   0.000000e+00   0.000000e+00
      632000   6.319990e-06   2.017193e+00   1.212607e+01   3.225798e+01   3.033533e+05   9.563390e+04   1.805327e+06   2.799164e+00  -8.879025e+00   2.781179e-21   1.833133e+06   7.012866e-40   0.000000e+00   0.000000e+00
      640000   6.399990e-06   2.041462e+00   1.213372e+01   3.240241e+01   3.033533e+05   9.563390e+04   1.805327e+06   1.322711e+00  -4.195676e+00  -8.498770e-22   1.833133e+06   1.565174e-40   0.000000e+00   0.000000e+00
      648000   6.479990e-06   2.065730e+00   1.214137e+01   3.254684e+01   3.033533e+05   9.563390e+04   1.805327e+06  -5.047478e-01   1.601074e+00   5.798285e-23   1.833133e+06   2.275291e-41   0.000000e+00   0.000000e+00
      656000   6.559990e-06   2.089998e+00   1.214902e+01   3.269126e+01   3.033533e+05   9.563390e+04   1.805327e+06   4.610751e+00  -1.462543e+01   3.329620e-21   1.833133e+06   1.903070e-39   0.000000e+00   0.000000e+00
      664000   6.639990e-06   2.114266e+00   1.215667e+01   3.283569e+01   3.033533e+05   9.563390e+04   1.805327e+06   2.638242e+00  -8.368574e+00  -2.140971e-21   1.833133e+06   6.231907e-40   0.000000e+00   0.000000e+00
      672000   6.719990e-06   2.138535e+00   1.216433e+01   3.298012e+01   3.033533e+05   9.563390e+04   1.805327e+06   2.444795e-01  -7.754955e-01  -2.025210e-22   1.833133e+06   5.356963e-42   0.000000e+00   0.000000e+00
      680000   6.799990e-06   2.162803e+00   1.217198e+01   3.312454e+01   3.033533e+05   9.563390e+04   1.805327e+06  -1.905556e-01   6.044476e-01   7.595925e-23   1.833133e+06   3.247436e-42   0.000000e+00   0.000000e+00
      688000   6.879990e-06   2.187071e+00   1.217963e+01   3.326897e+01   3.033533e+05   9.563390e+04   1.805327e+06   3.978446e+00  -1.261974e+01   2.265851e-21   1.833133e+06   1.417194e-39   0.000000e+00   0.000000e+00
      696000   6.959990e-06   2.211339e+00   1.218728e+01   3.341339e+01   3.033533e+05   9.563390e+04   1.805327e+06   3.703396e+00  -1.174727e+01   1.757795e-21   1.833133e+06   1.228417e-39   0.000000e+00   0.000000e+00
      704000   7.039990e-06   2.235608e+00   1.219493e+01   3.355782e+01   3.033533e+05   9.563390e+04   1.805327e+06   7.501815e+00  -2.379596e+01   8.607842e-21   1.833133e+06   5.038212e-39   0.000000e+00   0.000000e+00
      712000   7.119990e-06   2.259876e+00   1.220258e+01   3.370225e+01   3.033533e+05   9.563390e+04   1.805327e+06   2.000824e+00  -6.346668e+00  -2.392002e-21   1.833133e+06   3.585872e-40   0.000000e+00   0.000000e+00
      720000   7.199990e-06   2.284144e+00   1.221023e+01   3.384667e+01   3.033533e+05   9.563390e+04   1.805327e+06   1.130794e+00  -3.586908e+00  -1.858253e-22   1.833133e+06   1.144942e-40   0.000000e+00   0.000000e+00
      728000   7.279990e-06   2.308413e+00   1.221788e+01   3.399110e+01   3.033533e+05   9.563390e+04   1.805327e+06   7.775036e-01  -2.466263e+00  -7.252552e-22   1.833133e+06   5.410764e-41   0.000000e+00   0.000000e+00
      736000   7.359990e-06   2.332681e+00   1.222553e+01   3.413552e+01   3.033533e+05   9.563390e+04   1.805327e+06   1.108556e+00  -3.516370e+00   1.044122e-21   1.833133e+06   1.100069e-40   0.000000e+00   0.000000e+00
      744000   7.439990e-06   2.356949e+00   1.223318e+01   3.427995e+01   3.033533e+05   9.563390e+04   1.805327e+06   1.987480e+00  -6.304339e+00  -1.711833e-21   1.833133e+06   3.536952e-40   0.000000e+00   0.000000e+00
      752000   7.519990e-06   2.381217e+00   1.224083e+01   3.442438e+01   3.033533e+05   9.563390e+04   1.805327e+06   2.871469e+00  -9.108376e+00  -1.109173e-21   1.833133e+06   7.382982e-40   0.000000e+00   0.000000e+00
      760000   7.599990e-06   2.405486e+00   1.224848e+01   3.456880e+01   3.033533e+05   9.563390e+04   1.805327e+06   3.826136e+00  -1.213661e+01  -7.094827e-21   1.833133e+06   1.310757e-39   0.000000e+00   0.000000e+00
      768000   7.679990e-06   2.429754e+00   1.225613e+01   3.471323e+01   3.033533e+05   9.563390e+04   1.805327e+06   4.167997e+00  -1.322100e+01   5.396216e-21   1.833133e+06   1.555457e-39   0.000000e+00   0.000000e+00
      776000   7.759990e-06   2.454022e+00   1.226378e+01   3.485766e+01   3.033533e+05   9.563390e+04   1.805327e+06   4.101099e+00  -1.300880e+01  -2.589066e-21   1.833133e+06   1.506027e-39   0.000000e+00   0.000000e+00
      784000   7.839990e-06   2.478290e+00   1.227143e+01   3.500208e+01   3.033533e+05   9.563390e+04   1.805327e+06   4.226237e+00  -1.340574e+01   8.393342e-21   1.833133e+06   1.599335e-39   0.000000e+00   0.000000e+00
      792000   7.919990e-06   2.502559e+00   1.227909e+01   3.514651e+01   3.033533e+05   9.563390e+04   1.805327e+06  -3.345942e-01   1.061342e+00  -7.862271e-23   1.833133e+06   9.994353e-42   0.000000e+00   0.000000e+00
      800000   7.999990e-06   2.526827e+00   1.228674e+01   3.529093e+01   3.033533e+05   9.563390e+04   1.805327e+06   3.694774e+00  -1.171992e+01  -3.126821e-21   1.833133e+06   1.222128e-39   0.000000e+00   0.000000e+00
      808000   8.079990e-06   2.551095e+00   1.229439e+01   3.543536e+01   3.033533e+05   9.563390e+04   1.805327e+06   2.537161e+00  -8.047942e+00  -3.641853e-21   1.833133e+06   5.762343e-40   0.000000e+00   0.000000e+00
      816000   8.159990e-06   2.575363e+00   1.230204e+01   3.557979e+01   3.033533e+05   9.563390e+04   1.805327e+06   3.784692e+00  -1.200514e+01   1.902807e-21   1.833133e+06   1.282242e-39   0.000000e+00   0.000000e+00
      824000   8.239990e-06   2.599632e+00   1.230969e+01   3.572421e+01   3.033533e+05   9.563390e+04   1.805327e+06   3.518477e+00  -1.116070e+01   1.125285e-21   1.833133e+06   1.108178e-39   0.000000e+00   0.000000e+00
      832000   8.319990e-06   2.623900e+00   1.231734e+01   3.586864e+01   3.033533e+05   9.563390e+04   1.805327e+06   2.608763e+00  -8.275068e+00   8.327576e-22   1.833133e+06   6.093430e-40   0.000000e+00   0.000000e+00
      840000   8.399990e-06   2.648168e+00   1.232499e+01   3.601307e+01   3.033533e+05   9.563390e+04   1.805327e+06   2.267649e+00  -7.193044e+00   2.429837e-21   1.833133e+06   4.604043e-40   0.000000e+00   0.000000e+00
      848000   8.479990e-06   2.672437e+00   1.233264e+01   3.615749e+01   3.033533e+05   9.563390e+04   1.805327e+06   4.746243e+00  -1.505521e+01  -5.649955e-21   1.833133e+06   2.017089e-39   0.000000e+00   0.000000e+00
      856000   8.559990e-06   2.696705e+00   1.234029e+01   3.630192e+01   3.033533e+05   9.563390e+04   1.805327e+06   5.775636e+00  -1.832047e+01  -7.620070e-21   1.833133e+06   2.986925e-39   0.000000e+00   0.000000e+00
      864000   8.639990e-06   2.720973e+00   1.234794e+01   3.644634e+01   3.033533e+05   9.563390e+04   1.805327e+06   4.268537e+00  -1.353992e+01  -1.424434e-21   1.833133e+06   1.630969e-39   0.000000e+00   0.000000e+00
      872000   8.719990e-06   2.745241e+00   1.235559e+01   3.659077e+01   3.033533e+05   9.563390e+04   1.805327e+06  -1.164864e+00   3.694979e+00  -3.235741e-22   1.833133e+06   1.213435e-40   0.000000e+00   0.000000e+00
      880000   8.799990e-06   2.769510e+00   1.236324e+01   3.673520e+01   3.033533e+05   9.563390e+04   1.805327e+06  -2.415202e-01   7.661085e-01   1.999173e-22   1.833133e+06   5.190853e-42   0.000000e+00   0.000000e+00
      888000   8.879990e-06   2.793778e+00   1.237089e+01   3.687962e+01   3.033533e+05   9.563390e+04   1.805327e+06   6.524317e+00  -2.069531e+01  -2.732978e-21   1.833133e+06   3.810699e-39   0.000000e+00   0.000000e+00
      896000   8.959990e-06   2.818046e+00   1.237854e+01   3.702405e+01   3.033533e+05   9.563390e+04   1.805327e+06   1.922352e+00  -6.097751e+00   2.086524e-21   1.833133e+06   3.309407e-40   0.000000e+00   0.000000e+00
      904000   9.039990e-06   2.842314e+00   1.238620e+01   3.716847e+01   3.033533e+05   9.563390e+04   1.805327e+06   3.174001e-01  -1.006802e+00  -1.260358e-22   1.833133e+06   9.016652e-42   0.000000e+00   0.000000e+00
      912000   9.119990e-06   2.866583e+00   1.239385e+01   3.731290e+01   3.033533e+05   9.563390e+04   1.805327e+06  -4.332778e-01   1.374369e+00   4.929481e-22   1.833133e+06   1.681502e-41   0.000000e+00   0.000000e+00
      920000   9.199990e-06   2.890851e+00   1.240150e+01   3.745733e+01   3.033533e+05   9.563390e+04   1.805327e+06  -1.076866e-01   3.415849e-01   3.431671e-23   1.833133e+06   1.030813e-42   0.000000e+00   0.000000e+00
      928000   9.279990e-06   2.915119e+00   1.240915e+01   3.760175e+01   3.033533e+05   9.563390e+04   1.805327e+06   1.531312e+00  -4.857362e+00  -1.960602e-21   1.833133e+06   2.098557e-40   0.000000e+00   0.000000e+00
      936000   9.359990e-06   2.939387e+00   1.241680e+01   3.774618e+01   3.033533e+05   9.563390e+04   1.805327e+06   2.262551e+00  -7.176874e+00  -1.051723e-21   1.833133e+06   4.584986e-40   0.000000e+00   0.000000e+00
      944000   9.439990e-06   2.963656e+00   1.242445e+01   3.789061e+01   3.033533e+05   9.563390e+04   1.805327e+06   4.433098e+00  -1.406191e+01   9.489895e-21   1.833133e+06   1.759376e-39   0.000000e+00   0.000000e+00
      952000   9.519990e-06   2.987924e+00   1.243210e+01   3.803503e+01   3.033533e+05   9.563390e+04   1.805327e+06   4.088927e+00  -1.297019e+01  -1.695290e-21   1.833133e+06   1.496774e-39   0.000000e+00   0.000000e+00
      960000   9.599990e-06   3.012192e+00   1.243975e+01   3.817946e+01   3.033533e+05   9.563390e+04   1.805327e+06   3.149361e+00  -9.989859e+00  -3.496136e-21   1.833133e+06   8.880867e-40   0.000000e+00   0.000000e+00
      968000   9.679990e-06   3.036461e+00   1.244740e+01   3.832388e+01   3.033533e+05   9.563390e+04   1.805327e+06   3.331928e+00  -1.056896e+01  -3.149783e-22   1.833133e+06   9.940363e-40   0.000000e+00   0.000000e+00
      976000   9.759990e-06   3.060729e+00   1.245505e+01   3.846831e+01   3.033533e+05   9.563390e+04   1.805327e+06   3.322414e+00  -1.053879e+01   2.809967e-21   1.833133e+06   9.883907e-40   0.000000e+00   0.000000e+00
      984000   9.839990e-06   3.084997e+00   1.246270e+01   3.861274e+01   3.033533e+05   9.563390e+04   1.805327e+06   3.596200e+00  -1.140724e+01  -8.821530e-22   1.833133e+06   1.158001e-39   0.000000e+00   0.000000e+00
      992000   9.919990e-06   3.109265e+00   1.247035e+01   3.875716e+01   3.033533e+05   9.563390e+04   1.805327e+06   2.499259e+00  -7.927718e+00   1.325240e-21   1.833133e+06   5.592885e-40   0.000000e+00   0.000000e+00
     1000000   9.999990e-06   3.133534e+00   1.247800e+01   3.890159e+01   3.033533e+05   9.563390e+04   1.805327e+06   2.340257e+00  -7.423359e+00   2.031992e-21   1.833133e+06   4.903878e-40   0.000000e+00   0.000000e+00
     1008000   1.007999e-05   3.157802e+00   1.248565e+01   3.904601e+01   3.033533e+05   9.563390e+04   1.805327e+06   1.802140e+00  -5.716436e+00  -5.238900e-21   1.833133e+06   2.908229e-40   0.000000e+00   0.000000e+00
     1016000   1.015999e-05   3.182070e+00   1.249331e+01   3.919044e+01   3.033533e+05   9.563390e+04   1.805327e+06   2.420071e+00  -7.676532e+00   1.487290e-21   1.833133e+06   5.244079e-40   0.000000e+00   0.000000e+00
     1024000   1.023999e-05   3.206338e+00   1.250096e+01   3.933487e+01   3.033533e+05   9.563390e+04   1.805327e+06   2.353805e+00  -7.466334e+00   5.172799e-22   1.833133e+06   4.959786e-40   0.000000e+00   0.000000e+00
     1032000   1.031999e-05   3.230607e+00   1.250861e+01   3.947929e+01   3.033533e+05   9.563390e+04   1.805327e+06   2.609065e+00  -8.276024e+00   1.265100e-22   1.833133e+06   6.095943e-40   0.000000e+00   0.000000e+00
     1040000   1.039999e-05   3.254875e+00   1.251626e+01   3.962372e+01   3.033533e+05   9.563390e+04   1.805327e+06   3.660197e+00  -1.161024e+01  -1.307300e-21   1.833133e+06   1.199683e-39   0.000000e+00   0.000000e+00
     1048000   1.047999e-05   3.279143e+00   1.252391e+01   3.976815e+01   3.033533e+05   9.563390e+04   1.805327e+06   4.576535e+00  -1.451689e+01   2.434678e-21   1.833133e+06   1.875188e-39   0.000000e+00   0.000000e+00
     1056000   1.055999e-05   3.303411e+00   1.253156e+01   3.991257e+01   3.033533e+05   9.563390e+04   1.805327e+06   3.202279e+00  -1.015772e+01  -1.177495e-21   1.833133e+06   9.181549e-40   0.000000e+00   0.000000e+00
     1064000   1.063999e-05   3.327680e+00   1.253921e+01   4.005700e+01   3.033533e+05   9.563390e+04   1.805327e+06   2.622339e+00  -8.318130e+00  -1.666254e-21   1.833133e+06   6.158522e-40   0.000000e+00   0.000000e+00
     1072000   1.071999e-05   3.351948e+00   1.254686e+01   4.020142e+01   3.033533e+05   9.563390e+04   1.805327e+06   2.456510e+00  -7.792117e+00  -2.206230e-21   1.833133e+06   5.404320e-40   0.000000e+00   0.000000e+00
     1080000   1.079999e-05   3.376216e+00   1.255451e+01   4.034585e+01   3.033533e+05   9.563390e+04   1.805327e+06   2.206598e+00  -6.999389e+00  -9.036359e-22   1.833133e+06   4.359455e-40   0.000000e+00   0.000000e+00
     1088000   1.087999e-05   3.400485e+00   1.256216e+01   4.049028e+01   3.033533e+05   9.563390e+04   1.805327e+06   3.288076e+00  -1.042987e+01   8.454695e-22   1.833133e+06   9.681075e-40   0.000000e+00   0.000000e+00
     1096000   1.095999e-05   3.424753e+00   1.256981e+01   4.063470e+01   3.033533e+05   9.563390e+04   1.805327e+06   3.156118e+00  -1.001129e+01  -3.317012e-22   1.833133e+06   8.919636e-40   0.000000e+00   0.000000e+00
     1104000   1.103999e-05   3.449021e+00   1.257746e+01   4.077913e+01   3.033533e+05   9.563390e+04   1.805327e+06   2.788406e+00  -8.844901e+00  -1.318588e-21   1.833133e+06   6.962039e-40   0.000000e+00   0.000000e+00
     1112000   1.111999e-05   3.473289e+00   1.258511e+01   4.092356e+01   3.033533e+05   9.563390e+04   1.805327e+06   2.408498e+00  -7.639821e+00  -6.095103e-21   1.833133e+06   5.194181e-40   0.000000e+00   0.000000e+00
     1120000   1.119999e-05   3.497558e+00   1.259276e+01   4.106798e+01   3.033533e+05   9.563390e+04   1.805327e+06   2.398274e+00  -7.607391e+00  -2.979884e-21   1.833133e+06   5.150433e-40   0.000000e+00   0.000000e+00
     1128000   1.127999e-05   3.521826e+00   1.260042e+01   4.121241e+01   3.033533e+05   9.563390e+04   1.805327e+06   2.593668e+00  -8.227184e+00   6.969018e-21   1.833133e+06   6.023379e-40   0.000000e+00   0.000000e+00
     1136000   1.135999e-05   3.546094e+00   1.260807e+01   4.135683e+01   3.033533e+05   9.563390e+04   1.805327e+06   2.411955e+00  -7.650786e+00  -2.728759e-21   1.833133e+06   5.209835e-40   0.000000e+00   0.000000e+00
     1144000   1.143999e-05   3.570362e+00   1.261572e+01   4.150126e+01   3.033533e+05   9.563390e+04   1.805327e+06   2.262234e+00  -7.175868e+00  -2.122222e-21   1.833133e+06   4.583158e-40   0.000000e+00   0.000000e+00
     1152000   1.151999e-05   3.594631e+00   1.262337e+01   4.164569e+01   3.033533e+05   9.563390e+04   1.805327e+06   1.007230e+00  -3.194960e+00  -1.347886e-21   1.833133e+06   9.083425e-41   0.000000e+00   0.000000e+00
     1160000   1.159999e-05   3.618899e+00   1.263102e+01   4.179011e+01   3.033533e+05   9.563390e+04   1.805327e+06   1.415590e+00  -4.490289e+00   3.868685e-22   1.833133e+06   1.794753e-40   0.000000e+00   0.000000e+00
     1168000   1.167999e-05   3.643167e+00   1.263867e+01   4.193454e+01   3.033533e+05   9.563390e+04   1.805327e+06   2.371186e+00  -7.521467e+00  -4.262480e-21   1.833133e+06   5.035219e-40   0.000000e+00   0.000000e+00
     1176000   1.175999e-05   3.667435e+00   1.264632e+01   4.207896e+01   3.033533e+05   9.563390e+04   1.805327e+06   4.922570e+00  -1.561452e+01  -2.877240e-21   1.833133e+06   2.169457e-39   0.000000e+00   0.000000e+00
     1184000   1.183999e-05   3.691704e+00   1.265397e+01   4.222339e+01   3.033533e+05   9.563390e+04   1.805327e+06   5.140698e+00  -1.630643e+01  -8.968869e-22   1.833133e+06   2.365995e-39   0.000000e+00   0.000000e+00
     1192000   1.191999e-05   3.715972e+00   1.266162e+01   4.236782e+01   3.033533e+05   9.563390e+04   1.805327e+06   2.979089e+00  -9.449752e+00   4.153468e-21   1.833133e+06   7.946290e-40   0.000000e+00   0.000000e+00
     1200000   1.199999e-05   3.740240e+00   1.266927e+01   4.251224e+01   3.033533e+05   9.563390e+04   1.805327e+06   2.716974e+00  -8.618315e+00   3.240680e-21   1.833133e+06   6.609458e-40   0.000000e+00   0.000000e+00
     1208000   1.207999e-05   3.764509e+00   1.267692e+01   4.265667e+01   3.033533e+05   9.563390e+04   1.805327e+06   1.944958e+00  -6.169460e+00   2.571609e-21   1.833133e+06   3.387611e-40   0.000000e+00   0.000000e+00
     1216000   1.215999e-05   3.788777e+00   1.268457e+01   4.280110e+01   3.033533e+05   9.563390e+04   1.805327e+06   2.042837e+00  -6.479933e+00   7.565410e-22   1.833133e+06   3.737127e-40   0.000000e+00   0.000000e+00
     1224000   1.223999e-05   3.813045e+00   1.269222e+01   4.294552e+01   3.033533e+05   9.563390e+04   1.805327e+06   2.843931e+00  -9.021027e+00   8.637192e-22   1.833133e+06   7.242152e-40   0.000000e+00   0.000000e+00
     1232000   1.231999e-05   3.837313e+00   1.269987e+01   4.308995e+01   3.033533e+05   9.563390e+04   1.805327e+06   1.965338e+00  -6.234104e+00   6.694212e-21   1.833133e+06   3.458700e-40   0.000000e+00   0.000000e+00
     1240000   1.239999e-05   3.861582e+00   1.270753e+01   4.323437e+01   3.033533e+05   9.563390e+04   1.805327e+06   3.916497e+00  -1.242323e+01   5.584636e-21   1.833133e+06   1.373346e-39   0.000000e+00   0.000000e+00
     1248000   1.247999e-05   3.885850e+00   1.271518e+01   4.337880e+01   3.033533e+05   9.563390e+04   1.805327e+06   3.776065e+00  -1.197778e+01  -5.175451e-22   1.833133e+06   1.276778e-39   0.000000e+00   0.000000e+00
     1256000   1.255999e-05   3.910118e+00   1.272283e+01   4.352323e+01   3.033533e+05   9.563390e+04   1.805327e+06   4.176299e+00  -1.324733e+01  -1.427015e-21   1.833133e+06   1.561783e-39   0.000000e+00   0.000000e+00
     1264000   1.263999e-05   3.934386e+00   1.273048e+01   4.366765e+01   3.033533e+05   9.563390e+04   1.805327e+06   3.634403e+00  -1.152843e+01   1.686851e-21   1.833133e+06   1.182781e-39   0.000000e+00   0.000000e+00
     1272000   1.271999e-05   3.958655e+00   1.273813e+01   4.381208e+01   3.033533e+05   9.563390e+04   1.805327e+06   3.086157e+00  -9.789374e+00   1.487345e-21   1.833133e+06   8.528575e-40   0.000000e+00   0.000000e+00
     1280000   1.279999e-05   3.982923e+00   1.274578e+01   4.395650e+01   3.033533e+05   9.563390e+04   1.805327e+06   2.724225e+00  -8.641316e+00  -1.315779e-21   1.833133e+06   6.645547e-40   0.000000e+00   0.000000e+00
     1288000   1.287999e-05   4.007191e+00   1.275343e+01   4.410093e+01   3.033533e+05   9.563390e+04   1.805327e+06   2.601817e+00  -8.253033e+00  -2.817111e-21   1.833133e+06   6.061602e-40   0.000000e+00   0.000000e+00
     1296000   1.295999e-05   4.031459e+00   1.276108e+01   4.424536e+01   3.033533e+05   9.563390e+04   1.805327e+06   3.139823e+00  -9.959605e+00   2.041794e-21   1.833133e+06   8.827101e-40   0.000000e+00   0.000000e+00
     1304000   1.303999e-05   4.055728e+00   1.276873e+01   4.438978e+01   3.033533e+05   9.563390e+04   1.805327e+06   2.606275e+00  -8.267174e+00   3.187743e-21   1.833133e+06   6.082391e-40   0.000000e+00   0.000000e+00
     1312000   1.311999e-05   4.079996e+00   1.277638e+01   4.453421e+01   3.033533e+05   9.563390e+04   1.805327e+06   2.860700e+00  -9.074219e+00   9.660781e-22   1.833133e+06   7.327872e-40   0.000000e+00   0.000000e+00
     1320000   1.319999e-05   4.104264e+00   1.278403e+01   4.467864e+01   3.033533e+05   9.563390e+04   1.805327e+06   3.764236e+00  -1.194026e+01  -1.718483e-21   1.833133e+06   1.268645e-39   0.000000e+00   0.000000e+00
     1328000   1.327999e-05   4.128532e+00   1.279168e+01   4.482306e+01   3.033533e+05   9.563390e+04   1.805327e+06   3.691016e+00  -1.170800e+01   7.884305e-21   1.833133e+06   1.219769e-39   0.000000e+00   0.000000e+00
     1336000   1.335999e-05   4.152801e+00   1.279933e+01   4.496749e+01   3.033533e+05   9.563390e+04   1.805327e+06   2.140709e+00  -6.790387e+00   1.926253e-21   1.833133e+06   4.103897e-40   0.000000e+00   0.000000e+00
     1344000   1.343999e-05   4.177069e+00   1.280698e+01   4.511191e+01   3.033533e+05   9.563390e+04   1.805327e+06   4.217234e+00  -1.337718e+01   6.780225e-21   1.833133e+06   1.592397e-39   0.000000e+00   0.000000e+00
     1352000   1.351999e-05   4.201337e+00   1.281464e+01   4.525634e+01   3.033533e+05   9.563390e+04   1.805327e+06   4.176410e+00  -1.324768e+01   2.550376e-21   1.833133e+06   1.561607e-39   0.000000e+00   0.000000e+00
     1360000   1.359999e-05   4.225606e+00   1.282229e+01   4.540077e+01   3.033533e+05   9.563390e+04   1.805327e+06   3.522299e+00  -1.117283e+01   3.964181e-21   1.833133e+06   1.110727e-39   0.000000e+00   0.000000e+00
     1368000   1.367999e-05   4.249874e+00   1.282994e+01   4.554519e+01   3.033533e+05   9.563390e+04   1.805327e+06   3.359180e+00  -1.065541e+01   9.247463e-22   1.833133e+06   1.010565e-39   0.000000e+00   0.000000e+00
     1376000   1.375999e-05   4.274142e+00   1.283759e+01   4.568962e+01   3.033533e+05   9.563390e+04   1.805327e+06   5.098469e+00  -1.617248e+01  -2.405518e-21   1.833133e+06   2.327318e-39   0.000000e+00   0.000000e+00
     1384000   1.383999e-05   4.298410e+00   1.284524e+01   4.583404e+01   3.033533e+05   9.563390e+04   1.805327e+06   4.444359e+00  -1.409763e+01   3.561737e-21   1.833133e+06   1.768428e-39   0.000000e+00   0.000000e+00
     1392000   1.391999e-05   4.322679e+00   1.285289e+01   4.597847e+01   3.033533e+05   9.563390e+04   1.805327e+06   3.067650e+00  -9.730667e+00   1.154344e-22   1.833133e+06   8.426799e-40   0.000000e+00   0.000000e+00
     1400000   1.399999e-05   4.346947e+00   1.286054e+01   4.612290e+01   3.033533e+05   9.563390e+04   1.805327e+06   3.736348e+00  -1.185180e+01   2.176234e-21   1.833133e+06   1.250089e-39   0.000000e+00   0.000000e+00
     1408000   1.407999e-05   4.371215e+00   1.286819e+01   4.626732e+01   3.033533e+05   9.563390e+04   1.805327e+06   5.590535e+00  -1.773333e+01  -6.664493e-21   1.833133e+06   2.798330e-39   0.000000e+00   0.000000e+00
     1416000   1.415999e-05   4.395483e+00   1.287584e+01   4.641175e+01   3.033533e+05   9.563390e+04   1.805327e+06   5.764531e+00  -1.828525e+01  -4.875127e-21   1.833133e+06   2.975233e-39   0.000000e+00   0.000000e+00
     1424000   1.423999e-05   4.419752e+00   1.288349e+01   4.655618e+01   3.033533e+05   9.563390e+04   1.805327e+06   4.672796e+00  -1.482223e+01  -7.873319e-22   1.833133e+06   1.955159e-39   0.000000e+00   0.000000e+00
     1432000   1.431999e-05   4.444020e+00   1.289114e+01   4.670060e+01   3.033533e+05   9.563390e+04   1.805327e+06   4.393235e+00  -1.393546e+01  -1.051134e-21   1.833133e+06   1.728215e-39   0.000000e+00   0.000000e+00
     1440000   1.439999e-05   4.468288e+00   1.289879e+01   4.684503e+01   3.033533e+05   9.563390e+04   1.805327e+06   1.558622e+00  -4.943992e+00  -1.024264e-21   1.833133e+06   2.175486e-40   0.000000e+00   0.000000e+00
     1448000   1.447999e-05   4.492556e+00   1.290644e+01   4.698945e+01   3.033533e+05   9.563390e+04   1.805327e+06  -6.396630e-01   2.029028e+00   1.119333e-21   1.833133e+06   3.658518e-41   0.000000e+00   0.000000e+00
     1456000   1.455999e-05   4.516825e+00   1.291409e+01   4.713388e+01   3.033533e+05   9.563390e+04   1.805327e+06   2.341757e+00  -7.428117e+00  -4.788387e-21   1.833133e+06   4.907694e-40   0.000000e+00   0.000000e+00
     1464000   1.463999e-05   4.541093e+00   1.292175e+01   4.727831e+01   3.033533e+05   9.563390e+04   1.805327e+06   1.578406e+00  -5.006747e+00   5.306610e-22   1.833133e+06   2.232298e-40   0.000000e+00   0.000000e+00
     1472000   1.471999e-05   4.565361e+00   1.292940e+01   4.742273e+01   3.033533e+05   9.563390e+04   1.805327e+06   3.380700e+00  -1.072367e+01   3.497834e-21   1.833133e+06   1.023700e-39   0.000000e+00   0.000000e+00
     1480000   1.479999e-05   4.589630e+00   1.293705e+01   4.756716e+01   3.033533e+05   9.563390e+04   1.805327e+06   5.142305e+00  -1.631153e+01  -6.110335e-21   1.833133e+06   2.367198e-39   0.000000e+00   0.000000e+00
     1488000   1.487999e-05   4.613898e+00   1.294470e+01   4.771159e+01   3.033533e+05   9.563390e+04   1.805327e+06   4.965220e+00  -1.574981e+01  -6.831559e-21   1.833133e+06   2.207109e-39   0.000000e+00   0.000000e+00
     1496000   1.495999e-05   4.638166e+00   1.295235e+01   4.785601e+01   3.033533e+05   9.563390e+04   1.805327e+06   3.146778e+00  -9.981666e+00  -3.146643e-21   1.833133e+06   8.868436e-40   0.000000e+00   0.000000e+00
     1504000   1.503999e-05   4.662434e+00   1.296000e+01   4.800044e+01   3.033533e+05   9.563390e+04   1.805327e+06   4.036133e+00  -1.280272e+01  -3.915287e-21   1.833133e+06   1.458900e-39   0.000000e+00   0.000000e+00
     1512000   1.511999e-05   4.686703e+00   1.296765e+01   4.814486e+01   3.033533e+05   9.563390e+04   1.805327e+06   8.434807e+00  -2.675543e+01  -1.092247e-20   1.833133e+06   6.369842e-39   0.000000e+00   0.000000e+00
     1520000   1.519999e-05   4.710971e+00   1.297530e+01   4.828929e+01   3.033533e+05   9.563390e+04   1.805327e+06   5.288690e+00  -1.677587e+01  -5.263744e-21   1.833133e+06   2.504270e-39   0.000000e+00   0.000000e+00
     1528000   1.527999e-05   4.735239e+00   1.298295e+01   4.843372e+01   3.033533e+05   9.563390e+04   1.805327e+06   4.680064e+00  -1.484529e+01  -1.209994e-21   1.833133e+06   1.961027e-39   0.000000e+00   0.000000e+00
     1536000   1.535999e-05   4.759507e+00   1.299060e+01   4.857814e+01   3.033533e+05   9.563390e+04   1.805327e+06   9.614945e-01  -3.049887e+00  -1.691118e-21   1.833133e+06   8.282867e-41   0.000000e+00   0.000000e+00
     1544000   1.543999e-05   4.783776e+00   1.299825e+01   4.872257e+01   3.033533e+05   9.563390e+04   1.805327e+06   1.117289e+00  -3.544071e+00   3.596210e-22   1.833133e+06   1.118360e-40   0.000000e+00   0.000000e+00
     1552000   1.551999e-05   4.808044e+00   1.300590e+01   4.886699e+01   3.033533e+05   9.563390e+04   1.805327e+06   2.638186e+00  -8.368396e+00   2.065194e-21   1.833133e+06   6.234223e-40   0.000000e+00   0.000000e+00
     1560000   1.559999e-05   4.832312e+00   1.301355e+01   4.901142e+01   3.033533e+05   9.563390e+04   1.805327e+06   3.107004e+00  -9.855502e+00  -3.384010e-21   1.833133e+06   8.646354e-40   0.000000e+00   0.000000e+00
     1568000   1.567999e-05   4.856580e+00   1.302120e+01   4.915585e+01   3.033533e+05   9.563390e+04   1.805327e+06   4.594841e+00  -1.457496e+01  -3.812769e-21   1.833133e+06   1.890094e-39   0.000000e+00   0.000000e+00
     1576000   1.575999e-05   4.880849e+00   1.302886e+01   4.930027e+01   3.033533e+05   9.563390e+04   1.805327e+06   3.968554e+00  -1.258836e+01   5.149794e-21   1.833133e+06   1.409919e-39   0.000000e+00   0.000000e+00
     1584000   1.583999e-05   4.905117e+00   1.303651e+01   4.944470e+01   3.033533e+05   9.563390e+04   1.805327e+06   3.793929e+00  -1.203444e+01   1.640946e-21   1.833133e+06   1.288575e-39   0.000000e+00   0.000000e+00
     1592000   1.591999e-05   4.929385e+00   1.304416e+01   4.958913e+01   3.033539e+05   9.563301e+04   1.805327e+06   2.161555e+07  -3.632866e+07  -1.707691e+06   1.833133e+06   1.448295e-26   0.000000e+00   0.000000e+00
     1600000   1.599999e-05   4.953654e+00   1.305181e+01   4.973355e+01   3.033591e+05   9.562417e+04   1.805327e+06   2.173310e+08  -3.657400e+08  -1.714689e+07   1.833133e+06   1.467151e-24   0.000000e+00   0.000000e+00
     1608000   1.607999e-05   4.977923e+00   1.305946e+01   4.987798e+01   3.033755e+05   9.559666e+04   1.805325e+06   7.745504e+07  -1.305828e+08  -6.101215e+06   1.833133e+06   1.870593e-25   0.000000e+00   0.000000e+00
