     timestep     time              x             y              z              vx             vy             vz             ax             ay             az         v_magnitude      ELoss        Electronic      Nuclear
           0   0.000000e+00   1.000000e-01   1.402987e+01   1.964633e+01   4.720519e+05   3.568850e+05   1.018441e+06   0.000000e+00   0.000000e+00   0.000000e+00   1.177889e+06   0.000000e+00   0.000000e+00   0.000000e+00
        8000   7.999000e-08   1.377641e-01   1.405842e+01   1.972780e+01   4.720491e+05   3.568913e+05   1.018441e+06  -7.858832e+07   1.774320e+08  -2.575152e+07   1.177889e+06   1.280412e-25   0.000000e+00   0.000000e+00
       16000   1.599900e-07   1.755277e-01   1.408697e+01   1.980928e+01   4.720406e+05   3.569104e+05   1.018438e+06  -8.307952e+07   1.949872e+08  -2.982612e+07   1.177889e+06   1.531085e-25   0.000000e+00   0.000000e+00
       24000   2.399900e-07   2.132907e-01   1.411553e+01   1.989075e+01   4.720354e+05   3.569225e+05   1.018436e+06  -6.080966e+07   1.392476e+08  -2.061620e+07   1.177889e+06   7.858156e-26   0.000000e+00   0.000000e+00
       32000   3.199900e-07   2.510534e-01   1.414408e+01   1.997223e+01   4.720339e+05   3.569259e+05   1.018436e+06   1.421673e+07  -3.755029e+07   6.570761e+06   1.177889e+06   5.526296e-27   0.000000e+00   0.000000e+00
       40000   3.999900e-07   2.888162e-01   1.417263e+01   2.005370e+01   4.720348e+05   3.569238e+05   1.018436e+06   8.471586e+06  -1.120376e+07   6.183423e+00   1.177889e+06   6.591311e-28   0.000000e+00   0.000000e+00
       48000   4.799900e-07   3.265790e-01   1.420119e+01   2.013518e+01   4.720351e+05   3.569235e+05   1.018436e+06  -2.032361e+00   2.118120e+00   1.996578e-01   1.177889e+06   2.891188e-41   0.000000e+00   0.000000e+00
       56000   5.599900e-07   3.643418e-01   1.422974e+01   2.021665e+01   4.720351e+05   3.569235e+05   1.018436e+06  -2.586283e+00   3.420386e+00  -4.939753e-22   1.177889e+06   6.148031e-41   0.000000e+00   0.000000e+00
       64000   6.399900e-07   4.021046e-01   1.425829e+01   2.029813e+01   4.720351e+05   3.569235e+05   1.018436e+06   3.091688e-01  -4.088789e-01   3.680793e-22   1.177889e+06   8.744648e-43   0.000000e+00   0.000000e+00
       72000   7.199900e-07   4.398674e-01   1.428685e+01   2.037960e+01   4.720351e+05   3.569235e+05   1.018436e+06   6.394419e+00  -8.456686e+00   1.248675e-20   1.177889e+06   3.755848e-40   0.000000e+00   0.000000e+00
       80000   7.999900e-07   4.776302e-01   1.431540e+01   2.046108e+01   4.720351e+05   3.569235e+05   1.018436e+06   2.061202e+00  -2.725961e+00   5.786841e-21   1.177889e+06   3.902673e-41   0.000000e+00   0.000000e+00
       88000   8.799900e-07   5.153930e-01   1.434396e+01   2.054255e+01   4.720351e+05   3.569235e+05   1.018436e+06  -1.148414e+00   1.518789e+00  -5.197838e-22   1.177889e+06   1.210281e-41   0.000000e+00   0.000000e+00
       96000   9.599900e-07   5.531558e-01   1.437251e+01   2.062403e+01   4.720351e+05   3.569235e+05   1.018436e+06  -1.883147e+00   2.490481e+00  -5.769807e-22   1.177889e+06   3.257625e-41   0.000000e+00   0.000000e+00
      104000   1.039990e-06   5.909186e-01   1.440106e+01   2.070550e+01   4.720351e+05   3.569235e+05   1.018436e+06   2.312812e+00  -3.058719e+00   2.481334e-21   1.177889e+06   4.912353e-41   0.000000e+00   0.000000e+00
      112000   1.119990e-06   6.286814e-01   1.442962e+01   2.078698e+01   4.720351e+05   3.569235e+05   1.018436e+06   2.809303e+00  -3.715332e+00  -2.480584e-21   1.177889e+06   7.250529e-41   0.000000e+00   0.000000e+00
      120000   1.199990e-06   6.664442e-01   1.445817e+01   2.086845e+01   4.720351e+05   3.569235e+05   1.018436e+06  -6.028799e+00   7.973150e+00  -9.403774e-21   1.177889e+06   3.338216e-40   0.000000e+00   0.000000e+00
      128000   1.279990e-06   7.042070e-01   1.448673e+01   2.094993e+01   4.720351e+05   3.569235e+05   1.018436e+06  -1.295030e-01   1.712691e-01  -6.560910e-23   1.177889e+06   1.531095e-43   0.000000e+00   0.000000e+00
      136000   1.359990e-06   7.419699e-01   1.451528e+01   2.103140e+01   4.720351e+05   3.569235e+05   1.018436e+06   3.391085e+00  -4.484745e+00  -2.544079e-21   1.177889e+06   1.056146e-40   0.000000e+00   0.000000e+00
      144000   1.439990e-06   7.797327e-01   1.454383e+01   2.111288e+01   4.720351e+05   3.569235e+05   1.018436e+06   1.636863e+00  -2.164769e+00   2.785402e-21   1.177889e+06   2.461098e-41   0.000000e+00   0.000000e+00
      152000   1.519990e-06   8.174955e-01   1.457239e+01   2.119435e+01   4.720351e+05   3.569235e+05   1.018436e+06   1.447045e+01  -1.913733e+01  -8.460391e-21   1.177889e+06   1.923422e-39   0.000000e+00   0.000000e+00
      160000   1.599990e-06   8.552583e-01   1.460094e+01   2.127583e+01   4.720351e+05   3.569235e+05   1.018436e+06   9.182366e+00  -1.214377e+01   8.950650e-22   1.177889e+06   7.744584e-40   0.000000e+00   0.000000e+00
      168000   1.679990e-06   8.930211e-01   1.462950e+01   2.135730e+01   4.720351e+05   3.569235e+05   1.018436e+06   2.266306e+00  -2.997214e+00  -2.195439e-21   1.177889e+06   4.723311e-41   0.000000e+00   0.000000e+00
      176000   1.759990e-06   9.307839e-01   1.465805e+01   2.143877e+01   4.720351e+05   3.569235e+05   1.018436e+06   1.928156e+00  -2.550006e+00   2.164437e-21   1.177889e+06   3.415105e-41   0.000000e+00   0.000000e+00
      184000   1.839990e-06   9.685467e-01   1.468660e+01   2.152025e+01   4.720351e+05   3.569235e+05   1.018436e+06  -2.098877e+01   2.775787e+01   1.585856e-20   1.177889e+06   4.046418e-39   0.000000e+00   0.000000e+00
      192000   1.919990e-06   1.006309e+00   1.471516e+01   2.160172e+01   4.720351e+05   3.569235e+05   1.018436e+06   4.810435e-01  -6.361850e-01  -1.294930e-22   1.177889e+06   2.117081e-42   0.000000e+00   0.000000e+00
      200000   1.999990e-06   1.044072e+00   1.474371e+01   2.168320e+01   4.720351e+05   3.569235e+05   1.018436e+06   8.504764e+00  -1.124764e+01  -4.153872e-21   1.177889e+06   6.643605e-40   0.000000e+00   0.000000e+00
      208000   2.079990e-06   1.081835e+00   1.477226e+01   2.176467e+01   4.720351e+05   3.569235e+05   1.018436e+06   3.170828e-01  -4.193454e-01   3.103135e-22   1.177889e+06   9.291586e-43   0.000000e+00   0.000000e+00
      216000   2.159990e-06   1.119598e+00   1.480082e+01   2.184615e+01   4.720351e+05   3.569235e+05   1.018436e+06   3.465713e+00  -4.583442e+00  -7.086458e-22   1.177889e+06   1.104764e-40   0.000000e+00   0.000000e+00
      224000   2.239990e-06   1.157361e+00   1.482937e+01   2.192762e+01   4.720351e+05   3.569235e+05   1.018436e+06   3.133113e+00  -4.143574e+00   5.114132e-22   1.177889e+06   9.012089e-41   0.000000e+00   0.000000e+00
      232000   2.319990e-06   1.195124e+00   1.485793e+01   2.200910e+01   4.720351e+05   3.569235e+05   1.018436e+06  -6.085435e+00   8.048051e+00   2.881779e-21   1.177889e+06   3.399997e-40   0.000000e+00   0.000000e+00
      240000   2.399990e-06   1.232886e+00   1.488648e+01   2.209057e+01   4.720351e+05   3.569235e+05   1.018436e+06  -6.317839e-01   8.355408e-01  -5.013732e-23   1.177889e+06   3.664906e-42   0.000000e+00   0.000000e+00
      248000   2.479990e-06   1.270649e+00   1.491503e+01   2.217205e+01   4.720351e+05   3.569235e+05   1.018436e+06   1.950379e+00  -2.579397e+00  -1.802131e-21   1.177889e+06   3.490035e-41   0.000000e+00   0.000000e+00
      256000   2.559990e-06   1.308412e+00   1.494359e+01   2.225352e+01   4.720351e+05   3.569235e+05   1.018436e+06  -4.250873e+00   5.621824e+00  -7.761192e-22   1.177889e+06   1.659206e-40   0.000000e+00   0.000000e+00
      264000   2.639990e-06   1.346175e+00   1.497214e+01   2.233500e+01   4.720351e+05   3.569235e+05   1.018436e+06   2.209872e+00  -2.922579e+00   9.203588e-22   1.177889e+06   4.482351e-41   0.000000e+00   0.000000e+00
      272000   2.719990e-06   1.383938e+00   1.500070e+01   2.241647e+01   4.720351e+05   3.569235e+05   1.018436e+06   3.712565e+00  -4.909907e+00   3.124675e-21   1.177889e+06   1.265622e-40   0.000000e+00   0.000000e+00
      280000   2.799990e-06   1.421700e+00   1.502925e+01   2.249795e+01   4.720351e+05   3.569235e+05   1.018436e+06  -7.707700e-01   1.019351e+00  -2.252340e-22   1.177889e+06   5.446511e-42   0.000000e+00   0.000000e+00
      288000   2.879990e-06   1.459463e+00   1.505780e+01   2.257942e+01   4.720351e+05   3.569235e+05   1.018436e+06   7.254742e-01  -9.594471e-01  -2.961052e-23   1.177889e+06   4.835380e-42   0.000000e+00   0.000000e+00
      296000   2.959990e-06   1.497226e+00   1.508636e+01   2.266090e+01   4.720351e+05   3.569235e+05   1.018436e+06  -8.143112e+00   1.076935e+01  -2.690032e-21   1.177889e+06   6.090825e-40   0.000000e+00   0.000000e+00
      304000   3.039990e-06   1.534989e+00   1.511491e+01   2.274237e+01   4.720351e+05   3.569235e+05   1.018436e+06   1.478765e+00  -1.955681e+00   2.868342e-22   1.177889e+06   2.009982e-41   0.000000e+00   0.000000e+00
      312000   3.119990e-06   1.572752e+00   1.514347e+01   2.282385e+01   4.720351e+05   3.569235e+05   1.018436e+06   8.493409e-01  -1.123262e+00   3.087061e-22   1.177889e+06   6.624824e-42   0.000000e+00   0.000000e+00
      320000   3.199990e-06   1.610514e+00   1.517202e+01   2.290532e+01   4.720351e+05   3.569235e+05   1.018436e+06  -5.731415e+00   7.579856e+00  -4.348204e-21   1.177889e+06   3.016979e-40   0.000000e+00   0.000000e+00
      328000   3.279990e-06   1.648277e+00   1.520057e+01   2.298680e+01   4.720351e+05   3.569235e+05   1.018436e+06  -2.373424e+00   3.138878e+00   1.658141e-21   1.177889e+06   5.178057e-41   0.000000e+00   0.000000e+00
      336000   3.359990e-06   1.686040e+00   1.522913e+01   2.306827e+01   4.720351e+05   3.569235e+05   1.018436e+06   1.887671e+00  -2.496464e+00  -1.946809e-21   1.177889e+06   3.272402e-41   0.000000e+00   0.000000e+00
      344000   3.439990e-06   1.723803e+00   1.525768e+01   2.314975e+01   4.720351e+05   3.569235e+05   1.018436e+06   6.835420e+00  -9.039914e+00   3.115868e-22   1.177889e+06   4.291465e-40   0.000000e+00   0.000000e+00
      352000   3.519990e-06   1.761566e+00   1.528623e+01   2.323122e+01   4.720351e+05   3.569235e+05   1.018436e+06  -4.197304e-01   5.550978e-01   1.799754e-22   1.177889e+06   1.614584e-42   0.000000e+00   0.000000e+00
      360000   3.599990e-06   1.799328e+00   1.531479e+01   2.331270e+01   4.720351e+05   3.569235e+05   1.018436e+06  -4.929189e+00   6.518904e+00  -6.825511e-21   1.177889e+06   2.230860e-40   0.000000e+00   0.000000e+00
      368000   3.679990e-06   1.837091e+00   1.534334e+01   2.339417e+01   4.720351e+05   3.569235e+05   1.018436e+06  -1.847015e+00   2.442697e+00  -6.822391e-22   1.177889e+06   3.134616e-41   0.000000e+00   0.000000e+00
      376000   3.759990e-06   1.874854e+00   1.537190e+01   2.347565e+01   4.720351e+05   3.569235e+05   1.018436e+06   1.656751e+00  -2.191070e+00  -1.278283e-21   1.177889e+06   2.521203e-41   0.000000e+00   0.000000e+00
      384000   3.839990e-06   1.912617e+00   1.540045e+01   2.355712e+01   4.720351e+05   3.569235e+05   1.018436e+06   3.901486e+00  -5.159756e+00   4.227102e-21   1.177889e+06   1.399287e-40   0.000000e+00   0.000000e+00
      392000   3.919990e-06   1.950380e+00   1.542900e+01   2.363860e+01   4.720351e+05   3.569235e+05   1.018436e+06   9.383857e-01  -1.241025e+00   1.125191e-21   1.177889e+06   8.092054e-42   0.000000e+00   0.000000e+00
      400000   3.999990e-06   1.988142e+00   1.545756e+01   2.372007e+01   4.720351e+05   3.569235e+05   1.018436e+06  -8.668722e+00   1.146448e+01  -4.344532e-21   1.177889e+06   6.901960e-40   0.000000e+00   0.000000e+00
      408000   4.079990e-06   2.025905e+00   1.548611e+01   2.380155e+01   4.720351e+05   3.569235e+05   1.018436e+06  -1.811358e+00   2.395540e+00   9.499157e-22   1.177889e+06   3.013135e-41   0.000000e+00   0.000000e+00
      416000   4.159990e-06   2.063668e+00   1.551467e+01   2.388302e+01   4.720351e+05   3.569235e+05   1.018436e+06   1.341220e+00  -1.773777e+00  -8.324287e-22   1.177889e+06   1.651626e-41   0.000000e+00   0.000000e+00
      424000   4.239990e-06   2.101431e+00   1.554322e+01   2.396450e+01   4.720351e+05   3.569235e+05   1.018436e+06  -1.824603e+00   2.413057e+00   4.103170e-23   1.177889e+06   3.055717e-41   0.000000e+00   0.000000e+00
      432000   4.319990e-06   2.139194e+00   1.557177e+01   2.404597e+01   4.720351e+05   3.569235e+05   1.018436e+06   7.631826e+00  -1.009317e+01   3.205459e-21   1.177889e+06   5.349259e-40   0.000000e+00   0.000000e+00
      440000   4.399990e-06   2.176956e+00   1.560033e+01   2.412745e+01   4.720351e+05   3.569235e+05   1.018436e+06  -3.803309e+00   5.029916e+00  -3.288302e-21   1.177889e+06   1.328869e-40   0.000000e+00   0.000000e+00
      448000   4.479990e-06   2.214719e+00   1.562888e+01   2.420892e+01   4.720351e+05   3.569235e+05   1.018436e+06  -3.754806e+00   4.965770e+00  -7.635586e-21   1.177889e+06   1.295330e-40   0.000000e+00   0.000000e+00
      456000   4.559990e-06   2.252482e+00   1.565744e+01   2.429039e+01   4.720351e+05   3.569235e+05   1.018436e+06  -2.933074e+00   3.879021e+00  -3.254443e-21   1.177889e+06   7.904205e-41   0.000000e+00   0.000000e+00
      464000   4.639990e-06   2.290245e+00   1.568599e+01   2.437187e+01   4.720351e+05   3.569235e+05   1.018436e+06   2.272982e-01  -3.006043e-01   1.531147e-22   1.177889e+06   4.736005e-43   0.000000e+00   0.000000e+00
      472000   4.719990e-06   2.328008e+00   1.571454e+01   2.445334e+01   4.720351e+05   3.569235e+05   1.018436e+06   1.189801e+00  -1.573524e+00  -8.986228e-23   1.177889e+06   1.299635e-41   0.000000e+00   0.000000e+00
      480000   4.799990e-06   2.365770e+00   1.574310e+01   2.453482e+01   4.720351e+05   3.569235e+05   1.018436e+06  -3.016354e+00   3.989159e+00   1.621587e-21   1.177889e+06   8.356184e-41   0.000000e+00   0.000000e+00
      488000   4.879990e-06   2.403533e+00   1.577165e+01   2.461629e+01   4.720351e+05   3.569235e+05   1.018436e+06  -3.545153e-01   4.688502e-01   2.213872e-22   1.177889e+06   1.150407e-42   0.000000e+00   0.000000e+00
      496000   4.959990e-06   2.441296e+00   1.580020e+01   2.469777e+01   4.720351e+05   3.569235e+05   1.018436e+06  -1.030467e+00   1.362804e+00  -1.475082e-22   1.177889e+06   9.749531e-42   0.000000e+00   0.000000e+00
      504000   5.039990e-06   2.479059e+00   1.582876e+01   2.477924e+01   4.720351e+05   3.569235e+05   1.018436e+06   3.035372e+00  -4.014312e+00  -9.967659e-22   1.177889e+06   8.462539e-41   0.000000e+00   0.000000e+00
      512000   5.119990e-06   2.516822e+00   1.585731e+01   2.486072e+01   4.720351e+05   3.569235e+05   1.018436e+06   4.763952e-01  -6.300377e-01  -1.697558e-22   1.177889e+06   2.085682e-42   0.000000e+00   0.000000e+00
      520000   5.199990e-06   2.554584e+00   1.588587e+01   2.494219e+01   4.720351e+05   3.569235e+05   1.018436e+06  -1.740411e+00   2.301712e+00   9.130989e-22   1.177889e+06   2.781799e-41   0.000000e+00   0.000000e+00
      528000   5.279990e-06   2.592347e+00   1.591442e+01   2.502367e+01   4.720351e+05   3.569235e+05   1.018436e+06  -7.058894e-01   9.335461e-01   5.436021e-22   1.177889e+06   4.579945e-42   0.000000e+00   0.000000e+00
      536000   5.359990e-06   2.630110e+00   1.594297e+01   2.510514e+01   4.720351e+05   3.569235e+05   1.018436e+06  -1.607346e+00   2.125732e+00   8.413273e-22   1.177889e+06   2.371027e-41   0.000000e+00   0.000000e+00
      544000   5.439990e-06   2.667873e+00   1.597153e+01   2.518662e+01   4.720351e+05   3.569235e+05   1.018436e+06  -8.472635e+00   1.120515e+01  -1.136795e-20   1.177889e+06   6.593723e-40   0.000000e+00   0.000000e+00
      552000   5.519990e-06   2.705636e+00   1.600008e+01   2.526809e+01   4.720351e+05   3.569235e+05   1.018436e+06   1.814893e-01  -2.400214e-01   8.053676e-23   1.177889e+06   3.026202e-43   0.000000e+00   0.000000e+00
      560000   5.599990e-06   2.743398e+00   1.602864e+01   2.534957e+01   4.720351e+05   3.569235e+05   1.018436e+06   6.378863e-02  -8.436113e-02   1.667392e-23   1.177889e+06   3.750019e-44   0.000000e+00   0.000000e+00
      568000   5.679990e-06   2.781161e+00   1.605719e+01   2.543104e+01   4.720351e+05   3.569235e+05   1.018436e+06  -2.170852e+00   2.870974e+00   1.512885e-21   1.177889e+06   4.329531e-41   0.000000e+00   0.000000e+00
      576000   5.759990e-06   2.818924e+00   1.608574e+01   2.551252e+01   4.720351e+05   3.569235e+05   1.018436e+06  -1.649851e+00   2.181945e+00  -2.025936e-21   1.177889e+06   2.500920e-41   0.000000e+00   0.000000e+00
      584000   5.839990e-06   2.856687e+00   1.611430e+01   2.559399e+01   4.720351e+05   3.569235e+05   1.018436e+06   7.460995e-02  -9.867244e-02   1.949581e-23   1.177889e+06   5.070777e-44   0.000000e+00   0.000000e+00
      592000   5.919990e-06   2.894450e+00   1.614285e+01   2.567547e+01   4.720351e+05   3.569235e+05   1.018436e+06   1.722672e+00  -2.278252e+00  -5.372327e-22   1.177889e+06   2.726270e-41   0.000000e+00   0.000000e+00
      600000   5.999990e-06   2.932213e+00   1.617140e+01   2.575694e+01   4.720351e+05   3.569235e+05   1.018436e+06  -1.284228e+00   1.698405e+00  -3.509054e-22   1.177889e+06   1.515571e-41   0.000000e+00   0.000000e+00
      608000   6.079990e-06   2.969975e+00   1.619996e+01   2.583842e+01   4.720351e+05   3.569235e+05   1.018436e+06  -1.286414e+01   1.701296e+01  -3.071536e-20   1.177889e+06   1.520092e-39   0.000000e+00   0.000000e+00
      616000   6.159990e-06   3.007738e+00   1.622851e+01   2.591989e+01   4.720351e+05   3.569235e+05   1.018436e+06  -3.589242e-01   4.746810e-01  -5.392575e-22   1.177889e+06   1.184765e-42   0.000000e+00   0.000000e+00
      624000   6.239990e-06   3.045501e+00   1.625707e+01   2.600137e+01   4.720351e+05   3.569235e+05   1.018436e+06   1.001902e+00  -1.325026e+00   1.545151e-21   1.177889e+06   9.225505e-42   0.000000e+00   0.000000e+00
      632000   6.319990e-06   3.083264e+00   1.628562e+01   2.608284e+01   4.720351e+05   3.569235e+05   1.018436e+06  -4.532325e-01   5.994048e-01  -2.236403e-22   1.177889e+06   1.885711e-42   0.000000e+00   0.000000e+00
      640000   6.399990e-06   3.121027e+00   1.631417e+01   2.616432e+01   4.720351e+05   3.569235e+05   1.018436e+06  -5.206154e+00   6.885193e+00  -9.229833e-21   1.177889e+06   2.489892e-40   0.000000e+00   0.000000e+00
      648000   6.479990e-06   3.158789e+00   1.634273e+01   2.624579e+01   4.720351e+05   3.569235e+05   1.018436e+06   3.291741e+00  -4.353361e+00   2.686711e-21   1.177889e+06   9.947916e-41   0.000000e+00   0.000000e+00
      656000   6.559990e-06   3.196552e+00   1.637128e+01   2.632727e+01   4.720351e+05   3.569235e+05   1.018436e+06  -5.241500e-01   6.931939e-01  -1.638009e-21   1.177889e+06   2.521986e-42   0.000000e+00   0.000000e+00
      664000   6.639990e-06   3.234315e+00   1.639984e+01   2.640874e+01   4.720351e+05   3.569235e+05   1.018436e+06   1.183090e+00  -1.564649e+00  -1.135503e-21   1.177889e+06   1.286527e-41   0.000000e+00   0.000000e+00
      672000   6.719990e-06   3.272078e+00   1.642839e+01   2.649022e+01   4.720351e+05   3.569235e+05   1.018436e+06  -1.238778e+01   1.638297e+01   5.034389e-22   1.177889e+06   1.409593e-39   0.000000e+00   0.000000e+00
      680000   6.799990e-06   3.309841e+00   1.645694e+01   2.657169e+01   4.720351e+05   3.569235e+05   1.018436e+06  -1.142555e+01   1.511040e+01  -5.849855e-21   1.177889e+06   1.199147e-39   0.000000e+00   0.000000e+00
      688000   6.879990e-06   3.347603e+00   1.648550e+01   2.665317e+01   4.720351e+05   3.569235e+05   1.018436e+06   1.288968e+01  -1.704673e+01   1.204072e-20   1.177889e+06   1.525857e-39   0.000000e+00   0.000000e+00
      696000   6.959990e-06   3.385366e+00   1.651405e+01   2.673464e+01   4.720351e+05   3.569235e+05   1.018436e+06   2.369357e+00  -3.133499e+00  -1.048729e-22   1.177889e+06   5.152317e-41   0.000000e+00   0.000000e+00
      704000   7.039990e-06   3.423129e+00   1.654261e+01   2.681612e+01   4.720351e+05   3.569235e+05   1.018436e+06  -3.139842e+00   4.152474e+00   1.558363e-21   1.177889e+06   9.053643e-41   0.000000e+00   0.000000e+00
      712000   7.119990e-06   3.460892e+00   1.657116e+01   2.689759e+01   4.720351e+05   3.569235e+05   1.018436e+06  -8.169040e+00   1.080364e+01   1.250673e-20   1.177889e+06   6.129948e-40   0.000000e+00   0.000000e+00
      720000   7.199990e-06   3.498655e+00   1.659971e+01   2.697907e+01   4.720351e+05   3.569235e+05   1.018436e+06  -4.872030e+00   6.443310e+00  -8.443566e-21   1.177889e+06   2.180658e-40   0.000000e+00   0.000000e+00
      728000   7.279990e-06   3.536417e+00   1.662827e+01   2.706054e+01   4.720351e+05   3.569235e+05   1.018436e+06  -6.698603e+00   8.858972e+00  -8.874064e-21   1.177889e+06   4.122028e-40   0.000000e+00   0.000000e+00
      736000   7.359990e-06   3.574180e+00   1.665682e+01   2.714202e+01   4.720351e+05   3.569235e+05   1.018436e+06  -1.071780e+01   1.417441e+01   1.327289e-20   1.177889e+06   1.055191e-39   0.000000e+00   0.000000e+00
      744000   7.439990e-06   3.611943e+00   1.668537e+01   2.722349e+01   4.720351e+05   3.569235e+05   1.018436e+06   7.888447e-01  -1.043255e+00  -7.782660e-23   1.177889e+06   5.700521e-42   0.000000e+00   0.000000e+00
      752000   7.519990e-06   3.649706e+00   1.671393e+01   2.730496e+01   4.720351e+05   3.569235e+05   1.018436e+06  -4.697232e-01   6.212138e-01   7.578389e-22   1.177889e+06   2.032629e-42   0.000000e+00   0.000000e+00
      760000   7.599990e-06   3.687469e+00   1.674248e+01   2.738644e+01   4.720351e+05   3.569235e+05   1.018436e+06   4.693112e+00  -6.206690e+00   8.851316e-21   1.177889e+06   2.022945e-40   0.000000e+00   0.000000e+00
      768000   7.679990e-06   3.725231e+00   1.677104e+01   2.746791e+01   4.720351e+05   3.569235e+05   1.018436e+06  -2.599909e+00   3.438407e+00  -3.055581e-23   1.177889e+06   6.210022e-41   0.000000e+00   0.000000e+00
      776000   7.759990e-06   3.762994e+00   1.679959e+01   2.754939e+01   4.720351e+05   3.569235e+05   1.018436e+06  -1.339229e+01   1.771144e+01   2.637490e-21   1.177889e+06   1.647476e-39   0.000000e+00   0.000000e+00
      784000   7.839990e-06   3.800757e+00   1.682814e+01   2.763086e+01   4.720351e+05   3.569235e+05   1.018436e+06  -2.741150e+00   3.625199e+00   3.669356e-21   1.177889e+06   6.899867e-41   0.000000e+00   0.000000e+00
      792000   7.919990e-06   3.838520e+00   1.685670e+01   2.771234e+01   4.720351e+05   3.569235e+05   1.018436e+06  -8.390443e-01   1.109645e+00   1.514736e-21   1.177889e+06   6.483965e-42   0.000000e+00   0.000000e+00
      800000   7.999990e-06   3.876283e+00   1.688525e+01   2.779381e+01   4.720351e+05   3.569235e+05   1.018436e+06   7.583848e+00  -1.002972e+01   6.242251e-22   1.177889e+06   5.282510e-40   0.000000e+00   0.000000e+00
      808000   8.079990e-06   3.914045e+00   1.691381e+01   2.787529e+01   4.720351e+05   3.569235e+05   1.018436e+06  -1.131383e+00   1.496266e+00  -1.338034e-21   1.177889e+06   1.176119e-41   0.000000e+00   0.000000e+00
      816000   8.159990e-06   3.951808e+00   1.694236e+01   2.795676e+01   4.720351e+05   3.569235e+05   1.018436e+06  -5.561384e-01   7.354988e-01   3.645578e-22   1.177889e+06   2.841107e-42   0.000000e+00   0.000000e+00
      824000   8.239990e-06   3.989571e+00   1.697091e+01   2.803824e+01   4.720351e+05   3.569235e+05   1.018436e+06  -2.526147e+00   3.340855e+00   2.044413e-21   1.177889e+06   5.863021e-41   0.000000e+00   0.000000e+00
      832000   8.319990e-06   4.027334e+00   1.699947e+01   2.811971e+01   4.720351e+05   3.569235e+05   1.018436e+06  -7.996676e+00   1.057569e+01   1.735745e-20   1.177889e+06   5.873399e-40   0.000000e+00   0.000000e+00
      840000   8.399990e-06   4.065097e+00   1.702802e+01   2.820119e+01   4.720351e+05   3.569235e+05   1.018436e+06  -7.575966e+00   1.001929e+01  -6.277513e-21   1.177889e+06   5.271394e-40   0.000000e+00   0.000000e+00
      848000   8.479990e-06   4.102859e+00   1.705658e+01   2.828266e+01   4.720351e+05   3.569235e+05   1.018436e+06  -3.044291e+00   4.026106e+00  -1.275738e-21   1.177889e+06   8.515521e-41   0.000000e+00   0.000000e+00
      856000   8.559990e-06   4.140622e+00   1.708513e+01   2.836414e+01   4.720351e+05   3.569235e+05   1.018436e+06  -4.792794e+00   6.338520e+00  -5.285935e-21   1.177889e+06   2.110174e-40   0.000000e+00   0.000000e+00
      864000   8.639990e-06   4.178385e+00   1.711368e+01   2.844561e+01   4.720351e+05   3.569235e+05   1.018436e+06   5.522963e+00  -7.304176e+00  -7.786972e-21   1.177889e+06   2.801695e-40   0.000000e+00   0.000000e+00
      872000   8.719990e-06   4.216148e+00   1.714224e+01   2.852709e+01   4.720351e+05   3.569235e+05   1.018436e+06   3.125593e-01  -4.133629e-01  -3.197187e-22   1.177889e+06   8.942744e-43   0.000000e+00   0.000000e+00
      880000   8.799990e-06   4.253911e+00   1.717079e+01   2.860856e+01   4.720351e+05   3.569235e+05   1.018436e+06  -1.109606e+01   1.467466e+01   5.743159e-21   1.177889e+06   1.130705e-39   0.000000e+00   0.000000e+00
      888000   8.879990e-06   4.291673e+00   1.719934e+01   2.869004e+01   4.720351e+05   3.569235e+05   1.018436e+06  -2.849656e+01   3.768699e+01   2.106775e-20   1.177889e+06   7.459335e-39   0.000000e+00   0.000000e+00
      896000   8.959990e-06   4.329436e+00   1.722790e+01   2.877151e+01   4.720351e+05   3.569235e+05   1.018436e+06  -1.180373e+01   1.561056e+01   2.326587e-21   1.177889e+06   1.279901e-39   0.000000e+00   0.000000e+00
      904000   9.039990e-06   4.367199e+00   1.725645e+01   2.885299e+01   4.720351e+05   3.569235e+05   1.018436e+06   6.020595e+00  -7.962299e+00   3.032850e-21   1.177889e+06   3.327955e-40   0.000000e+00   0.000000e+00
      912000   9.119990e-06   4.404962e+00   1.728501e+01   2.893446e+01   4.720351e+05   3.569235e+05   1.018436e+06  -4.176224e+00   5.523100e+00   3.500125e-21   1.177889e+06   1.602288e-40   0.000000e+00   0.000000e+00
      920000   9.199990e-06   4.442725e+00   1.731356e+01   2.901594e+01   4.720351e+05   3.569235e+05   1.018436e+06  -3.457097e+00   4.572046e+00   1.567748e-21   1.177889e+06   1.097790e-40   0.000000e+00   0.000000e+00
      928000   9.279990e-06   4.480487e+00   1.734211e+01   2.909741e+01   4.720351e+05   3.569235e+05   1.018436e+06  -6.179713e+00   8.172734e+00   2.935705e-21   1.177889e+06   3.508087e-40   0.000000e+00   0.000000e+00
      936000   9.359990e-06   4.518250e+00   1.737067e+01   2.917889e+01   4.720351e+05   3.569235e+05   1.018436e+06  -3.041657e+00   4.022623e+00   2.041674e-21   1.177889e+06   8.503145e-41   0.000000e+00   0.000000e+00
      944000   9.439990e-06   4.556013e+00   1.739922e+01   2.926036e+01   4.720351e+05   3.569235e+05   1.018436e+06  -1.473321e+01   1.948483e+01   1.188092e-21   1.177889e+06   1.993982e-39   0.000000e+00   0.000000e+00
      952000   9.519990e-06   4.593776e+00   1.742778e+01   2.934184e+01   4.720351e+05   3.569235e+05   1.018436e+06  -1.036646e+01   1.370975e+01   7.052581e-21   1.177889e+06   9.871479e-40   0.000000e+00   0.000000e+00
      960000   9.599990e-06   4.631539e+00   1.745633e+01   2.942331e+01   4.720351e+05   3.569235e+05   1.018436e+06  -4.229055e+00   5.592970e+00   1.978109e-21   1.177889e+06   1.643421e-40   0.000000e+00   0.000000e+00
      968000   9.679990e-06   4.669302e+00   1.748488e+01   2.950479e+01   4.720351e+05   3.569235e+05   1.018436e+06  -1.236008e+01   1.634634e+01  -5.526333e-21   1.177889e+06   1.403434e-39   0.000000e+00   0.000000e+00
      976000   9.759990e-06   4.707064e+00   1.751344e+01   2.958626e+01   4.720351e+05   3.569235e+05   1.018436e+06  -1.145549e+01   1.515000e+01  -8.069326e-21   1.177889e+06   1.205217e-39   0.000000e+00   0.000000e+00
      984000   9.839990e-06   4.744827e+00   1.754199e+01   2.966774e+01   4.720351e+05   3.569235e+05   1.018436e+06   2.075079e+00  -1.823349e+00  -3.227635e-01   1.177889e+06   2.579778e-41   0.000000e+00   0.000000e+00
      992000   9.919990e-06   4.782590e+00   1.757055e+01   2.974921e+01   4.720351e+05   3.569235e+05   1.018436e+06  -1.601121e+01   2.180337e+01  -2.202238e-01   1.177889e+06   2.445072e-39   0.000000e+00   0.000000e+00
     1000000   9.999990e-06   4.820353e+00   1.759910e+01   2.983069e+01   4.720351e+05   3.569235e+05   1.018436e+06  -1.285269e+01   1.336777e+01   1.272192e+00   1.177889e+06   1.155059e-39   0.000000e+00   0.000000e+00
     1008000   1.007999e-05   4.858116e+00   1.762765e+01   2.991216e+01   4.720351e+05   3.569235e+05   1.018436e+06  -2.812697e+00   3.598051e+00   4.267609e-02   1.177889e+06   6.962227e-41   0.000000e+00   0.000000e+00
     1016000   1.015999e-05   4.895878e+00   1.765621e+01   2.999364e+01   4.720351e+05   3.569235e+05   1.018436e+06  -1.710211e+01   2.167941e+01   3.288417e-01   1.177889e+06   2.548005e-39   0.000000e+00   0.000000e+00
     1024000   1.023999e-05   4.933641e+00   1.768476e+01   3.007511e+01   4.720351e+05   3.569235e+05   1.018436e+06   6.056689e+00  -2.481364e+01   5.889032e+00   1.177889e+06   2.295519e-39   0.000000e+00   0.000000e+00
     1032000   1.031999e-05   4.971404e+00   1.771331e+01   3.015659e+01   4.720351e+05   3.569235e+05   1.018436e+06  -6.990956e+00   1.109159e+01  -6.469468e-01   1.177889e+06   5.757544e-40   0.000000e+00   0.000000e+00
     1040000   1.039999e-05   5.009167e+00   1.774187e+01   3.023806e+01   4.720351e+05   3.569235e+05   1.018436e+06  -7.513066e+00   9.936108e+00  -6.845954e-21   1.177889e+06   5.187599e-40   0.000000e+00   0.000000e+00
     1048000   1.047999e-05   5.046930e+00   1.777042e+01   3.031953e+01   4.720351e+05   3.569235e+05   1.018436e+06  -1.221142e+01   1.614973e+01   7.613065e-21   1.177889e+06   1.369765e-39   0.000000e+00   0.000000e+00
     1056000   1.055999e-05   5.084692e+00   1.779898e+01   3.040101e+01   4.720351e+05   3.569235e+05   1.018436e+06  -1.536977e-01   2.032669e-01   1.233851e-22   1.177889e+06   2.207183e-43   0.000000e+00   0.000000e+00
     1064000   1.063999e-05   5.122455e+00   1.782753e+01   3.048248e+01   4.720351e+05   3.569235e+05   1.018436e+06  -9.741299e+00   1.288297e+01   7.996647e-21   1.177889e+06   8.716437e-40   0.000000e+00   0.000000e+00
     1072000   1.071999e-05   5.160218e+00   1.785608e+01   3.056396e+01   4.720351e+05   3.569235e+05   1.018436e+06   6.501153e+00  -8.597843e+00  -4.299439e-21   1.177889e+06   3.880770e-40   0.000000e+00   0.000000e+00
     1080000   1.079999e-05   5.197981e+00   1.788464e+01   3.064543e+01   4.720351e+05   3.569235e+05   1.018436e+06  -5.059877e+00   6.691740e+00  -3.007385e-21   1.177889e+06   2.351335e-40   0.000000e+00   0.000000e+00
     1088000   1.087999e-05   5.235744e+00   1.791319e+01   3.072691e+01   4.720351e+05   3.569235e+05   1.018436e+06  -1.364254e+01   1.804240e+01   9.191382e-21   1.177889e+06   1.710335e-39   0.000000e+00   0.000000e+00
     1096000   1.095999e-05   5.273506e+00   1.794175e+01   3.080838e+01   4.720351e+05   3.569235e+05   1.018436e+06  -8.748854e+00   1.157045e+01  -1.099360e-20   1.177889e+06   7.031910e-40   0.000000e+00   0.000000e+00
     1104000   1.103999e-05   5.311269e+00   1.797030e+01   3.088986e+01   4.720351e+05   3.569235e+05   1.018436e+06  -3.499813e+00   4.628539e+00   2.588673e-21   1.177889e+06   1.126002e-40   0.000000e+00   0.000000e+00
     1112000   1.111999e-05   5.349032e+00   1.799885e+01   3.097133e+01   4.720351e+05   3.569235e+05   1.018436e+06   1.777634e-01  -2.350939e-01  -1.152702e-22   1.177889e+06   2.875918e-43   0.000000e+00   0.000000e+00
     1120000   1.119999e-05   5.386795e+00   1.802741e+01   3.105281e+01   4.720351e+05   3.569235e+05   1.018436e+06  -1.638506e+01   2.166942e+01   2.600406e-21   1.177889e+06   2.466125e-39   0.000000e+00   0.000000e+00
     1128000   1.127999e-05   5.424558e+00   1.805596e+01   3.113428e+01   4.720351e+05   3.569235e+05   1.018436e+06  -4.735987e+00   6.263393e+00  -2.268884e-21   1.177889e+06   2.061204e-40   0.000000e+00   0.000000e+00
     1136000   1.135999e-05   5.462320e+00   1.808451e+01   3.121576e+01   4.720351e+05   3.569235e+05   1.018436e+06  -1.181844e+01   1.563001e+01   4.079597e-22   1.177889e+06   1.283258e-39   0.000000e+00   0.000000e+00
     1144000   1.143999e-05   5.500083e+00   1.811307e+01   3.129723e+01   4.720351e+05   3.569235e+05   1.018436e+06  -1.311285e+01   1.734188e+01  -6.480249e-21   1.177889e+06   1.579705e-39   0.000000e+00   0.000000e+00
     1152000   1.151999e-05   5.537846e+00   1.814162e+01   3.137871e+01   4.720351e+05   3.569235e+05   1.018436e+06  -6.401310e+00   8.465800e+00  -2.752178e-21   1.177889e+06   3.765539e-40   0.000000e+00   0.000000e+00
     1160000   1.159999e-05   5.575609e+00   1.817018e+01   3.146018e+01   4.720351e+05   3.569235e+05   1.018436e+06  -7.070017e+00   9.350171e+00  -3.242771e-21   1.177889e+06   4.592222e-40   0.000000e+00   0.000000e+00
     1168000   1.167999e-05   5.613372e+00   1.819873e+01   3.154166e+01   4.720351e+05   3.569235e+05   1.018436e+06  -4.739175e+00   6.267609e+00   1.477939e-21   1.177889e+06   2.063911e-40   0.000000e+00   0.000000e+00
     1176000   1.175999e-05   5.651134e+00   1.822728e+01   3.162313e+01   4.720351e+05   3.569235e+05   1.018436e+06  -9.807853e+00   1.297099e+01  -1.725952e-21   1.177889e+06   8.839988e-40   0.000000e+00   0.000000e+00
     1184000   1.183999e-05   5.688897e+00   1.825584e+01   3.170461e+01   4.720351e+05   3.569235e+05   1.018436e+06  -1.733509e+01   2.292584e+01   3.260980e-20   1.177889e+06   2.760306e-39   0.000000e+00   0.000000e+00
     1192000   1.191999e-05   5.726660e+00   1.828439e+01   3.178608e+01   4.720351e+05   3.569235e+05   1.018436e+06  -1.037570e+01   1.372197e+01   1.778090e-20   1.177889e+06   9.891161e-40   0.000000e+00   0.000000e+00
     1200000   1.199999e-05   5.764423e+00   1.831295e+01   3.186756e+01   4.720351e+05   3.569235e+05   1.018436e+06  -1.384622e+01   1.831177e+01  -2.785126e-21   1.177889e+06   1.761291e-39   0.000000e+00   0.000000e+00
     1208000   1.207999e-05   5.802186e+00   1.834150e+01   3.194903e+01   4.720351e+05   3.569235e+05   1.018436e+06  -1.040584e+01   1.376183e+01   5.721988e-21   1.177889e+06   9.948049e-40   0.000000e+00   0.000000e+00
     1216000   1.215999e-05   5.839948e+00   1.837005e+01   3.203051e+01   4.720351e+05   3.569235e+05   1.018436e+06  -6.727135e+00   8.896706e+00  -6.881321e-21   1.177889e+06   4.158427e-40   0.000000e+00   0.000000e+00
     1224000   1.223999e-05   5.877711e+00   1.839861e+01   3.211198e+01   4.720351e+05   3.569235e+05   1.018436e+06  -6.798801e+00   8.991486e+00  -2.619159e-21   1.177889e+06   4.246677e-40   0.000000e+00   0.000000e+00
     1232000   1.231999e-05   5.915474e+00   1.842716e+01   3.219346e+01   4.720351e+05   3.569235e+05   1.018436e+06  -1.818885e+01   2.405495e+01  -1.685089e-20   1.177889e+06   3.038947e-39   0.000000e+00   0.000000e+00
     1240000   1.239999e-05   5.953237e+00   1.845572e+01   3.227493e+01   4.720351e+05   3.569235e+05   1.018436e+06  -5.788039e+00   7.654742e+00  -6.720638e-21   1.177889e+06   3.078893e-40   0.000000e+00   0.000000e+00
     1248000   1.247999e-05   5.991000e+00   1.848427e+01   3.235641e+01   4.720351e+05   3.569235e+05   1.018436e+06  -2.800511e+01   3.703704e+01  -2.380741e-20   1.177889e+06   7.204622e-39   0.000000e+00   0.000000e+00
     1256000   1.255999e-05   6.028762e+00   1.851282e+01   3.243788e+01   4.720351e+05   3.569235e+05   1.018436e+06  -1.472745e+01   1.947721e+01   1.863877e-21   1.177889e+06   1.992857e-39   0.000000e+00   0.000000e+00
     1264000   1.263999e-05   6.066525e+00   1.854138e+01   3.251936e+01   4.720351e+05   3.569235e+05   1.018436e+06  -1.250068e+01   1.653228e+01  -1.019644e-20   1.177889e+06   1.435517e-39   0.000000e+00   0.000000e+00
     1272000   1.271999e-05   6.104288e+00   1.856993e+01   3.260083e+01   4.720351e+05   3.569235e+05   1.018436e+06  -1.070818e+01   1.416168e+01  -5.222808e-21   1.177889e+06   1.053728e-39   0.000000e+00   0.000000e+00
     1280000   1.279999e-05   6.142051e+00   1.859848e+01   3.268231e+01   4.720351e+05   3.569235e+05   1.018436e+06   6.656819e-01  -8.803712e-01   2.130527e-22   1.177889e+06   4.053760e-42   0.000000e+00   0.000000e+00
     1288000   1.287999e-05   6.179814e+00   1.862704e+01   3.276378e+01   4.720351e+05   3.569235e+05   1.018436e+06  -5.979540e+00   7.908004e+00   1.223249e-20   1.177889e+06   3.286452e-40   0.000000e+00   0.000000e+00
     1296000   1.295999e-05   6.217576e+00   1.865559e+01   3.284526e+01   4.720351e+05   3.569235e+05   1.018436e+06  -1.569850e+01   2.076143e+01  -2.249724e-20   1.177889e+06   2.264207e-39   0.000000e+00   0.000000e+00
     1304000   1.303999e-05   6.255339e+00   1.868415e+01   3.292673e+01   4.720351e+05   3.569235e+05   1.018436e+06  -1.625217e+01   2.149367e+01   2.883553e-20   1.177889e+06   2.426509e-39   0.000000e+00   0.000000e+00
     1312000   1.311999e-05   6.293102e+00   1.871270e+01   3.300821e+01   4.720351e+05   3.569235e+05   1.018436e+06  -1.763805e+01   2.332650e+01   7.500201e-21   1.177889e+06   2.858144e-39   0.000000e+00   0.000000e+00
     1320000   1.319999e-05   6.330865e+00   1.874125e+01   3.308968e+01   4.720351e+05   3.569235e+05   1.018436e+06  -2.370156e+01   3.134556e+01  -3.493765e-20   1.177889e+06   5.160823e-39   0.000000e+00   0.000000e+00
     1328000   1.327999e-05   6.368628e+00   1.876981e+01   3.317116e+01   4.720351e+05   3.569235e+05   1.018436e+06   5.155082e+00  -6.817649e+00   4.862026e-22   1.177889e+06   2.438954e-40   0.000000e+00   0.000000e+00
     1336000   1.335999e-05   6.406391e+00   1.879836e+01   3.325263e+01   4.720351e+05   3.569235e+05   1.018436e+06  -1.756889e+01   2.323505e+01  -1.571664e-20   1.177889e+06   2.835508e-39   0.000000e+00   0.000000e+00
     1344000   1.343999e-05   6.444153e+00   1.882692e+01   3.333410e+01   4.720351e+05   3.569235e+05   1.018436e+06  -1.255550e+01   1.660478e+01  -1.307150e-20   1.177889e+06   1.448345e-39   0.000000e+00   0.000000e+00
     1352000   1.351999e-05   6.481916e+00   1.885547e+01   3.341558e+01   4.720351e+05   3.569235e+05   1.018436e+06  -1.139225e+01   1.506637e+01  -1.221330e-20   1.177889e+06   1.192457e-39   0.000000e+00   0.000000e+00
     1360000   1.359999e-05   6.519679e+00   1.888402e+01   3.349705e+01   4.720351e+05   3.569235e+05   1.018436e+06  -1.271471e+01   1.681534e+01  -8.182646e-21   1.177889e+06   1.485411e-39   0.000000e+00   0.000000e+00
     1368000   1.367999e-05   6.557442e+00   1.891258e+01   3.357853e+01   4.720351e+05   3.569235e+05   1.018436e+06  -1.695010e+01   2.241668e+01   9.822406e-21   1.177889e+06   2.640097e-39   0.000000e+00   0.000000e+00
     1376000   1.375999e-05   6.595205e+00   1.894113e+01   3.366000e+01   4.720351e+05   3.569235e+05   1.018436e+06  -2.445766e+01   3.234550e+01  -1.839833e-21   1.177889e+06   5.495106e-39   0.000000e+00   0.000000e+00
     1384000   1.383999e-05   6.632967e+00   1.896969e+01   3.374148e+01   4.720351e+05   3.569235e+05   1.018436e+06  -5.400721e+00   7.142510e+00   8.735148e-21   1.177889e+06   2.681632e-40   0.000000e+00   0.000000e+00
     1392000   1.391999e-05   6.670730e+00   1.899824e+01   3.382295e+01   4.720351e+05   3.569235e+05   1.018436e+06  -1.443040e+01   1.908435e+01   1.560013e-20   1.177889e+06   1.912952e-39   0.000000e+00   0.000000e+00
     1400000   1.399999e-05   6.708493e+00   1.902679e+01   3.390443e+01   4.720351e+05   3.569235e+05   1.018436e+06  -2.144062e+01   2.835545e+01   2.596071e-20   1.177889e+06   4.223885e-39   0.000000e+00   0.000000e+00
     1408000   1.407999e-05   6.746256e+00   1.905535e+01   3.398590e+01   4.720351e+05   3.569235e+05   1.018436e+06  -1.045527e+01   1.382721e+01  -9.772950e-21   1.177889e+06   1.004538e-39   0.000000e+00   0.000000e+00
     1416000   1.415999e-05   6.784019e+00   1.908390e+01   3.406738e+01   4.720351e+05   3.569235e+05   1.018436e+06  -3.178436e+01   4.203515e+01   1.870488e-20   1.177889e+06   9.280303e-39   0.000000e+00   0.000000e+00
     1424000   1.423999e-05   6.821781e+00   1.911245e+01   3.414885e+01   4.720351e+05   3.569235e+05   1.018436e+06  -2.417066e+01   3.196595e+01  -1.476626e-20   1.177889e+06   5.366334e-39   0.000000e+00   0.000000e+00
     1432000   1.431999e-05   6.859544e+00   1.914101e+01   3.423033e+01   4.720351e+05   3.569235e+05   1.018436e+06  -2.245289e+01   2.969419e+01   2.085400e-21   1.177889e+06   4.632018e-39   0.000000e+00   0.000000e+00
     1440000   1.439999e-05   6.897307e+00   1.916956e+01   3.431180e+01   4.720351e+05   3.569235e+05   1.018436e+06  -3.733048e+01   4.936995e+01   2.872550e-20   1.177889e+06   1.280137e-38   0.000000e+00   0.000000e+00
     1448000   1.447999e-05   6.935070e+00   1.919812e+01   3.439328e+01   4.720351e+05   3.569235e+05   1.018436e+06  -8.757966e+00   1.158250e+01   9.384391e-21   1.177889e+06   7.048591e-40   0.000000e+00   0.000000e+00
     1456000   1.455999e-05   6.972833e+00   1.922667e+01   3.447475e+01   4.720351e+05   3.569235e+05   1.018436e+06  -2.107049e+01   2.786594e+01   1.363478e-20   1.177889e+06   4.078567e-39   0.000000e+00   0.000000e+00
     1464000   1.463999e-05   7.010595e+00   1.925522e+01   3.455623e+01   4.720351e+05   3.569235e+05   1.018436e+06  -2.646533e+01   3.500068e+01  -1.218370e-20   1.177889e+06   6.434352e-39   0.000000e+00   0.000000e+00
     1472000   1.471999e-05   7.048358e+00   1.928378e+01   3.463770e+01   4.720351e+05   3.569235e+05   1.018436e+06  -2.864112e+01   3.787819e+01   7.750570e-21   1.177889e+06   7.536369e-39   0.000000e+00   0.000000e+00
     1480000   1.479999e-05   7.086121e+00   1.931233e+01   3.471918e+01   4.720351e+05   3.569235e+05   1.018436e+06  -2.554117e+01   3.377846e+01  -5.685080e-21   1.177889e+06   5.993260e-39   0.000000e+00   0.000000e+00
     1488000   1.487999e-05   7.123884e+00   1.934089e+01   3.480065e+01   4.720351e+05   3.569235e+05   1.018436e+06  -2.532649e+01   3.349455e+01   2.921790e-20   1.177889e+06   5.893140e-39   0.000000e+00   0.000000e+00
     1496000   1.495999e-05   7.161647e+00   1.936944e+01   3.488213e+01   4.720351e+05   3.569235e+05   1.018436e+06  -2.183712e+01   2.887981e+01   1.521660e-20   1.177889e+06   4.381165e-39   0.000000e+00   0.000000e+00
     1504000   1.503999e-05   7.199409e+00   1.939799e+01   3.496360e+01   4.720351e+05   3.569235e+05   1.018436e+06  -2.652094e+01   3.507422e+01  -2.750594e-20   1.177889e+06   6.461820e-39   0.000000e+00   0.000000e+00
     1512000   1.511999e-05   7.237172e+00   1.942655e+01   3.504508e+01   4.720351e+05   3.569235e+05   1.018436e+06  -1.796184e+01   2.375472e+01  -9.459947e-22   1.177889e+06   2.965090e-39   0.000000e+00   0.000000e+00
     1520000   1.519999e-05   7.274935e+00   1.945510e+01   3.512655e+01   4.720351e+05   3.569235e+05   1.018436e+06  -2.352427e+01   3.111110e+01   9.367402e-22   1.177889e+06   5.083740e-39   0.000000e+00   0.000000e+00
     1528000   1.527999e-05   7.312698e+00   1.948366e+01   3.520803e+01   4.720351e+05   3.569235e+05   1.018436e+06  -2.497416e+01   3.302858e+01   2.008218e-20   1.177889e+06   5.729924e-39   0.000000e+00   0.000000e+00
     1536000   1.535999e-05   7.350461e+00   1.951221e+01   3.528950e+01   4.720351e+05   3.569235e+05   1.018436e+06  -4.478812e+01   5.923276e+01  -3.100273e-21   1.177889e+06   1.842719e-38   0.000000e+00   0.000000e+00
     1544000   1.543999e-05   7.388223e+00   1.954076e+01   3.537098e+01   4.720351e+05   3.569235e+05   1.018436e+06  -1.871474e+01   2.475044e+01   1.209393e-20   1.177889e+06   3.218262e-39   0.000000e+00   0.000000e+00
     1552000   1.551999e-05   7.425986e+00   1.956932e+01   3.545245e+01   4.720351e+05   3.569235e+05   1.018436e+06  -1.639307e+01   2.168001e+01  -1.415245e-20   1.177889e+06   2.469722e-39   0.000000e+00   0.000000e+00
     1560000   1.559999e-05   7.463749e+00   1.959787e+01   3.553393e+01   4.720351e+05   3.569235e+05   1.018436e+06  -2.896732e+01   3.830959e+01  -2.901664e-20   1.177889e+06   7.708202e-39   0.000000e+00   0.000000e+00
     1568000   1.567999e-05   7.501512e+00   1.962642e+01   3.561540e+01   4.720351e+05   3.569235e+05   1.018436e+06  -2.296433e+01   3.037057e+01  -4.932322e-20   1.177889e+06   4.844133e-39   0.000000e+00   0.000000e+00
     1576000   1.575999e-05   7.539275e+00   1.965498e+01   3.569688e+01   4.720351e+05   3.569235e+05   1.018436e+06  -3.845808e+01   5.086122e+01  -3.136703e-20   1.177889e+06   1.358668e-38   0.000000e+00   0.000000e+00
     1584000   1.583999e-05   7.577037e+00   1.968353e+01   3.577835e+01   4.720351e+05   3.569235e+05   1.018436e+06  -4.023290e+01   5.320843e+01   2.468320e-20   1.177889e+06   1.487050e-38   0.000000e+00   0.000000e+00
     1592000   1.591999e-05   7.614800e+00   1.971209e+01   3.585983e+01   4.720351e+05   3.569235e+05   1.018436e+06  -3.047557e+01   4.030426e+01  -8.023129e-21   1.177889e+06   8.532940e-39   0.000000e+00   0.000000e+00
     1600000   1.599999e-05   7.652563e+00   1.974064e+01   3.594130e+01   4.720351e+05   3.569235e+05   1.018436e+06  -2.718913e+01   3.595790e+01   2.464072e-20   1.177889e+06   6.791813e-39   0.000000e+00   0.000000e+00
     1608000   1.607999e-05   7.690326e+00   1.976919e+01   3.602278e+01   4.720351e+05   3.569235e+05   1.018436e+06  -2.296478e+01   3.037116e+01  -3.237338e-20   1.177889e+06   4.845338e-39   0.000000e+00   0.000000e+00
     1616000   1.615999e-05   7.728089e+00   1.979775e+01   3.610425e+01   4.720351e+05   3.569235e+05   1.018436e+06  -3.487737e+01   4.612568e+01  -5.211266e-20   1.177889e+06   1.117572e-38   0.000000e+00   0.000000e+00
     1624000   1.623999e-05   7.765851e+00   1.982630e+01   3.618573e+01   4.720351e+05   3.569235e+05   1.018436e+06  -2.126649e+01   2.812516e+01  -1.093265e-20   1.177889e+06   4.155667e-39   0.000000e+00   0.000000e+00
     1632000   1.631999e-05   7.803614e+00   1.985486e+01   3.626720e+01   4.720351e+05   3.569235e+05   1.018436e+06  -3.865578e+01   5.112268e+01   4.415058e-20   1.177889e+06   1.372703e-38   0.000000e+00   0.000000e+00
     1640000   1.639999e-05   7.841377e+00   1.988341e+01   3.634867e+01   4.720351e+05   3.569235e+05   1.018436e+06  -2.076789e+01   2.746574e+01   3.407984e-21   1.177889e+06   3.963175e-39   0.000000e+00   0.000000e+00
     1648000   1.647999e-05   7.879140e+00   1.991196e+01   3.643015e+01   4.720351e+05   3.569235e+05   1.018436e+06  -3.569585e+01   4.720814e+01  -1.702285e-20   1.177889e+06   1.170684e-38   0.000000e+00   0.000000e+00
     1656000   1.655999e-05   7.916903e+00   1.994052e+01   3.651162e+01   4.720351e+05   3.569235e+05   1.018436e+06  -3.156306e+01   4.174248e+01  -1.693137e-20   1.177889e+06   9.153507e-39   0.000000e+00   0.000000e+00
     1664000   1.663999e-05   7.954665e+00   1.996907e+01   3.659310e+01   4.720351e+05   3.569235e+05   1.018436e+06  -1.773147e+01   2.345006e+01   2.036960e-21   1.177889e+06   2.889056e-39   0.000000e+00   0.000000e+00
     1672000   1.671999e-05   7.992428e+00   1.999762e+01   3.667457e+01   4.720351e+05   3.569235e+05   1.018436e+06  -1.515812e+01   2.004677e+01   9.926298e-21   1.177889e+06   2.111132e-39   0.000000e+00   0.000000e+00
     1680000   1.679999e-05   8.030191e+00   2.002618e+01   3.675605e+01   4.720351e+05   3.569235e+05   1.018436e+06  -3.819766e+01   5.051680e+01  -5.061674e-20   1.177889e+06   1.340432e-38   0.000000e+00   0.000000e+00
     1688000   1.687999e-05   8.067954e+00   2.005473e+01   3.683752e+01   4.720351e+05   3.569235e+05   1.018436e+06  -3.970900e+01   5.251557e+01   1.199042e-20   1.177889e+06   1.448670e-38   0.000000e+00   0.000000e+00
     1696000   1.695999e-05   8.105717e+00   2.008329e+01   3.691900e+01   4.720351e+05   3.569235e+05   1.018436e+06  -4.810531e+01   6.361978e+01   4.055203e-20   1.177889e+06   2.126016e-38   0.000000e+00   0.000000e+00
     1704000   1.703999e-05   8.143480e+00   2.011184e+01   3.700047e+01   4.720351e+05   3.569235e+05   1.018436e+06  -3.691375e+01   4.881882e+01  -2.470444e-20   1.177889e+06   1.252013e-38   0.000000e+00   0.000000e+00
     1712000   1.711999e-05   8.181242e+00   2.014039e+01   3.708195e+01   4.720351e+05   3.569235e+05   1.018436e+06  -1.956963e+01   2.588104e+01  -4.362461e-21   1.177889e+06   3.519192e-39   0.000000e+00   0.000000e+00
     1720000   1.719999e-05   8.219005e+00   2.016895e+01   3.716342e+01   4.720351e+05   3.569235e+05   1.018436e+06  -3.345006e+01   4.423805e+01   1.850530e-20   1.177889e+06   1.028028e-38   0.000000e+00   0.000000e+00
     1728000   1.727999e-05   8.256768e+00   2.019750e+01   3.724490e+01   4.720351e+05   3.569235e+05   1.018436e+06  -5.023456e+01   6.643574e+01   3.142892e-20   1.177889e+06   2.318212e-38   0.000000e+00   0.000000e+00
     1736000   1.735999e-05   8.294531e+00   2.022606e+01   3.732637e+01   4.720351e+05   3.569235e+05   1.018436e+06  -4.556643e+01   6.026208e+01   5.398606e-20   1.177889e+06   1.907496e-38   0.000000e+00   0.000000e+00
     1744000   1.743999e-05   8.332294e+00   2.025461e+01   3.740785e+01   4.720351e+05   3.569235e+05   1.018436e+06  -4.218994e+01   5.579664e+01  -7.321581e-20   1.177889e+06   1.635513e-38   0.000000e+00   0.000000e+00
     1752000   1.751999e-05   8.370056e+00   2.028316e+01   3.748932e+01   4.720351e+05   3.569235e+05   1.018436e+06  -2.106979e+01   2.786501e+01  -8.544514e-21   1.177889e+06   4.079536e-39   0.000000e+00   0.000000e+00
     1760000   1.759999e-05   8.407819e+00   2.031172e+01   3.757080e+01   4.720351e+05   3.569235e+05   1.018436e+06  -2.091969e+01   2.766651e+01   2.243110e-20   1.177889e+06   4.020504e-39   0.000000e+00   0.000000e+00
     1768000   1.767999e-05   8.445582e+00   2.034027e+01   3.765227e+01   4.720351e+05   3.569235e+05   1.018436e+06  -4.455431e+01   5.892354e+01   1.042908e-21   1.177889e+06   1.823437e-38   0.000000e+00   0.000000e+00
     1776000   1.775999e-05   8.483345e+00   2.036883e+01   3.773375e+01   4.720351e+05   3.569235e+05   1.018436e+06  -5.017608e+01   6.635839e+01  -6.687387e-20   1.177889e+06   2.312971e-38   0.000000e+00   0.000000e+00
     1784000   1.783999e-05   8.521108e+00   2.039738e+01   3.781522e+01   4.720351e+05   3.569235e+05   1.018436e+06  -6.345012e+01   8.391345e+01  -2.685364e-20   1.177889e+06   3.698478e-38   0.000000e+00   0.000000e+00
     1792000   1.791999e-05   8.558870e+00   2.042593e+01   3.789670e+01   4.720351e+05   3.569235e+05   1.018436e+06  -2.364765e+01   3.127427e+01   1.761157e-20   1.177889e+06   5.139153e-39   0.000000e+00   0.000000e+00
     1800000   1.799999e-05   8.596633e+00   2.045449e+01   3.797817e+01   4.720351e+05   3.569235e+05   1.018436e+06  -7.375288e+01   9.753895e+01  -3.281401e-20   1.177889e+06   4.996924e-38   0.000000e+00   0.000000e+00
     1808000   1.807999e-05   8.634396e+00   2.048304e+01   3.805965e+01   4.720351e+05   3.569235e+05   1.018436e+06  -5.378238e+01   7.112776e+01   7.573419e-21   1.177889e+06   2.657260e-38   0.000000e+00   0.000000e+00
     1816000   1.815999e-05   8.672159e+00   2.051159e+01   3.814112e+01   4.720351e+05   3.569235e+05   1.018436e+06  -3.489288e+01   4.614620e+01  -2.313317e-20   1.177889e+06   1.118639e-38   0.000000e+00   0.000000e+00
     1824000   1.823999e-05   8.709922e+00   2.054015e+01   3.822260e+01   4.720351e+05   3.569235e+05   1.018436e+06  -4.675685e+01   6.183642e+01  -4.146588e-20   1.177889e+06   2.008726e-38   0.000000e+00   0.000000e+00
     1832000   1.831999e-05   8.747684e+00   2.056870e+01   3.830407e+01   4.720351e+05   3.569235e+05   1.018436e+06  -5.579093e+01   7.378409e+01   2.932025e-20   1.177889e+06   2.859253e-38   0.000000e+00   0.000000e+00
     1840000   1.839999e-05   8.785447e+00   2.059726e+01   3.838555e+01   4.720351e+05   3.569235e+05   1.018436e+06  -8.475953e+01   1.120954e+02   7.935682e-20   1.177889e+06   6.599662e-38   0.000000e+00   0.000000e+00
     1848000   1.847999e-05   8.823210e+00   2.062581e+01   3.846702e+01   4.720351e+05   3.569235e+05   1.018436e+06  -6.383829e+01   8.442680e+01   2.197494e-20   1.177889e+06   3.743993e-38   0.000000e+00   0.000000e+00
     1856000   1.855999e-05   8.860973e+00   2.065436e+01   3.854850e+01   4.720351e+05   3.569235e+05   1.018436e+06  -4.014744e+01   5.309540e+01  -5.807129e-21   1.177889e+06   1.480979e-38   0.000000e+00   0.000000e+00
     1864000   1.863999e-05   8.898736e+00   2.068292e+01   3.862997e+01   4.720351e+05   3.569235e+05   1.018436e+06  -6.050562e+01   8.001931e+01   2.743730e-20   1.177889e+06   3.363283e-38   0.000000e+00   0.000000e+00
     1872000   1.871999e-05   8.936498e+00   2.071147e+01   3.871145e+01   4.720351e+05   3.569235e+05   1.018436e+06  -5.828147e+01   7.707785e+01  -3.859692e-21   1.177889e+06   3.120607e-38   0.000000e+00   0.000000e+00
     1880000   1.879999e-05   8.974261e+00   2.074003e+01   3.879292e+01   4.720351e+05   3.569235e+05   1.018436e+06  -6.020877e+01   7.962673e+01   1.620440e-20   1.177889e+06   3.330410e-38   0.000000e+00   0.000000e+00
     1888000   1.887999e-05   9.012024e+00   2.076858e+01   3.887440e+01   4.720351e+05   3.569235e+05   1.018436e+06  -5.763422e+01   7.622186e+01  -2.261764e-20   1.177889e+06   3.051727e-38   0.000000e+00   0.000000e+00
     1896000   1.895999e-05   9.049787e+00   2.079713e+01   3.895587e+01   4.720351e+05   3.569235e+05   1.018436e+06  -3.359249e+01   4.442642e+01  -2.077101e-20   1.177889e+06   1.036854e-38   0.000000e+00   0.000000e+00
     1904000   1.903999e-05   9.087550e+00   2.082569e+01   3.903735e+01   4.720351e+05   3.569235e+05   1.018436e+06  -6.347522e+01   8.394664e+01   2.849108e-20   1.177889e+06   3.701581e-38   0.000000e+00   0.000000e+00
     1912000   1.911999e-05   9.125312e+00   2.085424e+01   3.911882e+01   4.720351e+05   3.569235e+05   1.018436e+06  -6.025558e+01   7.968863e+01   5.255296e-20   1.177889e+06   3.335682e-38   0.000000e+00   0.000000e+00
     1920000   1.919999e-05   9.163075e+00   2.088280e+01   3.920030e+01   4.720351e+05   3.569235e+05   1.018436e+06  -7.057976e+01   9.334246e+01   7.642907e-20   1.177889e+06   4.576483e-38   0.000000e+00   0.000000e+00
     1928000   1.927999e-05   9.200838e+00   2.091135e+01   3.928177e+01   4.720351e+05   3.569235e+05   1.018436e+06  -5.811906e+01   7.686306e+01  -5.777853e-20   1.177889e+06   3.102998e-38   0.000000e+00   0.000000e+00
     1936000   1.935999e-05   9.238601e+00   2.093990e+01   3.936324e+01   4.720351e+05   3.569235e+05   1.018436e+06  -6.029424e+01   7.973976e+01  -1.253274e-20   1.177889e+06   3.339881e-38   0.000000e+00   0.000000e+00
     1944000   1.943999e-05   9.276364e+00   2.096846e+01   3.944472e+01   4.720351e+05   3.569235e+05   1.018436e+06  -8.286604e+01   1.095912e+02   1.760476e-20   1.177889e+06   6.308246e-38   0.000000e+00   0.000000e+00
     1952000   1.951999e-05   9.314126e+00   2.099701e+01   3.952619e+01   4.720351e+05   3.569235e+05   1.018436e+06  -6.472182e+01   8.559528e+01  -3.924631e-20   1.177889e+06   3.848430e-38   0.000000e+00   0.000000e+00
     1960000   1.959999e-05   9.351889e+00   2.102556e+01   3.960767e+01   4.720351e+05   3.569235e+05   1.018436e+06  -6.480927e+01   8.571094e+01   2.656887e-20   1.177889e+06   3.859052e-38   0.000000e+00   0.000000e+00
     1968000   1.967999e-05   9.389652e+00   2.105412e+01   3.968914e+01   4.720351e+05   3.569235e+05   1.018436e+06  -5.010029e+01   6.625816e+01  -1.396282e-20   1.177889e+06   2.306185e-38   0.000000e+00   0.000000e+00
     1976000   1.975999e-05   9.427415e+00   2.108267e+01   3.977062e+01   4.720351e+05   3.569235e+05   1.018436e+06  -6.128179e+01   8.104581e+01  -1.190933e-19   1.177889e+06   3.450341e-38   0.000000e+00   0.000000e+00
     1984000   1.983999e-05   9.465178e+00   2.111123e+01   3.985209e+01   4.720351e+05   3.569235e+05   1.018436e+06  -6.989509e+01   9.243698e+01  -1.825392e-20   1.177889e+06   4.488284e-38   0.000000e+00   0.000000e+00
     1992000   1.991999e-05   9.502940e+00   2.113978e+01   3.993357e+01   4.720351e+05   3.569235e+05   1.018436e+06  -7.128070e+01   9.426947e+01  -1.899771e-20   1.177889e+06   4.667858e-38   0.000000e+00   0.000000e+00
     2000000   1.999999e-05   9.540703e+00   2.116833e+01   4.001504e+01   4.720351e+05   3.569235e+05   1.018436e+06  -7.778136e+01   1.028667e+02   1.108092e-19   1.177889e+06   5.558151e-38   0.000000e+00   0.000000e+00
     2008000   2.007999e-05   9.578466e+00   2.119689e+01   4.009652e+01   4.720351e+05   3.569235e+05   1.018436e+06  -7.944332e+01   1.050646e+02  -6.221923e-20   1.177889e+06   5.798214e-38   0.000000e+00   0.000000e+00
     2016000   2.015999e-05   9.616229e+00   2.122544e+01   4.017799e+01   4.720351e+05   3.569235e+05   1.018436e+06  -7.543293e+01   9.976083e+01  -1.012155e-19   1.177889e+06   5.227754e-38   0.000000e+00   0.000000e+00
     2024000   2.023999e-05   9.653992e+00   2.125400e+01   4.025947e+01   4.720351e+05   3.569235e+05   1.018436e+06  -7.141337e+01   9.444493e+01  -7.431691e-20   1.177889e+06   4.685389e-38   0.000000e+00   0.000000e+00
     2032000   2.031999e-05   9.691754e+00   2.128255e+01   4.034094e+01   4.720351e+05   3.569235e+05   1.018436e+06  -6.465037e+01   8.550079e+01   3.858141e-21   1.177889e+06   3.840053e-38   0.000000e+00   0.000000e+00
     2040000   2.039999e-05   9.729517e+00   2.131110e+01   4.042242e+01   4.720351e+05   3.569235e+05   1.018436e+06  -8.840500e+01   1.169165e+02   1.329574e-19   1.177889e+06   7.180194e-38   0.000000e+00   0.000000e+00
     2048000   2.047999e-05   9.767280e+00   2.133966e+01   4.050389e+01   4.720351e+05   3.569235e+05   1.018436e+06  -8.307714e+01   1.098704e+02   8.158902e-20   1.177889e+06   6.340986e-38   0.000000e+00   0.000000e+00
     2056000   2.055999e-05   9.805043e+00   2.136821e+01   4.058537e+01   4.720351e+05   3.569235e+05   1.018436e+06  -8.081714e+01   1.068815e+02   2.984994e-20   1.177889e+06   6.000536e-38   0.000000e+00   0.000000e+00
     2064000   2.063999e-05   9.842806e+00   2.139677e+01   4.066684e+01   4.720351e+05   3.569235e+05   1.018436e+06  -7.670963e+01   1.014493e+02  -7.908792e-20   1.177889e+06   5.406236e-38   0.000000e+00   0.000000e+00
     2072000   2.071999e-05   9.880569e+00   2.142532e+01   4.074832e+01   4.720351e+05   3.569235e+05   1.018436e+06  -9.551454e+01   1.263190e+02  -6.920127e-20   1.177889e+06   8.381069e-38   0.000000e+00   0.000000e+00
     2080000   2.079999e-05   9.918331e+00   2.145387e+01   4.082979e+01   4.720351e+05   3.569235e+05   1.018436e+06  -9.105295e+01   1.204185e+02  -3.642512e-20   1.177889e+06   7.616962e-38   0.000000e+00   0.000000e+00
     2088000   2.087999e-05   9.956094e+00   2.148243e+01   4.091127e+01   4.720351e+05   3.569235e+05   1.018436e+06  -9.107914e+01   1.204531e+02   2.730158e-20   1.177889e+06   7.621118e-38   0.000000e+00   0.000000e+00
     2096000   2.095999e-05   9.993857e+00   2.151098e+01   4.099274e+01   4.720351e+05   3.569235e+05   1.018436e+06  -8.303002e+01   1.098081e+02  -2.016445e-19   1.177889e+06   6.333885e-38   0.000000e+00   0.000000e+00
     2104000   2.103999e-05   1.003162e+01   2.153953e+01   4.107422e+01   4.720351e+05   3.569235e+05   1.018436e+06  -8.847525e+01   1.170094e+02   7.650716e-20   1.177889e+06   7.191548e-38   0.000000e+00   0.000000e+00
     2112000   2.111999e-05   1.006938e+01   2.156809e+01   4.115569e+01   4.720351e+05   3.569235e+05   1.018436e+06  -8.949107e+01   1.183529e+02  -1.707705e-20   1.177889e+06   7.357689e-38   0.000000e+00   0.000000e+00
     2120000   2.119999e-05   1.010715e+01   2.159664e+01   4.123717e+01   4.720351e+05   3.569235e+05   1.018436e+06  -1.070703e+02   1.416016e+02  -1.078959e-20   1.177889e+06   1.053209e-37   0.000000e+00   0.000000e+00
     2128000   2.127999e-05   1.014491e+01   2.162520e+01   4.131864e+01   4.720351e+05   3.569235e+05   1.018436e+06  -9.448511e+01   1.249575e+02   1.178328e-19   1.177889e+06   8.201998e-38   0.000000e+00   0.000000e+00
     2136000   2.135999e-05   1.018267e+01   2.165375e+01   4.140012e+01   4.720351e+05   3.569235e+05   1.018436e+06  -9.684727e+01   1.280815e+02  -3.707006e-20   1.177889e+06   8.617127e-38   0.000000e+00   0.000000e+00
     2144000   2.143999e-05   1.022043e+01   2.168230e+01   4.148159e+01   4.720351e+05   3.569235e+05   1.018436e+06  -8.392702e+01   1.109944e+02   4.951171e-21   1.177889e+06   6.471505e-38   0.000000e+00   0.000000e+00
     2152000   2.151999e-05   1.025820e+01   2.171086e+01   4.156307e+01   4.720351e+05   3.569235e+05   1.018436e+06  -1.157754e+02   1.531141e+02   3.252433e-20   1.177889e+06   1.231399e-37   0.000000e+00   0.000000e+00
     2160000   2.159999e-05   1.029596e+01   2.173941e+01   4.164454e+01   4.720351e+05   3.569235e+05   1.018436e+06  -1.290653e+02   1.706901e+02   5.403084e-20   1.177889e+06   1.530326e-37   0.000000e+00   0.000000e+00
     2168000   2.167999e-05   1.033372e+01   2.176797e+01   4.172602e+01   4.720351e+05   3.569235e+05   1.018436e+06  -1.045156e+02   1.382229e+02   1.086444e-19   1.177889e+06   1.003615e-37   0.000000e+00   0.000000e+00
     2176000   2.175999e-05   1.037148e+01   2.179652e+01   4.180749e+01   4.720351e+05   3.569235e+05   1.018436e+06  -9.424762e+01   1.246435e+02  -2.562784e-20   1.177889e+06   8.160585e-38   0.000000e+00   0.000000e+00
     2184000   2.183999e-05   1.040925e+01   2.182507e+01   4.188897e+01   4.720351e+05   3.569235e+05   1.018436e+06  -1.035282e+02   1.369171e+02   9.377348e-20   1.177889e+06   9.846565e-38   0.000000e+00   0.000000e+00
     2192000   2.191999e-05   1.044701e+01   2.185363e+01   4.197044e+01   4.720351e+05   3.569235e+05   1.018436e+06  -1.223133e+02   1.617607e+02   2.880022e-20   1.177889e+06   1.374393e-37   0.000000e+00   0.000000e+00
     2200000   2.199999e-05   1.048477e+01   2.188218e+01   4.205192e+01   4.720351e+05   3.569235e+05   1.018436e+06  -1.407870e+02   1.861923e+02  -8.530040e-20   1.177889e+06   1.820942e-37   0.000000e+00   0.000000e+00
     2208000   2.207999e-05   1.052254e+01   2.191073e+01   4.213339e+01   4.720351e+05   3.569235e+05   1.018436e+06  -1.251593e+02   1.655245e+02   1.017060e-19   1.177889e+06   1.439248e-37   0.000000e+00   0.000000e+00
     2216000   2.215999e-05   1.056030e+01   2.193929e+01   4.221486e+01   4.720351e+05   3.569235e+05   1.018436e+06  -1.091940e+02   1.444102e+02   4.073021e-20   1.177889e+06   1.095396e-37   0.000000e+00   0.000000e+00
     2224000   2.223999e-05   1.059806e+01   2.196784e+01   4.229634e+01   4.720351e+05   3.569235e+05   1.018436e+06  -1.172301e+02   1.550380e+02   5.065851e-21   1.177889e+06   1.262561e-37   0.000000e+00   0.000000e+00
     2232000   2.231999e-05   1.063582e+01   2.199640e+01   4.237781e+01   4.720351e+05   3.569235e+05   1.018436e+06  -9.812224e+01   1.297677e+02   1.246801e-19   1.177889e+06   8.845790e-38   0.000000e+00   0.000000e+00
     2240000   2.239999e-05   1.067359e+01   2.202495e+01   4.245929e+01   4.720351e+05   3.569235e+05   1.018436e+06  -1.273180e+02   1.683794e+02  -1.275715e-19   1.177889e+06   1.489231e-37   0.000000e+00   0.000000e+00
     2248000   2.247999e-05   1.071135e+01   2.205350e+01   4.254076e+01   4.720351e+05   3.569235e+05   1.018436e+06  -1.425468e+02   1.885197e+02  -7.150316e-20   1.177889e+06   1.866733e-37   0.000000e+00   0.000000e+00
     2256000   2.255999e-05   1.074911e+01   2.208206e+01   4.262224e+01   4.720351e+05   3.569235e+05   1.018436e+06  -1.302064e+02   1.721993e+02  -5.142785e-20   1.177889e+06   1.557580e-37   0.000000e+00   0.000000e+00
     2264000   2.263999e-05   1.078688e+01   2.211061e+01   4.270371e+01   4.720351e+05   3.569235e+05   1.018436e+06  -1.261275e+02   1.668049e+02   4.225577e-22   1.177889e+06   1.461591e-37   0.000000e+00   0.000000e+00
     2272000   2.271999e-05   1.082464e+01   2.213917e+01   4.278519e+01   4.720351e+05   3.569235e+05   1.018436e+06  -1.314424e+02   1.738340e+02  -1.271147e-19   1.177889e+06   1.587265e-37   0.000000e+00   0.000000e+00
     2280000   2.279999e-05   1.086240e+01   2.216772e+01   4.286666e+01   4.720351e+05   3.569235e+05   1.018436e+06  -1.218604e+02   1.611617e+02   8.337142e-20   1.177889e+06   1.364325e-37   0.000000e+00   0.000000e+00
     2288000   2.287999e-05   1.090016e+01   2.219627e+01   4.294814e+01   4.720351e+05   3.569235e+05   1.018436e+06  -1.458685e+02   1.929126e+02   2.523152e-19   1.177889e+06   1.954731e-37   0.000000e+00   0.000000e+00
     2296000   2.295999e-05   1.093793e+01   2.222483e+01   4.302961e+01   4.720351e+05   3.569235e+05   1.018436e+06  -1.413733e+02   1.869677e+02   5.785337e-20   1.177889e+06   1.836220e-37   0.000000e+00   0.000000e+00
     2304000   2.303999e-05   1.097569e+01   2.225338e+01   4.311109e+01   4.720351e+05   3.569235e+05   1.018436e+06  -1.505051e+02   1.990446e+02  -4.936404e-20   1.177889e+06   2.081021e-37   0.000000e+00   0.000000e+00
     2312000   2.311999e-05   1.101345e+01   2.228194e+01   4.319256e+01   4.720351e+05   3.569235e+05   1.018436e+06  -1.451675e+02   1.919855e+02  -3.088285e-20   1.177889e+06   1.936053e-37   0.000000e+00   0.000000e+00
     2320000   2.319999e-05   1.105122e+01   2.231049e+01   4.327404e+01   4.720351e+05   3.569235e+05   1.018436e+06  -1.414629e+02   1.870862e+02   4.035341e-21   1.177889e+06   1.838527e-37   0.000000e+00   0.000000e+00
     2328000   2.327999e-05   1.108898e+01   2.233904e+01   4.335551e+01   4.720351e+05   3.569235e+05   1.018436e+06  -1.426172e+02   1.886128e+02   9.853425e-20   1.177889e+06   1.868644e-37   0.000000e+00   0.000000e+00
     2336000   2.335999e-05   1.112674e+01   2.236760e+01   4.343699e+01   4.720351e+05   3.569235e+05   1.018436e+06  -1.712349e+02   2.264600e+02  -6.046771e-21   1.177889e+06   2.693710e-37   0.000000e+00   0.000000e+00
     2344000   2.343999e-05   1.116450e+01   2.239615e+01   4.351846e+01   4.720351e+05   3.569235e+05   1.018436e+06  -1.858160e+02   2.457436e+02  -6.442650e-20   1.177889e+06   3.172047e-37   0.000000e+00   0.000000e+00
     2352000   2.351999e-05   1.120227e+01   2.242470e+01   4.359994e+01   4.720351e+05   3.569235e+05   1.018436e+06  -1.571000e+02   2.077664e+02  -7.219269e-20   1.177889e+06   2.267382e-37   0.000000e+00   0.000000e+00
     2360000   2.359999e-05   1.124003e+01   2.245326e+01   4.368141e+01   4.720351e+05   3.569235e+05   1.018436e+06  -1.447806e+02   1.914739e+02  -9.851068e-21   1.177889e+06   1.925784e-37   0.000000e+00   0.000000e+00
     2368000   2.367999e-05   1.127779e+01   2.248181e+01   4.376289e+01   4.720351e+05   3.569235e+05   1.018436e+06  -1.721741e+02   2.277021e+02   5.149674e-21   1.177889e+06   2.723383e-37   0.000000e+00   0.000000e+00
     2376000   2.375999e-05   1.131556e+01   2.251037e+01   4.384436e+01   4.720351e+05   3.569235e+05   1.018436e+06  -1.713208e+02   2.265736e+02  -2.013064e-19   1.177889e+06   2.696422e-37   0.000000e+00   0.000000e+00
     2384000   2.383999e-05   1.135332e+01   2.253892e+01   4.392584e+01   4.720351e+05   3.569235e+05   1.018436e+06  -1.642024e+02   2.171594e+02   1.340082e-19   1.177889e+06   2.477112e-37   0.000000e+00   0.000000e+00
     2392000   2.391999e-05   1.139108e+01   2.256747e+01   4.400731e+01   4.720351e+05   3.569235e+05   1.018436e+06  -2.018033e+02   2.668870e+02   1.183471e-19   1.177889e+06   3.741332e-37   0.000000e+00   0.000000e+00
     2400000   2.399999e-05   1.142884e+01   2.259603e+01   4.408879e+01   4.720351e+05   3.569235e+05   1.018436e+06  -1.388175e+02   1.835877e+02   1.280206e-19   1.177889e+06   1.770498e-37   0.000000e+00   0.000000e+00
     2408000   2.407999e-05   1.146661e+01   2.262458e+01   4.417026e+01   4.720351e+05   3.569235e+05   1.018436e+06  -1.750175e+02   2.314624e+02   1.574268e-19   1.177889e+06   2.814147e-37   0.000000e+00   0.000000e+00
     2416000   2.415999e-05   1.150437e+01   2.265314e+01   4.425174e+01   4.720351e+05   3.569235e+05   1.018436e+06  -1.839773e+02   2.433118e+02   4.889289e-20   1.177889e+06   3.109536e-37   0.000000e+00   0.000000e+00
     2424000   2.423999e-05   1.154213e+01   2.268169e+01   4.433321e+01   4.720351e+05   3.569235e+05   1.018436e+06  -1.641018e+02   2.170264e+02  -3.889975e-20   1.177889e+06   2.474115e-37   0.000000e+00   0.000000e+00
     2432000   2.431999e-05   1.157989e+01   2.271024e+01   4.441469e+01   4.720351e+05   3.569235e+05   1.018436e+06  -1.802840e+02   2.384275e+02   6.519586e-20   1.177889e+06   2.986068e-37   0.000000e+00   0.000000e+00
     2440000   2.439999e-05   1.161766e+01   2.273880e+01   4.449616e+01   4.720351e+05   3.569235e+05   1.018436e+06  -1.972571e+02   2.608745e+02  -7.716968e-20   1.177889e+06   3.574678e-37   0.000000e+00   0.000000e+00
     2448000   2.447999e-05   1.165542e+01   2.276735e+01   4.457764e+01   4.720351e+05   3.569235e+05   1.018436e+06  -1.975146e+02   2.612151e+02  -3.837904e-20   1.177889e+06   3.584091e-37   0.000000e+00   0.000000e+00
     2456000   2.455999e-05   1.169318e+01   2.279591e+01   4.465911e+01   4.720351e+05   3.569235e+05   1.018436e+06  -2.136979e+02   2.826177e+02  -4.853266e-20   1.177889e+06   4.195396e-37   0.000000e+00   0.000000e+00
     2464000   2.463999e-05   1.173095e+01   2.282446e+01   4.474059e+01   4.720351e+05   3.569235e+05   1.018436e+06  -2.046739e+02   2.706833e+02   3.476279e-19   1.177889e+06   3.848569e-37   0.000000e+00   0.000000e+00
     2472000   2.471999e-05   1.176871e+01   2.285301e+01   4.482206e+01   4.720351e+05   3.569235e+05   1.018436e+06  -2.060383e+02   2.724879e+02   9.064324e-20   1.177889e+06   3.900127e-37   0.000000e+00   0.000000e+00
     2480000   2.479999e-05   1.180647e+01   2.288157e+01   4.490354e+01   4.720351e+05   3.569235e+05   1.018436e+06  -2.071758e+02   2.739921e+02   1.767736e-19   1.177889e+06   3.943169e-37   0.000000e+00   0.000000e+00
     2488000   2.487999e-05   1.184423e+01   2.291012e+01   4.498501e+01   4.720351e+05   3.569235e+05   1.018436e+06  -2.059005e+02   2.723056e+02  -3.262057e-20   1.177889e+06   3.894914e-37   0.000000e+00   0.000000e+00
     2496000   2.495999e-05   1.188200e+01   2.293867e+01   4.506649e+01   4.720351e+05   3.569235e+05   1.018436e+06  -2.327404e+02   3.078016e+02   2.601078e-19   1.177889e+06   4.976366e-37   0.000000e+00   0.000000e+00
     2504000   2.503999e-05   1.191976e+01   2.296723e+01   4.514796e+01   4.720351e+05   3.569235e+05   1.018436e+06  -2.315830e+02   3.062709e+02  -2.867181e-19   1.177889e+06   4.927152e-37   0.000000e+00   0.000000e+00
     2512000   2.511999e-05   1.195752e+01   2.299578e+01   4.522943e+01   4.720351e+05   3.569235e+05   1.018436e+06  -2.612697e+02   3.455319e+02  -5.474300e-19   1.177889e+06   6.271171e-37   0.000000e+00   0.000000e+00
     2520000   2.519999e-05   1.199529e+01   2.302434e+01   4.531091e+01   4.720351e+05   3.569235e+05   1.018436e+06  -2.280921e+02   3.016542e+02  -2.428560e-19   1.177889e+06   4.779736e-37   0.000000e+00   0.000000e+00
     2528000   2.527999e-05   1.203305e+01   2.305289e+01   4.539238e+01   4.720351e+05   3.569235e+05   1.018436e+06  -2.320448e+02   3.068816e+02   4.240617e-20   1.177889e+06   4.946816e-37   0.000000e+00   0.000000e+00
     2536000   2.535999e-05   1.207081e+01   2.308144e+01   4.547386e+01   4.720351e+05   3.569235e+05   1.018436e+06  -2.360755e+02   3.122123e+02   4.857572e-20   1.177889e+06   5.120133e-37   0.000000e+00   0.000000e+00
     2544000   2.543999e-05   1.210857e+01   2.311000e+01   4.555533e+01   4.720351e+05   3.569235e+05   1.018436e+06  -2.487911e+02   3.290288e+02   4.905746e-20   1.177889e+06   5.686536e-37   0.000000e+00   0.000000e+00
     2552000   2.551999e-05   1.214634e+01   2.313855e+01   4.563681e+01   4.720351e+05   3.569235e+05   1.018436e+06  -2.447776e+02   3.237210e+02  -1.121647e-19   1.177889e+06   5.504646e-37   0.000000e+00   0.000000e+00
     2560000   2.559999e-05   1.218410e+01   2.316711e+01   4.571828e+01   4.720351e+05   3.569235e+05   1.018436e+06  -2.490907e+02   3.294251e+02   1.106033e-19   1.177889e+06   5.700242e-37   0.000000e+00   0.000000e+00
     2568000   2.567999e-05   1.222186e+01   2.319566e+01   4.579976e+01   4.720351e+05   3.569235e+05   1.018436e+06  -2.526519e+02   3.341347e+02  -1.285602e-19   1.177889e+06   5.864374e-37   0.000000e+00   0.000000e+00
     2576000   2.575999e-05   1.225963e+01   2.322421e+01   4.588123e+01   4.720351e+05   3.569235e+05   1.018436e+06  -2.603830e+02   3.443593e+02   1.934477e-20   1.177889e+06   6.228790e-37   0.000000e+00   0.000000e+00
     2584000   2.583999e-05   1.229739e+01   2.325277e+01   4.596271e+01   4.720351e+05   3.569235e+05   1.018436e+06  -2.842686e+02   3.759481e+02   2.743396e-19   1.177889e+06   7.423894e-37   0.000000e+00   0.000000e+00
     2592000   2.591999e-05   1.233515e+01   2.328132e+01   4.604418e+01   4.720351e+05   3.569235e+05   1.018436e+06  -2.522533e+02   3.336076e+02  -1.671753e-19   1.177889e+06   5.846006e-37   0.000000e+00   0.000000e+00
     2600000   2.599999e-05   1.237291e+01   2.330988e+01   4.612566e+01   4.720351e+05   3.569235e+05   1.018436e+06  -2.763908e+02   3.655298e+02   3.784117e-19   1.177889e+06   7.018191e-37   0.000000e+00   0.000000e+00
     2608000   2.607999e-05   1.241068e+01   2.333843e+01   4.620713e+01   4.720351e+05   3.569235e+05   1.018436e+06  -2.824204e+02   3.735039e+02  -2.185575e-19   1.177889e+06   7.327846e-37   0.000000e+00   0.000000e+00
     2616000   2.615999e-05   1.244844e+01   2.336698e+01   4.628861e+01   4.720351e+05   3.569235e+05   1.018436e+06  -2.756480e+02   3.645473e+02   2.246427e-19   1.177889e+06   6.980618e-37   0.000000e+00   0.000000e+00
     2624000   2.623999e-05   1.248620e+01   2.339554e+01   4.637008e+01   4.720351e+05   3.569235e+05   1.018436e+06  -2.975440e+02   3.935050e+02  -3.491815e-19   1.177889e+06   8.133563e-37   0.000000e+00   0.000000e+00
     2632000   2.631999e-05   1.252396e+01   2.342409e+01   4.645156e+01   4.720351e+05   3.569235e+05   1.018436e+06  -2.909544e+02   3.847902e+02   7.989455e-20   1.177889e+06   7.777207e-37   0.000000e+00   0.000000e+00
     2640000   2.639999e-05   1.256173e+01   2.345264e+01   4.653303e+01   4.720351e+05   3.569235e+05   1.018436e+06  -2.914154e+02   3.853999e+02  -5.554965e-20   1.177889e+06   7.802023e-37   0.000000e+00   0.000000e+00
     2648000   2.647999e-05   1.259949e+01   2.348120e+01   4.661451e+01   4.720351e+05   3.569235e+05   1.018436e+06  -3.158419e+02   4.177042e+02  -2.095827e-19   1.177889e+06   9.164607e-37   0.000000e+00   0.000000e+00
     2656000   2.655999e-05   1.263725e+01   2.350975e+01   4.669598e+01   4.720351e+05   3.569235e+05   1.018436e+06  -3.086966e+02   4.082544e+02  -3.555490e-19   1.177889e+06   8.754761e-37   0.000000e+00   0.000000e+00
     2664000   2.663999e-05   1.267502e+01   2.353831e+01   4.677746e+01   4.720351e+05   3.569235e+05   1.018436e+06  -3.223990e+02   4.263761e+02   4.592703e-19   1.177889e+06   9.549172e-37   0.000000e+00   0.000000e+00
     2672000   2.671999e-05   1.271278e+01   2.356686e+01   4.685893e+01   4.720351e+05   3.569235e+05   1.018436e+06  -3.231195e+02   4.273288e+02  -1.215299e-19   1.177889e+06   9.591942e-37   0.000000e+00   0.000000e+00
     2680000   2.679999e-05   1.275054e+01   2.359541e+01   4.694041e+01   4.720351e+05   3.569235e+05   1.018436e+06  -3.132007e+02   4.142112e+02   6.156029e-20   1.177889e+06   9.012207e-37   0.000000e+00   0.000000e+00
     2688000   2.687999e-05   1.278830e+01   2.362397e+01   4.702188e+01   4.720351e+05   3.569235e+05   1.018436e+06  -3.271399e+02   4.326459e+02  -5.118035e-19   1.177889e+06   9.832124e-37   0.000000e+00   0.000000e+00
     2696000   2.695999e-05   1.282607e+01   2.365252e+01   4.710336e+01   4.720351e+05   3.569235e+05   1.018436e+06  -3.328555e+02   4.402048e+02   2.122705e-19   1.177889e+06   1.017856e-36   0.000000e+00   0.000000e+00
     2704000   2.703999e-05   1.286383e+01   2.368108e+01   4.718483e+01   4.720351e+05   3.569235e+05   1.018436e+06  -3.539448e+02   4.680957e+02   2.304701e-19   1.177889e+06   1.150923e-36   0.000000e+00   0.000000e+00
     2712000   2.711999e-05   1.290159e+01   2.370963e+01   4.726631e+01   4.720351e+05   3.569235e+05   1.018436e+06  -3.502452e+02   4.632029e+02   6.416357e-20   1.177889e+06   1.127002e-36   0.000000e+00   0.000000e+00
     2720000   2.719999e-05   1.293936e+01   2.373818e+01   4.734778e+01   4.720351e+05   3.569235e+05   1.018436e+06  -3.463970e+02   4.581136e+02  -2.287723e-19   1.177889e+06   1.102380e-36   0.000000e+00   0.000000e+00
     2728000   2.727999e-05   1.297712e+01   2.376674e+01   4.742926e+01   4.720351e+05   3.569235e+05   1.018436e+06  -3.521031e+02   4.656600e+02  -1.148793e-20   1.177889e+06   1.138990e-36   0.000000e+00   0.000000e+00
     2736000   2.735999e-05   1.301488e+01   2.379529e+01   4.751073e+01   4.720351e+05   3.569235e+05   1.018436e+06  -3.636721e+02   4.809601e+02  -3.292576e-20   1.177889e+06   1.215060e-36   0.000000e+00   0.000000e+00
     2744000   2.743999e-05   1.305264e+01   2.382384e+01   4.759221e+01   4.720351e+05   3.569235e+05   1.018436e+06  -3.732620e+02   4.936428e+02  -1.864455e-20   1.177889e+06   1.279987e-36   0.000000e+00   0.000000e+00
     2752000   2.751999e-05   1.309041e+01   2.385240e+01   4.767368e+01   4.720351e+05   3.569235e+05   1.018436e+06  -3.596466e+02   4.756364e+02  -7.371796e-20   1.177889e+06   1.188327e-36   0.000000e+00   0.000000e+00
     2760000   2.759999e-05   1.312817e+01   2.388095e+01   4.775516e+01   4.720351e+05   3.569235e+05   1.018436e+06  -3.927968e+02   5.194779e+02   1.866747e-19   1.177889e+06   1.417468e-36   0.000000e+00   0.000000e+00
     2768000   2.767999e-05   1.316593e+01   2.390951e+01   4.783663e+01   4.720351e+05   3.569235e+05   1.018436e+06  -3.856893e+02   5.100781e+02   8.715106e-19   1.177889e+06   1.366657e-36   0.000000e+00   0.000000e+00
     2776000   2.775999e-05   1.320370e+01   2.393806e+01   4.791811e+01   4.720351e+05   3.569235e+05   1.018436e+06  -3.957322e+02   5.233600e+02  -8.231796e-19   1.177889e+06   1.438731e-36   0.000000e+00   0.000000e+00
     2784000   2.783999e-05   1.324146e+01   2.396661e+01   4.799958e+01   4.720351e+05   3.569235e+05   1.018436e+06  -4.139803e+02   5.474933e+02  -8.325807e-20   1.177889e+06   1.574477e-36   0.000000e+00   0.000000e+00
     2792000   2.791999e-05   1.327922e+01   2.399517e+01   4.808106e+01   4.720351e+05   3.569235e+05   1.018436e+06  -4.196554e+02   5.549986e+02  -4.129882e-20   1.177889e+06   1.617945e-36   0.000000e+00   0.000000e+00
     2800000   2.799999e-05   1.331698e+01   2.402372e+01   4.816253e+01   4.720351e+05   3.569235e+05   1.018436e+06  -4.163243e+02   5.505932e+02  -2.415702e-19   1.177889e+06   1.592364e-36   0.000000e+00   0.000000e+00
     2808000   2.807999e-05   1.335475e+01   2.405228e+01   4.824400e+01   4.720351e+05   3.569235e+05   1.018436e+06  -4.134792e+02   5.468306e+02   9.703087e-19   1.177889e+06   1.570687e-36   0.000000e+00   0.000000e+00
     2816000   2.815999e-05   1.339251e+01   2.408083e+01   4.832548e+01   4.720351e+05   3.569235e+05   1.018436e+06  -4.306910e+02   5.695933e+02  -1.110668e-19   1.177889e+06   1.704161e-36   0.000000e+00   0.000000e+00
     2824000   2.823999e-05   1.343027e+01   2.410938e+01   4.840695e+01   4.720351e+05   3.569235e+05   1.018436e+06  -4.427105e+02   5.854893e+02  -2.163121e-19   1.177889e+06   1.800616e-36   0.000000e+00   0.000000e+00
     2832000   2.831999e-05   1.346803e+01   2.413794e+01   4.848843e+01   4.720351e+05   3.569235e+05   1.018436e+06  -4.442736e+02   5.875565e+02  -1.388980e-19   1.177889e+06   1.813353e-36   0.000000e+00   0.000000e+00
     2840000   2.839999e-05   1.350580e+01   2.416649e+01   4.856990e+01   4.720351e+05   3.569235e+05   1.018436e+06  -4.565909e+02   6.038462e+02  -2.184971e-19   1.177889e+06   1.915286e-36   0.000000e+00   0.000000e+00
     2848000   2.847999e-05   1.354356e+01   2.419505e+01   4.865138e+01   4.720351e+05   3.569235e+05   1.018436e+06  -4.524717e+02   5.983985e+02   5.359968e-19   1.177889e+06   1.880896e-36   0.000000e+00   0.000000e+00
     2856000   2.855999e-05   1.358132e+01   2.422360e+01   4.873285e+01   4.720351e+05   3.569235e+05   1.018436e+06  -4.743379e+02   6.273168e+02  -8.058416e-20   1.177889e+06   2.067074e-36   0.000000e+00   0.000000e+00
     2864000   2.863999e-05   1.361909e+01   2.425215e+01   4.881433e+01   4.720351e+05   3.569235e+05   1.018436e+06  -4.811653e+02   6.363461e+02  -1.049876e-19   1.177889e+06   2.126997e-36   0.000000e+00   0.000000e+00
     2872000   2.871999e-05   1.365685e+01   2.428071e+01   4.889580e+01   4.720351e+05   3.569235e+05   1.018436e+06  -4.961975e+02   6.562263e+02   1.041359e-18   1.177889e+06   2.261973e-36   0.000000e+00   0.000000e+00
     2880000   2.879999e-05   1.369461e+01   2.430926e+01   4.897728e+01   4.720351e+05   3.569235e+05   1.018436e+06  -4.711344e+02   6.230802e+02   7.494014e-19   1.177889e+06   2.039265e-36   0.000000e+00   0.000000e+00
     2888000   2.887999e-05   1.373237e+01   2.433781e+01   4.905875e+01   4.720351e+05   3.569235e+05   1.018436e+06  -4.872408e+02   6.443810e+02  -4.700025e-19   1.177889e+06   2.181069e-36   0.000000e+00   0.000000e+00
     2896000   2.895999e-05   1.377014e+01   2.436637e+01   4.914023e+01   4.720351e+05   3.569235e+05   1.018436e+06  -5.117002e+02   6.767288e+02  -4.175706e-19   1.177889e+06   2.405513e-36   0.000000e+00   0.000000e+00
     2904000   2.903999e-05   1.380790e+01   2.439492e+01   4.922170e+01   4.720351e+05   3.569235e+05   1.018436e+06  -5.223993e+02   6.908785e+02   1.505770e-19   1.177889e+06   2.507156e-36   0.000000e+00   0.000000e+00
     2912000   2.911999e-05   1.384566e+01   2.442348e+01   4.930318e+01   4.720351e+05   3.569235e+05   1.018436e+06  -5.173451e+02   6.841943e+02   7.825501e-19   1.177889e+06   2.458907e-36   0.000000e+00   0.000000e+00
     2920000   2.919999e-05   1.388343e+01   2.445203e+01   4.938465e+01   4.720351e+05   3.569235e+05   1.018436e+06  -5.180854e+02   6.851733e+02  -8.521157e-19   1.177889e+06   2.465949e-36   0.000000e+00   0.000000e+00
     2928000   2.927999e-05   1.392119e+01   2.448058e+01   4.946613e+01   4.720351e+05   3.569235e+05   1.018436e+06  -5.323529e+02   7.040422e+02   1.294728e-18   1.177889e+06   2.603636e-36   0.000000e+00   0.000000e+00
     2936000   2.935999e-05   1.395895e+01   2.450914e+01   4.954760e+01   4.720351e+05   3.569234e+05   1.018436e+06  -5.554972e+02   7.346511e+02  -3.923327e-19   1.177889e+06   2.834943e-36   0.000000e+00   0.000000e+00
     2944000   2.943999e-05   1.399671e+01   2.453769e+01   4.962908e+01   4.720352e+05   3.569197e+05   1.018437e+06   6.801460e+06  -1.918792e+08   6.409327e+07   1.177889e+06   1.368620e-25   0.000000e+00   0.000000e+00
     2952000   2.951999e-05   1.403448e+01   2.456625e+01   4.971055e+01   4.720356e+05   3.569079e+05   1.018441e+06   1.354714e+07  -4.342502e+08   1.459020e+08   1.177889e+06   7.018022e-25   0.000000e+00   0.000000e+00
     2960000   2.959999e-05   1.407224e+01   2.459480e+01   4.979203e+01   4.720372e+05   3.568576e+05   1.018458e+06   2.685231e+07  -8.239994e+08   2.762757e+08   1.177889e+06   2.526306e-24   0.000000e+00   0.000000e+00
     2968000   2.967999e-05   1.411000e+01   2.462334e+01   4.987351e+01   4.720380e+05   3.568293e+05   1.018467e+06   2.869533e+06  -1.436924e+08   4.901396e+07   1.177889e+06   7.710494e-26   0.000000e+00   0.000000e+00
     2976000   2.975999e-05   1.414777e+01   2.465189e+01   4.995498e+01   4.720380e+05   3.568270e+05   1.018468e+06   0.000000e+00   0.000000e+00   0.000000e+00   1.177889e+06   0.000000e+00   0.000000e+00   0.000000e+00
