     timestep     time              x             y              z              vx             vy             vz             ax             ay             az         v_magnitude      ELoss        Electronic      Nuclear
           0   0.000000e+00   1.000000e-01   1.325578e+01   7.003541e+00   7.721598e+05   1.960452e+05  -3.473239e+05   0.000000e+00   0.000000e+00   0.000000e+00   8.690790e+05   0.000000e+00   0.000000e+00   0.000000e+00
        8000   7.999000e-08   1.617728e-01   1.327146e+01   6.975755e+00   7.721598e+05   1.960452e+05  -3.473239e+05   0.000000e+00   0.000000e+00   0.000000e+00   8.690790e+05   0.000000e+00   0.000000e+00   0.000000e+00
       16000   1.599900e-07   2.235456e-01   1.328715e+01   6.947969e+00   7.721598e+05   1.960452e+05  -3.473239e+05   0.000000e+00   0.000000e+00   0.000000e+00   8.690790e+05   0.000000e+00   0.000000e+00   0.000000e+00
       24000   2.399900e-07   2.853183e-01   1.330283e+01   6.920183e+00   7.721598e+05   1.960452e+05  -3.473239e+05   0.000000e+00   0.000000e+00   0.000000e+00   8.690790e+05   0.000000e+00   0.000000e+00   0.000000e+00
       32000   3.199900e-07   3.470911e-01   1.331852e+01   6.892397e+00   7.721598e+05   1.960452e+05  -3.473239e+05   0.000000e+00   0.000000e+00   0.000000e+00   8.690790e+05   0.000000e+00   0.000000e+00   0.000000e+00
       40000   3.999900e-07   4.088639e-01   1.333420e+01   6.864611e+00   7.721598e+05   1.960452e+05  -3.473239e+05   0.000000e+00   0.000000e+00   0.000000e+00   8.690790e+05   0.000000e+00   0.000000e+00   0.000000e+00
       48000   4.799900e-07   4.706367e-01   1.334988e+01   6.836826e+00   7.721598e+05   1.960452e+05  -3.473239e+05   0.000000e+00   0.000000e+00   0.000000e+00   8.690790e+05   0.000000e+00   0.000000e+00   0.000000e+00
       56000   5.599900e-07   5.324095e-01   1.336557e+01   6.809040e+00   7.721598e+05   1.960452e+05  -3.473239e+05   0.000000e+00   0.000000e+00   0.000000e+00   8.690790e+05   0.000000e+00   0.000000e+00   0.000000e+00
       64000   6.399900e-07   5.941823e-01   1.338125e+01   6.781254e+00   7.721598e+05   1.960452e+05  -3.473239e+05   0.000000e+00   0.000000e+00   0.000000e+00   8.690790e+05   0.000000e+00   0.000000e+00   0.000000e+00
       72000   7.199900e-07   6.559550e-01   1.339693e+01   6.753468e+00   7.721598e+05   1.960452e+05  -3.473239e+05   0.000000e+00   0.000000e+00   0.000000e+00   8.690790e+05   0.000000e+00   0.000000e+00   0.000000e+00
       80000   7.999900e-07   7.177278e-01   1.341262e+01   6.725682e+00   7.721598e+05   1.960452e+05  -3.473239e+05   0.000000e+00   0.000000e+00   0.000000e+00   8.690790e+05   0.000000e+00   0.000000e+00   0.000000e+00
       88000   8.799900e-07   7.795006e-01   1.342830e+01   6.697896e+00   7.721598e+05   1.960452e+05  -3.473239e+05   0.000000e+00   0.000000e+00   0.000000e+00   8.690790e+05   0.000000e+00   0.000000e+00   0.000000e+00
       96000   9.599900e-07   8.412734e-01   1.344398e+01   6.670110e+00   7.721598e+05   1.960452e+05  -3.473239e+05   0.000000e+00   0.000000e+00   0.000000e+00   8.690790e+05   0.000000e+00   0.000000e+00   0.000000e+00
      104000   1.039990e-06   9.030462e-01   1.345967e+01   6.642324e+00   7.721598e+05   1.960452e+05  -3.473239e+05   0.000000e+00   0.000000e+00   0.000000e+00   8.690790e+05   0.000000e+00   0.000000e+00   0.000000e+00
      112000   1.119990e-06   9.648189e-01   1.347535e+01   6.614538e+00   7.721598e+05   1.960452e+05  -3.473239e+05   0.000000e+00   0.000000e+00   0.000000e+00   8.690790e+05   0.000000e+00   0.000000e+00   0.000000e+00
      120000   1.199990e-06   1.026592e+00   1.349104e+01   6.586752e+00   7.721598e+05   1.960452e+05  -3.473239e+05   0.000000e+00   0.000000e+00   0.000000e+00   8.690790e+05   0.000000e+00   0.000000e+00   0.000000e+00
      128000   1.279990e-06   1.088365e+00   1.350672e+01   6.558966e+00   7.721598e+05   1.960452e+05  -3.473239e+05   0.000000e+00   0.000000e+00   0.000000e+00   8.690790e+05   0.000000e+00   0.000000e+00   0.000000e+00
      136000   1.359990e-06   1.150137e+00   1.352240e+01   6.531181e+00   7.721598e+05   1.960452e+05  -3.473239e+05   0.000000e+00   0.000000e+00   0.000000e+00   8.690790e+05   0.000000e+00   0.000000e+00   0.000000e+00
      144000   1.439990e-06   1.211910e+00   1.353809e+01   6.503395e+00   7.721598e+05   1.960452e+05  -3.473239e+05   0.000000e+00   0.000000e+00   0.000000e+00   8.690790e+05   0.000000e+00   0.000000e+00   0.000000e+00
      152000   1.519990e-06   1.273683e+00   1.355377e+01   6.475609e+00   7.721598e+05   1.960452e+05  -3.473239e+05   0.000000e+00   0.000000e+00   0.000000e+00   8.690790e+05   0.000000e+00   0.000000e+00   0.000000e+00
      160000   1.599990e-06   1.335456e+00   1.356945e+01   6.447823e+00   7.721598e+05   1.960452e+05  -3.473239e+05   0.000000e+00   0.000000e+00   0.000000e+00   8.690790e+05   0.000000e+00   0.000000e+00   0.000000e+00
      168000   1.679990e-06   1.397228e+00   1.358514e+01   6.420037e+00   7.721598e+05   1.960452e+05  -3.473239e+05   0.000000e+00   0.000000e+00   0.000000e+00   8.690790e+05   0.000000e+00   0.000000e+00   0.000000e+00
      176000   1.759990e-06   1.459001e+00   1.360082e+01   6.392251e+00   7.721598e+05   1.960452e+05  -3.473239e+05   0.000000e+00   0.000000e+00   0.000000e+00   8.690790e+05   0.000000e+00   0.000000e+00   0.000000e+00
      184000   1.839990e-06   1.520774e+00   1.361650e+01   6.364465e+00   7.721598e+05   1.960452e+05  -3.473239e+05   0.000000e+00   0.000000e+00   0.000000e+00   8.690790e+05   0.000000e+00   0.000000e+00   0.000000e+00
      192000   1.919990e-06   1.582547e+00   1.363219e+01   6.336679e+00   7.721598e+05   1.960452e+05  -3.473239e+05   0.000000e+00   0.000000e+00   0.000000e+00   8.690790e+05   0.000000e+00   0.000000e+00   0.000000e+00
      200000   1.999990e-06   1.644320e+00   1.364787e+01   6.308893e+00   7.721598e+05   1.960452e+05  -3.473239e+05   0.000000e+00   0.000000e+00   0.000000e+00   8.690790e+05   0.000000e+00   0.000000e+00   0.000000e+00
      208000   2.079990e-06   1.706092e+00   1.366355e+01   6.281107e+00   7.721598e+05   1.960452e+05  -3.473239e+05   0.000000e+00   0.000000e+00   0.000000e+00   8.690790e+05   0.000000e+00   0.000000e+00   0.000000e+00
      216000   2.159990e-06   1.767865e+00   1.367924e+01   6.253321e+00   7.721598e+05   1.960452e+05  -3.473239e+05   0.000000e+00   0.000000e+00   0.000000e+00   8.690790e+05   0.000000e+00   0.000000e+00   0.000000e+00
      224000   2.239990e-06   1.829638e+00   1.369492e+01   6.225536e+00   7.721598e+05   1.960452e+05  -3.473239e+05   0.000000e+00   0.000000e+00   0.000000e+00   8.690790e+05   0.000000e+00   0.000000e+00   0.000000e+00
      232000   2.319990e-06   1.891411e+00   1.371061e+01   6.197750e+00   7.721598e+05   1.960452e+05  -3.473239e+05   0.000000e+00   0.000000e+00   0.000000e+00   8.690790e+05   0.000000e+00   0.000000e+00   0.000000e+00
      240000   2.399990e-06   1.953183e+00   1.372629e+01   6.169964e+00   7.721598e+05   1.960452e+05  -3.473239e+05   0.000000e+00   0.000000e+00   0.000000e+00   8.690790e+05   0.000000e+00   0.000000e+00   0.000000e+00
      248000   2.479990e-06   2.014956e+00   1.374197e+01   6.142178e+00   7.721598e+05   1.960452e+05  -3.473239e+05   0.000000e+00   0.000000e+00   0.000000e+00   8.690790e+05   0.000000e+00   0.000000e+00   0.000000e+00
      256000   2.559990e-06   2.076729e+00   1.375766e+01   6.114392e+00   7.721598e+05   1.960452e+05  -3.473239e+05   0.000000e+00   0.000000e+00   0.000000e+00   8.690790e+05   0.000000e+00   0.000000e+00   0.000000e+00
      264000   2.639990e-06   2.138502e+00   1.377334e+01   6.086606e+00   7.721598e+05   1.960452e+05  -3.473239e+05   0.000000e+00   0.000000e+00   0.000000e+00   8.690790e+05   0.000000e+00   0.000000e+00   0.000000e+00
      272000   2.719990e-06   2.200275e+00   1.378902e+01   6.058820e+00   7.721598e+05   1.960452e+05  -3.473239e+05   0.000000e+00   0.000000e+00   0.000000e+00   8.690790e+05   0.000000e+00   0.000000e+00   0.000000e+00
      280000   2.799990e-06   2.262047e+00   1.380471e+01   6.031034e+00   7.721598e+05   1.960452e+05  -3.473239e+05   0.000000e+00   0.000000e+00   0.000000e+00   8.690790e+05   0.000000e+00   0.000000e+00   0.000000e+00
      288000   2.879990e-06   2.323820e+00   1.382039e+01   6.003248e+00   7.721598e+05   1.960452e+05  -3.473239e+05   0.000000e+00   0.000000e+00   0.000000e+00   8.690790e+05   0.000000e+00   0.000000e+00   0.000000e+00
      296000   2.959990e-06   2.385593e+00   1.383607e+01   5.975462e+00   7.721598e+05   1.960452e+05  -3.473239e+05   0.000000e+00   0.000000e+00   0.000000e+00   8.690790e+05   0.000000e+00   0.000000e+00   0.000000e+00
      304000   3.039990e-06   2.447366e+00   1.385176e+01   5.947676e+00   7.721598e+05   1.960452e+05  -3.473239e+05   0.000000e+00   0.000000e+00   0.000000e+00   8.690790e+05   0.000000e+00   0.000000e+00   0.000000e+00
      312000   3.119990e-06   2.509138e+00   1.386744e+01   5.919891e+00   7.721598e+05   1.960452e+05  -3.473239e+05   0.000000e+00   0.000000e+00   0.000000e+00   8.690790e+05   0.000000e+00   0.000000e+00   0.000000e+00
      320000   3.199990e-06   2.570911e+00   1.388313e+01   5.892105e+00   7.721598e+05   1.960452e+05  -3.473239e+05   0.000000e+00   0.000000e+00   0.000000e+00   8.690790e+05   0.000000e+00   0.000000e+00   0.000000e+00
      328000   3.279990e-06   2.632684e+00   1.389881e+01   5.864319e+00   7.721598e+05   1.960452e+05  -3.473239e+05   0.000000e+00   0.000000e+00   0.000000e+00   8.690790e+05   0.000000e+00   0.000000e+00   0.000000e+00
      336000   3.359990e-06   2.694457e+00   1.391449e+01   5.836533e+00   7.721598e+05   1.960452e+05  -3.473239e+05   0.000000e+00   0.000000e+00   0.000000e+00   8.690790e+05   0.000000e+00   0.000000e+00   0.000000e+00
      344000   3.439990e-06   2.756230e+00   1.393018e+01   5.808747e+00   7.721598e+05   1.960452e+05  -3.473239e+05   0.000000e+00   0.000000e+00   0.000000e+00   8.690790e+05   0.000000e+00   0.000000e+00   0.000000e+00
      352000   3.519990e-06   2.818002e+00   1.394586e+01   5.780961e+00   7.721598e+05   1.960452e+05  -3.473239e+05   0.000000e+00   0.000000e+00   0.000000e+00   8.690790e+05   0.000000e+00   0.000000e+00   0.000000e+00
      360000   3.599990e-06   2.879775e+00   1.396154e+01   5.753175e+00   7.721598e+05   1.960452e+05  -3.473239e+05   0.000000e+00   0.000000e+00   0.000000e+00   8.690790e+05   0.000000e+00   0.000000e+00   0.000000e+00
      368000   3.679990e-06   2.941548e+00   1.397723e+01   5.725389e+00   7.721598e+05   1.960452e+05  -3.473239e+05   0.000000e+00   0.000000e+00   0.000000e+00   8.690790e+05   0.000000e+00   0.000000e+00   0.000000e+00
      376000   3.759990e-06   3.003321e+00   1.399291e+01   5.697603e+00   7.721598e+05   1.960452e+05  -3.473239e+05   0.000000e+00   0.000000e+00   0.000000e+00   8.690790e+05   0.000000e+00   0.000000e+00   0.000000e+00
      384000   3.839990e-06   3.065094e+00   1.400859e+01   5.669817e+00   7.721598e+05   1.960452e+05  -3.473239e+05   0.000000e+00   0.000000e+00   0.000000e+00   8.690790e+05   0.000000e+00   0.000000e+00   0.000000e+00
      392000   3.919990e-06   3.126866e+00   1.402428e+01   5.642031e+00   7.721598e+05   1.960452e+05  -3.473239e+05   0.000000e+00   0.000000e+00   0.000000e+00   8.690790e+05   0.000000e+00   0.000000e+00   0.000000e+00
      400000   3.999990e-06   3.188639e+00   1.403996e+01   5.614246e+00   7.721598e+05   1.960452e+05  -3.473239e+05   0.000000e+00   0.000000e+00   0.000000e+00   8.690790e+05   0.000000e+00   0.000000e+00   0.000000e+00
      408000   4.079990e-06   3.250412e+00   1.405565e+01   5.586460e+00   7.721598e+05   1.960452e+05  -3.473239e+05   0.000000e+00   0.000000e+00   0.000000e+00   8.690790e+05   0.000000e+00   0.000000e+00   0.000000e+00
      416000   4.159990e-06   3.312185e+00   1.407133e+01   5.558674e+00   7.721598e+05   1.960452e+05  -3.473239e+05   0.000000e+00   0.000000e+00   0.000000e+00   8.690790e+05   0.000000e+00   0.000000e+00   0.000000e+00
      424000   4.239990e-06   3.373957e+00   1.408701e+01   5.530888e+00   7.721598e+05   1.960452e+05  -3.473239e+05   0.000000e+00   0.000000e+00   0.000000e+00   8.690790e+05   0.000000e+00   0.000000e+00   0.000000e+00
      432000   4.319990e-06   3.435730e+00   1.410270e+01   5.503102e+00   7.721598e+05   1.960452e+05  -3.473239e+05   0.000000e+00   0.000000e+00   0.000000e+00   8.690790e+05   0.000000e+00   0.000000e+00   0.000000e+00
      440000   4.399990e-06   3.497503e+00   1.411838e+01   5.475316e+00   7.721598e+05   1.960452e+05  -3.473239e+05   0.000000e+00   0.000000e+00   0.000000e+00   8.690790e+05   0.000000e+00   0.000000e+00   0.000000e+00
      448000   4.479990e-06   3.559276e+00   1.413406e+01   5.447530e+00   7.721598e+05   1.960452e+05  -3.473239e+05   0.000000e+00   0.000000e+00   0.000000e+00   8.690790e+05   0.000000e+00   0.000000e+00   0.000000e+00
      456000   4.559990e-06   3.621049e+00   1.414975e+01   5.419744e+00   7.721598e+05   1.960452e+05  -3.473239e+05   0.000000e+00   0.000000e+00   0.000000e+00   8.690790e+05   0.000000e+00   0.000000e+00   0.000000e+00
      464000   4.639990e-06   3.682821e+00   1.416543e+01   5.391958e+00   7.721598e+05   1.960452e+05  -3.473239e+05   0.000000e+00   0.000000e+00   0.000000e+00   8.690790e+05   0.000000e+00   0.000000e+00   0.000000e+00
      472000   4.719990e-06   3.744594e+00   1.418111e+01   5.364172e+00   7.721598e+05   1.960452e+05  -3.473239e+05   0.000000e+00   0.000000e+00   0.000000e+00   8.690790e+05   0.000000e+00   0.000000e+00   0.000000e+00
      480000   4.799990e-06   3.806367e+00   1.419680e+01   5.336387e+00   7.721598e+05   1.960452e+05  -3.473239e+05   0.000000e+00   0.000000e+00   0.000000e+00   8.690790e+05   0.000000e+00   0.000000e+00   0.000000e+00
      488000   4.879990e-06   3.868140e+00   1.421248e+01   5.308601e+00   7.721598e+05   1.960452e+05  -3.473239e+05   0.000000e+00   0.000000e+00   0.000000e+00   8.690790e+05   0.000000e+00   0.000000e+00   0.000000e+00
      496000   4.959990e-06   3.929912e+00   1.422817e+01   5.280815e+00   7.721598e+05   1.960452e+05  -3.473239e+05   0.000000e+00   0.000000e+00   0.000000e+00   8.690790e+05   0.000000e+00   0.000000e+00   0.000000e+00
      504000   5.039990e-06   3.991685e+00   1.424385e+01   5.253029e+00   7.721598e+05   1.960452e+05  -3.473239e+05   0.000000e+00   0.000000e+00   0.000000e+00   8.690790e+05   0.000000e+00   0.000000e+00   0.000000e+00
      512000   5.119990e-06   4.053458e+00   1.425953e+01   5.225243e+00   7.721598e+05   1.960452e+05  -3.473239e+05   0.000000e+00   0.000000e+00   0.000000e+00   8.690790e+05   0.000000e+00   0.000000e+00   0.000000e+00
      520000   5.199990e-06   4.115231e+00   1.427522e+01   5.197457e+00   7.721598e+05   1.960452e+05  -3.473239e+05   0.000000e+00   0.000000e+00   0.000000e+00   8.690790e+05   0.000000e+00   0.000000e+00   0.000000e+00
      528000   5.279990e-06   4.177004e+00   1.429090e+01   5.169671e+00   7.721598e+05   1.960452e+05  -3.473239e+05   0.000000e+00   0.000000e+00   0.000000e+00   8.690790e+05   0.000000e+00   0.000000e+00   0.000000e+00
      536000   5.359990e-06   4.238776e+00   1.430658e+01   5.141885e+00   7.721598e+05   1.960452e+05  -3.473239e+05   0.000000e+00   0.000000e+00   0.000000e+00   8.690790e+05   0.000000e+00   0.000000e+00   0.000000e+00
      544000   5.439990e-06   4.300549e+00   1.432227e+01   5.114099e+00   7.721598e+05   1.960452e+05  -3.473239e+05   0.000000e+00   0.000000e+00   0.000000e+00   8.690790e+05   0.000000e+00   0.000000e+00   0.000000e+00
      552000   5.519990e-06   4.362322e+00   1.433795e+01   5.086313e+00   7.721598e+05   1.960452e+05  -3.473239e+05   0.000000e+00   0.000000e+00   0.000000e+00   8.690790e+05   0.000000e+00   0.000000e+00   0.000000e+00
      560000   5.599990e-06   4.424095e+00   1.435363e+01   5.058527e+00   7.721598e+05   1.960452e+05  -3.473239e+05   0.000000e+00   0.000000e+00   0.000000e+00   8.690790e+05   0.000000e+00   0.000000e+00   0.000000e+00
      568000   5.679990e-06   4.485867e+00   1.436932e+01   5.030742e+00   7.721598e+05   1.960452e+05  -3.473239e+05   0.000000e+00   0.000000e+00   0.000000e+00   8.690790e+05   0.000000e+00   0.000000e+00   0.000000e+00
      576000   5.759990e-06   4.547640e+00   1.438500e+01   5.002956e+00   7.721598e+05   1.960452e+05  -3.473239e+05   0.000000e+00   0.000000e+00   0.000000e+00   8.690790e+05   0.000000e+00   0.000000e+00   0.000000e+00
      584000   5.839990e-06   4.609413e+00   1.440068e+01   4.975170e+00   7.721598e+05   1.960452e+05  -3.473239e+05   0.000000e+00   0.000000e+00   0.000000e+00   8.690790e+05   0.000000e+00   0.000000e+00   0.000000e+00
      592000   5.919990e-06   4.671186e+00   1.441637e+01   4.947384e+00   7.721598e+05   1.960452e+05  -3.473239e+05   0.000000e+00   0.000000e+00   0.000000e+00   8.690790e+05   0.000000e+00   0.000000e+00   0.000000e+00
      600000   5.999990e-06   4.732959e+00   1.443205e+01   4.919598e+00   7.721598e+05   1.960452e+05  -3.473239e+05   0.000000e+00   0.000000e+00   0.000000e+00   8.690790e+05   0.000000e+00   0.000000e+00   0.000000e+00
      608000   6.079990e-06   4.794731e+00   1.444774e+01   4.891812e+00   7.721598e+05   1.960452e+05  -3.473239e+05   0.000000e+00   0.000000e+00   0.000000e+00   8.690790e+05   0.000000e+00   0.000000e+00   0.000000e+00
      616000   6.159990e-06   4.856504e+00   1.446342e+01   4.864026e+00   7.721598e+05   1.960452e+05  -3.473239e+05   0.000000e+00   0.000000e+00   0.000000e+00   8.690790e+05   0.000000e+00   0.000000e+00   0.000000e+00
      624000   6.239990e-06   4.918277e+00   1.447910e+01   4.836240e+00   7.721598e+05   1.960452e+05  -3.473239e+05   0.000000e+00   0.000000e+00   0.000000e+00   8.690790e+05   0.000000e+00   0.000000e+00   0.000000e+00
      632000   6.319990e-06   4.980050e+00   1.449479e+01   4.808454e+00   7.721598e+05   1.960452e+05  -3.473239e+05   0.000000e+00   0.000000e+00   0.000000e+00   8.690790e+05   0.000000e+00   0.000000e+00   0.000000e+00
      640000   6.399990e-06   5.041823e+00   1.451047e+01   4.780668e+00   7.721598e+05   1.960452e+05  -3.473239e+05   0.000000e+00   0.000000e+00   0.000000e+00   8.690790e+05   0.000000e+00   0.000000e+00   0.000000e+00
      648000   6.479990e-06   5.103595e+00   1.452615e+01   4.752882e+00   7.721598e+05   1.960452e+05  -3.473239e+05   0.000000e+00   0.000000e+00   0.000000e+00   8.690790e+05   0.000000e+00   0.000000e+00   0.000000e+00
      656000   6.559990e-06   5.165368e+00   1.454184e+01   4.725097e+00   7.721598e+05   1.960452e+05  -3.473239e+05   0.000000e+00   0.000000e+00   0.000000e+00   8.690790e+05   0.000000e+00   0.000000e+00   0.000000e+00
      664000   6.639990e-06   5.227141e+00   1.455752e+01   4.697311e+00   7.721598e+05   1.960452e+05  -3.473239e+05   0.000000e+00   0.000000e+00   0.000000e+00   8.690790e+05   0.000000e+00   0.000000e+00   0.000000e+00
      672000   6.719990e-06   5.288914e+00   1.457320e+01   4.669525e+00   7.721598e+05   1.960452e+05  -3.473239e+05   0.000000e+00   0.000000e+00   0.000000e+00   8.690790e+05   0.000000e+00   0.000000e+00   0.000000e+00
      680000   6.799990e-06   5.350686e+00   1.458889e+01   4.641739e+00   7.721598e+05   1.960452e+05  -3.473239e+05   0.000000e+00   0.000000e+00   0.000000e+00   8.690790e+05   0.000000e+00   0.000000e+00   0.000000e+00
      688000   6.879990e-06   5.412459e+00   1.460457e+01   4.613953e+00   7.721598e+05   1.960452e+05  -3.473239e+05   0.000000e+00   0.000000e+00   0.000000e+00   8.690790e+05   0.000000e+00   0.000000e+00   0.000000e+00
      696000   6.959990e-06   5.474232e+00   1.462026e+01   4.586167e+00   7.721598e+05   1.960452e+05  -3.473239e+05   0.000000e+00   0.000000e+00   0.000000e+00   8.690790e+05   0.000000e+00   0.000000e+00   0.000000e+00
      704000   7.039990e-06   5.536005e+00   1.463594e+01   4.558381e+00   7.721598e+05   1.960452e+05  -3.473239e+05   0.000000e+00   0.000000e+00   0.000000e+00   8.690790e+05   0.000000e+00   0.000000e+00   0.000000e+00
      712000   7.119990e-06   5.597778e+00   1.465162e+01   4.530595e+00   7.721598e+05   1.960452e+05  -3.473239e+05   0.000000e+00   0.000000e+00   0.000000e+00   8.690790e+05   0.000000e+00   0.000000e+00   0.000000e+00
      720000   7.199990e-06   5.659550e+00   1.466731e+01   4.502809e+00   7.721598e+05   1.960452e+05  -3.473239e+05   0.000000e+00   0.000000e+00   0.000000e+00   8.690790e+05   0.000000e+00   0.000000e+00   0.000000e+00
      728000   7.279990e-06   5.721323e+00   1.468299e+01   4.475023e+00   7.721598e+05   1.960452e+05  -3.473239e+05   0.000000e+00   0.000000e+00   0.000000e+00   8.690790e+05   0.000000e+00   0.000000e+00   0.000000e+00
      736000   7.359990e-06   5.783096e+00   1.469867e+01   4.447237e+00   7.721598e+05   1.960452e+05  -3.473239e+05   0.000000e+00   0.000000e+00   0.000000e+00   8.690790e+05   0.000000e+00   0.000000e+00   0.000000e+00
      744000   7.439990e-06   5.844869e+00   1.471436e+01   4.419452e+00   7.721598e+05   1.960452e+05  -3.473239e+05   0.000000e+00   0.000000e+00   0.000000e+00   8.690790e+05   0.000000e+00   0.000000e+00   0.000000e+00
      752000   7.519990e-06   5.906641e+00   1.473004e+01   4.391666e+00   7.721598e+05   1.960452e+05  -3.473239e+05   0.000000e+00   0.000000e+00   0.000000e+00   8.690790e+05   0.000000e+00   0.000000e+00   0.000000e+00
      760000   7.599990e-06   5.968414e+00   1.474572e+01   4.363880e+00   7.721598e+05   1.960452e+05  -3.473239e+05   0.000000e+00   0.000000e+00   0.000000e+00   8.690790e+05   0.000000e+00   0.000000e+00   0.000000e+00
      768000   7.679990e-06   6.030187e+00   1.476141e+01   4.336094e+00   7.721598e+05   1.960452e+05  -3.473239e+05   0.000000e+00   0.000000e+00   0.000000e+00   8.690790e+05   0.000000e+00   0.000000e+00   0.000000e+00
      776000   7.759990e-06   6.091960e+00   1.477709e+01   4.308308e+00   7.721598e+05   1.960452e+05  -3.473239e+05   0.000000e+00   0.000000e+00   0.000000e+00   8.690790e+05   0.000000e+00   0.000000e+00   0.000000e+00
      784000   7.839990e-06   6.153733e+00   1.479278e+01   4.280522e+00   7.721598e+05   1.960452e+05  -3.473239e+05   0.000000e+00   0.000000e+00   0.000000e+00   8.690790e+05   0.000000e+00   0.000000e+00   0.000000e+00
      792000   7.919990e-06   6.215505e+00   1.480846e+01   4.252736e+00   7.721598e+05   1.960452e+05  -3.473239e+05   0.000000e+00   0.000000e+00   0.000000e+00   8.690790e+05   0.000000e+00   0.000000e+00   0.000000e+00
      800000   7.999990e-06   6.277278e+00   1.482414e+01   4.224950e+00   7.721598e+05   1.960452e+05  -3.473239e+05   0.000000e+00   0.000000e+00   0.000000e+00   8.690790e+05   0.000000e+00   0.000000e+00   0.000000e+00
      808000   8.079990e-06   6.339051e+00   1.483983e+01   4.197164e+00   7.721598e+05   1.960452e+05  -3.473239e+05   0.000000e+00   0.000000e+00   0.000000e+00   8.690790e+05   0.000000e+00   0.000000e+00   0.000000e+00
      816000   8.159990e-06   6.400824e+00   1.485551e+01   4.169378e+00   7.721598e+05   1.960452e+05  -3.473239e+05   0.000000e+00   0.000000e+00   0.000000e+00   8.690790e+05   0.000000e+00   0.000000e+00   0.000000e+00
      824000   8.239990e-06   6.462597e+00   1.487119e+01   4.141592e+00   7.721598e+05   1.960452e+05  -3.473239e+05   0.000000e+00   0.000000e+00   0.000000e+00   8.690790e+05   0.000000e+00   0.000000e+00   0.000000e+00
      832000   8.319990e-06   6.524369e+00   1.488688e+01   4.113807e+00   7.721598e+05   1.960452e+05  -3.473239e+05   0.000000e+00   0.000000e+00   0.000000e+00   8.690790e+05   0.000000e+00   0.000000e+00   0.000000e+00
      840000   8.399990e-06   6.586142e+00   1.490256e+01   4.086021e+00   7.721598e+05   1.960452e+05  -3.473239e+05   0.000000e+00   0.000000e+00   0.000000e+00   8.690790e+05   0.000000e+00   0.000000e+00   0.000000e+00
      848000   8.479990e-06   6.647915e+00   1.491824e+01   4.058235e+00   7.721598e+05   1.960452e+05  -3.473239e+05   0.000000e+00   0.000000e+00   0.000000e+00   8.690790e+05   0.000000e+00   0.000000e+00   0.000000e+00
      856000   8.559990e-06   6.709688e+00   1.493393e+01   4.030449e+00   7.721598e+05   1.960452e+05  -3.473239e+05   0.000000e+00   0.000000e+00   0.000000e+00   8.690790e+05   0.000000e+00   0.000000e+00   0.000000e+00
      864000   8.639990e-06   6.771460e+00   1.494961e+01   4.002663e+00   7.721598e+05   1.960452e+05  -3.473239e+05   0.000000e+00   0.000000e+00   0.000000e+00   8.690790e+05   0.000000e+00   0.000000e+00   0.000000e+00
      872000   8.719990e-06   6.833233e+00   1.496529e+01   3.974877e+00   7.721598e+05   1.960452e+05  -3.473239e+05   0.000000e+00   0.000000e+00   0.000000e+00   8.690790e+05   0.000000e+00   0.000000e+00   0.000000e+00
      880000   8.799990e-06   6.895006e+00   1.498098e+01   3.947091e+00   7.721598e+05   1.960452e+05  -3.473239e+05   0.000000e+00   0.000000e+00   0.000000e+00   8.690790e+05   0.000000e+00   0.000000e+00   0.000000e+00
      888000   8.879990e-06   6.956779e+00   1.499666e+01   3.919305e+00   7.721598e+05   1.960452e+05  -3.473239e+05   0.000000e+00   0.000000e+00   0.000000e+00   8.690790e+05   0.000000e+00   0.000000e+00   0.000000e+00
      896000   8.959990e-06   7.018552e+00   1.501235e+01   3.891519e+00   7.721598e+05   1.960452e+05  -3.473239e+05   0.000000e+00   0.000000e+00   0.000000e+00   8.690790e+05   0.000000e+00   0.000000e+00   0.000000e+00
      904000   9.039990e-06   7.080324e+00   1.502803e+01   3.863733e+00   7.721598e+05   1.960452e+05  -3.473239e+05   0.000000e+00   0.000000e+00   0.000000e+00   8.690790e+05   0.000000e+00   0.000000e+00   0.000000e+00
      912000   9.119990e-06   7.142097e+00   1.504371e+01   3.835947e+00   7.721598e+05   1.960452e+05  -3.473239e+05   0.000000e+00   0.000000e+00   0.000000e+00   8.690790e+05   0.000000e+00   0.000000e+00   0.000000e+00
      920000   9.199990e-06   7.203870e+00   1.505940e+01   3.808162e+00   7.721598e+05   1.960452e+05  -3.473239e+05   0.000000e+00   0.000000e+00   0.000000e+00   8.690790e+05   0.000000e+00   0.000000e+00   0.000000e+00
      928000   9.279990e-06   7.265643e+00   1.507508e+01   3.780376e+00   7.721598e+05   1.960452e+05  -3.473239e+05   0.000000e+00   0.000000e+00   0.000000e+00   8.690790e+05   0.000000e+00   0.000000e+00   0.000000e+00
      936000   9.359990e-06   7.327415e+00   1.509076e+01   3.752590e+00   7.721598e+05   1.960452e+05  -3.473239e+05   0.000000e+00   0.000000e+00   0.000000e+00   8.690790e+05   0.000000e+00   0.000000e+00   0.000000e+00
      944000   9.439990e-06   7.389188e+00   1.510645e+01   3.724804e+00   7.721598e+05   1.960452e+05  -3.473239e+05   0.000000e+00   0.000000e+00   0.000000e+00   8.690790e+05   0.000000e+00   0.000000e+00   0.000000e+00
      952000   9.519990e-06   7.450961e+00   1.512213e+01   3.697018e+00   7.721598e+05   1.960452e+05  -3.473239e+05   0.000000e+00   0.000000e+00   0.000000e+00   8.690790e+05   0.000000e+00   0.000000e+00   0.000000e+00
      960000   9.599990e-06   7.512734e+00   1.513781e+01   3.669232e+00   7.721598e+05   1.960452e+05  -3.473239e+05   0.000000e+00   0.000000e+00   0.000000e+00   8.690790e+05   0.000000e+00   0.000000e+00   0.000000e+00
      968000   9.679990e-06   7.574507e+00   1.515350e+01   3.641446e+00   7.721598e+05   1.960452e+05  -3.473239e+05   0.000000e+00   0.000000e+00   0.000000e+00   8.690790e+05   0.000000e+00   0.000000e+00   0.000000e+00
      976000   9.759990e-06   7.636279e+00   1.516918e+01   3.613660e+00   7.721598e+05   1.960452e+05  -3.473239e+05   0.000000e+00   0.000000e+00   0.000000e+00   8.690790e+05   0.000000e+00   0.000000e+00   0.000000e+00
      984000   9.839990e-06   7.698052e+00   1.518487e+01   3.585874e+00   7.721598e+05   1.960452e+05  -3.473239e+05   0.000000e+00   0.000000e+00   0.000000e+00   8.690790e+05   0.000000e+00   0.000000e+00   0.000000e+00
      992000   9.919990e-06   7.759825e+00   1.520055e+01   3.558088e+00   7.721598e+05   1.960452e+05  -3.473239e+05   0.000000e+00   0.000000e+00   0.000000e+00   8.690790e+05   0.000000e+00   0.000000e+00   0.000000e+00
     1000000   9.999990e-06   7.821598e+00   1.521623e+01   3.530302e+00   7.721598e+05   1.960452e+05  -3.473239e+05   0.000000e+00   0.000000e+00   0.000000e+00   8.690790e+05   0.000000e+00   0.000000e+00   0.000000e+00
     1008000   1.007999e-05   7.883370e+00   1.523192e+01   3.502517e+00   7.721598e+05   1.960452e+05  -3.473239e+05   0.000000e+00   0.000000e+00   0.000000e+00   8.690790e+05   0.000000e+00   0.000000e+00   0.000000e+00
     1016000   1.015999e-05   7.945143e+00   1.524760e+01   3.474731e+00   7.721598e+05   1.960452e+05  -3.473239e+05   0.000000e+00   0.000000e+00   0.000000e+00   8.690790e+05   0.000000e+00   0.000000e+00   0.000000e+00
     1024000   1.023999e-05   8.006916e+00   1.526328e+01   3.446945e+00   7.721598e+05   1.960452e+05  -3.473239e+05   0.000000e+00   0.000000e+00   0.000000e+00   8.690790e+05   0.000000e+00   0.000000e+00   0.000000e+00
     1032000   1.031999e-05   8.068689e+00   1.527897e+01   3.419159e+00   7.721598e+05   1.960452e+05  -3.473239e+05   0.000000e+00   0.000000e+00   0.000000e+00   8.690790e+05   0.000000e+00   0.000000e+00   0.000000e+00
     1040000   1.039999e-05   8.130462e+00   1.529465e+01   3.391373e+00   7.721598e+05   1.960452e+05  -3.473239e+05   0.000000e+00   0.000000e+00   0.000000e+00   8.690790e+05   0.000000e+00   0.000000e+00   0.000000e+00
     1048000   1.047999e-05   8.192234e+00   1.531033e+01   3.363587e+00   7.721598e+05   1.960452e+05  -3.473239e+05   0.000000e+00   0.000000e+00   0.000000e+00   8.690790e+05   0.000000e+00   0.000000e+00   0.000000e+00
     1056000   1.055999e-05   8.254007e+00   1.532602e+01   3.335801e+00   7.721598e+05   1.960452e+05  -3.473239e+05   0.000000e+00   0.000000e+00   0.000000e+00   8.690790e+05   0.000000e+00   0.000000e+00   0.000000e+00
     1064000   1.063999e-05   8.315780e+00   1.534170e+01   3.308015e+00   7.721598e+05   1.960452e+05  -3.473239e+05   0.000000e+00   0.000000e+00   0.000000e+00   8.690790e+05   0.000000e+00   0.000000e+00   0.000000e+00
     1072000   1.071999e-05   8.377553e+00   1.535739e+01   3.280229e+00   7.721598e+05   1.960452e+05  -3.473239e+05   0.000000e+00   0.000000e+00   0.000000e+00   8.690790e+05   0.000000e+00   0.000000e+00   0.000000e+00
     1080000   1.079999e-05   8.439326e+00   1.537307e+01   3.252443e+00   7.721598e+05   1.960452e+05  -3.473239e+05   0.000000e+00   0.000000e+00   0.000000e+00   8.690790e+05   0.000000e+00   0.000000e+00   0.000000e+00
     1088000   1.087999e-05   8.501098e+00   1.538875e+01   3.224657e+00   7.721598e+05   1.960452e+05  -3.473239e+05   0.000000e+00   0.000000e+00   0.000000e+00   8.690790e+05   0.000000e+00   0.000000e+00   0.000000e+00
     1096000   1.095999e-05   8.562871e+00   1.540444e+01   3.196872e+00   7.721598e+05   1.960452e+05  -3.473239e+05   0.000000e+00   0.000000e+00   0.000000e+00   8.690790e+05   0.000000e+00   0.000000e+00   0.000000e+00
     1104000   1.103999e-05   8.624644e+00   1.542012e+01   3.169086e+00   7.721598e+05   1.960452e+05  -3.473239e+05   0.000000e+00   0.000000e+00   0.000000e+00   8.690790e+05   0.000000e+00   0.000000e+00   0.000000e+00
     1112000   1.111999e-05   8.686417e+00   1.543580e+01   3.141300e+00   7.721598e+05   1.960452e+05  -3.473239e+05   0.000000e+00   0.000000e+00   0.000000e+00   8.690790e+05   0.000000e+00   0.000000e+00   0.000000e+00
     1120000   1.119999e-05   8.748189e+00   1.545149e+01   3.113514e+00   7.721598e+05   1.960452e+05  -3.473239e+05   0.000000e+00   0.000000e+00   0.000000e+00   8.690790e+05   0.000000e+00   0.000000e+00   0.000000e+00
     1128000   1.127999e-05   8.809962e+00   1.546717e+01   3.085728e+00   7.721598e+05   1.960452e+05  -3.473239e+05   0.000000e+00   0.000000e+00   0.000000e+00   8.690790e+05   0.000000e+00   0.000000e+00   0.000000e+00
     1136000   1.135999e-05   8.871735e+00   1.548285e+01   3.057942e+00   7.721598e+05   1.960452e+05  -3.473239e+05   0.000000e+00   0.000000e+00   0.000000e+00   8.690790e+05   0.000000e+00   0.000000e+00   0.000000e+00
     1144000   1.143999e-05   8.933508e+00   1.549854e+01   3.030156e+00   7.721598e+05   1.960452e+05  -3.473239e+05   0.000000e+00   0.000000e+00   0.000000e+00   8.690790e+05   0.000000e+00   0.000000e+00   0.000000e+00
     1152000   1.151999e-05   8.995281e+00   1.551422e+01   3.002370e+00   7.721598e+05   1.960452e+05  -3.473239e+05   0.000000e+00   0.000000e+00   0.000000e+00   8.690790e+05   0.000000e+00   0.000000e+00   0.000000e+00
     1160000   1.159999e-05   9.057053e+00   1.552990e+01   2.974584e+00   7.721598e+05   1.960452e+05  -3.473239e+05   0.000000e+00   0.000000e+00   0.000000e+00   8.690790e+05   0.000000e+00   0.000000e+00   0.000000e+00
     1168000   1.167999e-05   9.118826e+00   1.554559e+01   2.946798e+00   7.721598e+05   1.960452e+05  -3.473239e+05   0.000000e+00   0.000000e+00   0.000000e+00   8.690790e+05   0.000000e+00   0.000000e+00   0.000000e+00
     1176000   1.175999e-05   9.180599e+00   1.556127e+01   2.919012e+00   7.721598e+05   1.960452e+05  -3.473239e+05   0.000000e+00   0.000000e+00   0.000000e+00   8.690790e+05   0.000000e+00   0.000000e+00   0.000000e+00
     1184000   1.183999e-05   9.242372e+00   1.557696e+01   2.891227e+00   7.721598e+05   1.960452e+05  -3.473239e+05   0.000000e+00   0.000000e+00   0.000000e+00   8.690790e+05   0.000000e+00   0.000000e+00   0.000000e+00
     1192000   1.191999e-05   9.304144e+00   1.559264e+01   2.863441e+00   7.721598e+05   1.960452e+05  -3.473239e+05   0.000000e+00   0.000000e+00   0.000000e+00   8.690790e+05   0.000000e+00   0.000000e+00   0.000000e+00
     1200000   1.199999e-05   9.365917e+00   1.560832e+01   2.835655e+00   7.721598e+05   1.960452e+05  -3.473239e+05   0.000000e+00   0.000000e+00   0.000000e+00   8.690790e+05   0.000000e+00   0.000000e+00   0.000000e+00
     1208000   1.207999e-05   9.427690e+00   1.562401e+01   2.807869e+00   7.721598e+05   1.960452e+05  -3.473239e+05   0.000000e+00   0.000000e+00   0.000000e+00   8.690790e+05   0.000000e+00   0.000000e+00   0.000000e+00
     1216000   1.215999e-05   9.489463e+00   1.563969e+01   2.780083e+00   7.721598e+05   1.960452e+05  -3.473239e+05   0.000000e+00   0.000000e+00   0.000000e+00   8.690790e+05   0.000000e+00   0.000000e+00   0.000000e+00
     1224000   1.223999e-05   9.551236e+00   1.565537e+01   2.752297e+00   7.721598e+05   1.960452e+05  -3.473239e+05   0.000000e+00   0.000000e+00   0.000000e+00   8.690790e+05   0.000000e+00   0.000000e+00   0.000000e+00
     1232000   1.231999e-05   9.613008e+00   1.567106e+01   2.724511e+00   7.721598e+05   1.960452e+05  -3.473239e+05   0.000000e+00   0.000000e+00   0.000000e+00   8.690790e+05   0.000000e+00   0.000000e+00   0.000000e+00
     1240000   1.239999e-05   9.674781e+00   1.568674e+01   2.696725e+00   7.721598e+05   1.960452e+05  -3.473239e+05   0.000000e+00   0.000000e+00   0.000000e+00   8.690790e+05   0.000000e+00   0.000000e+00   0.000000e+00
     1248000   1.247999e-05   9.736554e+00   1.570242e+01   2.668939e+00   7.721598e+05   1.960452e+05  -3.473239e+05   0.000000e+00   0.000000e+00   0.000000e+00   8.690790e+05   0.000000e+00   0.000000e+00   0.000000e+00
     1256000   1.255999e-05   9.798327e+00   1.571811e+01   2.641153e+00   7.721598e+05   1.960452e+05  -3.473239e+05   0.000000e+00   0.000000e+00   0.000000e+00   8.690790e+05   0.000000e+00   0.000000e+00   0.000000e+00
     1264000   1.263999e-05   9.860099e+00   1.573379e+01   2.613367e+00   7.721598e+05   1.960452e+05  -3.473239e+05   0.000000e+00   0.000000e+00   0.000000e+00   8.690790e+05   0.000000e+00   0.000000e+00   0.000000e+00
     1272000   1.271999e-05   9.921872e+00   1.574948e+01   2.585582e+00   7.721598e+05   1.960452e+05  -3.473239e+05   0.000000e+00   0.000000e+00   0.000000e+00   8.690790e+05   0.000000e+00   0.000000e+00   0.000000e+00
     1280000   1.279999e-05   9.983645e+00   1.576516e+01   2.557796e+00   7.721598e+05   1.960452e+05  -3.473239e+05   0.000000e+00   0.000000e+00   0.000000e+00   8.690790e+05   0.000000e+00   0.000000e+00   0.000000e+00
     1288000   1.287999e-05   1.004542e+01   1.578084e+01   2.530010e+00   7.721598e+05   1.960452e+05  -3.473239e+05   0.000000e+00   0.000000e+00   0.000000e+00   8.690790e+05   0.000000e+00   0.000000e+00   0.000000e+00
     1296000   1.295999e-05   1.010719e+01   1.579653e+01   2.502224e+00   7.721598e+05   1.960452e+05  -3.473239e+05   0.000000e+00   0.000000e+00   0.000000e+00   8.690790e+05   0.000000e+00   0.000000e+00   0.000000e+00
     1304000   1.303999e-05   1.016896e+01   1.581221e+01   2.474438e+00   7.721598e+05   1.960452e+05  -3.473239e+05   0.000000e+00   0.000000e+00   0.000000e+00   8.690790e+05   0.000000e+00   0.000000e+00   0.000000e+00
     1312000   1.311999e-05   1.023074e+01   1.582789e+01   2.446652e+00   7.721598e+05   1.960452e+05  -3.473239e+05   0.000000e+00   0.000000e+00   0.000000e+00   8.690790e+05   0.000000e+00   0.000000e+00   0.000000e+00
     1320000   1.319999e-05   1.029251e+01   1.584358e+01   2.418866e+00   7.721598e+05   1.960452e+05  -3.473239e+05   0.000000e+00   0.000000e+00   0.000000e+00   8.690790e+05   0.000000e+00   0.000000e+00   0.000000e+00
     1328000   1.327999e-05   1.035428e+01   1.585926e+01   2.391080e+00   7.721598e+05   1.960452e+05  -3.473239e+05   0.000000e+00   0.000000e+00   0.000000e+00   8.690790e+05   0.000000e+00   0.000000e+00   0.000000e+00
     1336000   1.335999e-05   1.041605e+01   1.587494e+01   2.363294e+00   7.721598e+05   1.960452e+05  -3.473239e+05   0.000000e+00   0.000000e+00   0.000000e+00   8.690790e+05   0.000000e+00   0.000000e+00   0.000000e+00
     1344000   1.343999e-05   1.047783e+01   1.589063e+01   2.335508e+00   7.721598e+05   1.960452e+05  -3.473239e+05   0.000000e+00   0.000000e+00   0.000000e+00   8.690790e+05   0.000000e+00   0.000000e+00   0.000000e+00
     1352000   1.351999e-05   1.053960e+01   1.590631e+01   2.307722e+00   7.721598e+05   1.960452e+05  -3.473239e+05   0.000000e+00   0.000000e+00   0.000000e+00   8.690790e+05   0.000000e+00   0.000000e+00   0.000000e+00
     1360000   1.359999e-05   1.060137e+01   1.592200e+01   2.279937e+00   7.721598e+05   1.960452e+05  -3.473239e+05   0.000000e+00   0.000000e+00   0.000000e+00   8.690790e+05   0.000000e+00   0.000000e+00   0.000000e+00
     1368000   1.367999e-05   1.066315e+01   1.593768e+01   2.252151e+00   7.721598e+05   1.960452e+05  -3.473239e+05   0.000000e+00   0.000000e+00   0.000000e+00   8.690790e+05   0.000000e+00   0.000000e+00   0.000000e+00
     1376000   1.375999e-05   1.072492e+01   1.595336e+01   2.224365e+00   7.721598e+05   1.960452e+05  -3.473239e+05   0.000000e+00   0.000000e+00   0.000000e+00   8.690790e+05   0.000000e+00   0.000000e+00   0.000000e+00
     1384000   1.383999e-05   1.078669e+01   1.596905e+01   2.196579e+00   7.721598e+05   1.960452e+05  -3.473239e+05   0.000000e+00   0.000000e+00   0.000000e+00   8.690790e+05   0.000000e+00   0.000000e+00   0.000000e+00
     1392000   1.391999e-05   1.084846e+01   1.598473e+01   2.168793e+00   7.721598e+05   1.960452e+05  -3.473239e+05   0.000000e+00   0.000000e+00   0.000000e+00   8.690790e+05   0.000000e+00   0.000000e+00   0.000000e+00
     1400000   1.399999e-05   1.091024e+01   1.600041e+01   2.141007e+00   7.721598e+05   1.960452e+05  -3.473239e+05   0.000000e+00   0.000000e+00   0.000000e+00   8.690790e+05   0.000000e+00   0.000000e+00   0.000000e+00
     1408000   1.407999e-05   1.097201e+01   1.601610e+01   2.113221e+00   7.721598e+05   1.960452e+05  -3.473239e+05   0.000000e+00   0.000000e+00   0.000000e+00   8.690790e+05   0.000000e+00   0.000000e+00   0.000000e+00
     1416000   1.415999e-05   1.103378e+01   1.603178e+01   2.085435e+00   7.721598e+05   1.960452e+05  -3.473239e+05   0.000000e+00   0.000000e+00   0.000000e+00   8.690790e+05   0.000000e+00   0.000000e+00   0.000000e+00
     1424000   1.423999e-05   1.109556e+01   1.604746e+01   2.057649e+00   7.721598e+05   1.960452e+05  -3.473239e+05   0.000000e+00   0.000000e+00   0.000000e+00   8.690790e+05   0.000000e+00   0.000000e+00   0.000000e+00
     1432000   1.431999e-05   1.115733e+01   1.606315e+01   2.029863e+00   7.721598e+05   1.960452e+05  -3.473239e+05   0.000000e+00   0.000000e+00   0.000000e+00   8.690790e+05   0.000000e+00   0.000000e+00   0.000000e+00
     1440000   1.439999e-05   1.121910e+01   1.607883e+01   2.002078e+00   7.721598e+05   1.960452e+05  -3.473239e+05   0.000000e+00   0.000000e+00   0.000000e+00   8.690790e+05   0.000000e+00   0.000000e+00   0.000000e+00
     1448000   1.447999e-05   1.128087e+01   1.609452e+01   1.974292e+00   7.721598e+05   1.960452e+05  -3.473239e+05   0.000000e+00   0.000000e+00   0.000000e+00   8.690790e+05   0.000000e+00   0.000000e+00   0.000000e+00
     1456000   1.455999e-05   1.134265e+01   1.611020e+01   1.946506e+00   7.721598e+05   1.960452e+05  -3.473239e+05   0.000000e+00   0.000000e+00   0.000000e+00   8.690790e+05   0.000000e+00   0.000000e+00   0.000000e+00
     1464000   1.463999e-05   1.140442e+01   1.612588e+01   1.918720e+00   7.721598e+05   1.960452e+05  -3.473239e+05   0.000000e+00   0.000000e+00   0.000000e+00   8.690790e+05   0.000000e+00   0.000000e+00   0.000000e+00
     1472000   1.471999e-05   1.146619e+01   1.614157e+01   1.890934e+00   7.721598e+05   1.960452e+05  -3.473239e+05   0.000000e+00   0.000000e+00   0.000000e+00   8.690790e+05   0.000000e+00   0.000000e+00   0.000000e+00
     1480000   1.479999e-05   1.152796e+01   1.615725e+01   1.863148e+00   7.721598e+05   1.960452e+05  -3.473239e+05   0.000000e+00   0.000000e+00   0.000000e+00   8.690790e+05   0.000000e+00   0.000000e+00   0.000000e+00
     1488000   1.487999e-05   1.158974e+01   1.617293e+01   1.835362e+00   7.721598e+05   1.960452e+05  -3.473239e+05   0.000000e+00   0.000000e+00   0.000000e+00   8.690790e+05   0.000000e+00   0.000000e+00   0.000000e+00
     1496000   1.495999e-05   1.165151e+01   1.618862e+01   1.807576e+00   7.721598e+05   1.960452e+05  -3.473239e+05   0.000000e+00   0.000000e+00   0.000000e+00   8.690790e+05   0.000000e+00   0.000000e+00   0.000000e+00
     1504000   1.503999e-05   1.171328e+01   1.620430e+01   1.779790e+00   7.721598e+05   1.960452e+05  -3.473239e+05   0.000000e+00   0.000000e+00   0.000000e+00   8.690790e+05   0.000000e+00   0.000000e+00   0.000000e+00
     1512000   1.511999e-05   1.177506e+01   1.621998e+01   1.752004e+00   7.721598e+05   1.960452e+05  -3.473239e+05   0.000000e+00   0.000000e+00   0.000000e+00   8.690790e+05   0.000000e+00   0.000000e+00   0.000000e+00
     1520000   1.519999e-05   1.183683e+01   1.623567e+01   1.724218e+00   7.721598e+05   1.960452e+05  -3.473239e+05   0.000000e+00   0.000000e+00   0.000000e+00   8.690790e+05   0.000000e+00   0.000000e+00   0.000000e+00
     1528000   1.527999e-05   1.189860e+01   1.625135e+01   1.696433e+00   7.721598e+05   1.960452e+05  -3.473239e+05   0.000000e+00   0.000000e+00   0.000000e+00   8.690790e+05   0.000000e+00   0.000000e+00   0.000000e+00
     1536000   1.535999e-05   1.196037e+01   1.626703e+01   1.668647e+00   7.721598e+05   1.960452e+05  -3.473239e+05   0.000000e+00   0.000000e+00   0.000000e+00   8.690790e+05   0.000000e+00   0.000000e+00   0.000000e+00
     1544000   1.543999e-05   1.202215e+01   1.628272e+01   1.640861e+00   7.721598e+05   1.960452e+05  -3.473239e+05   0.000000e+00   0.000000e+00   0.000000e+00   8.690790e+05   0.000000e+00   0.000000e+00   0.000000e+00
     1552000   1.551999e-05   1.208392e+01   1.629840e+01   1.613075e+00   7.721598e+05   1.960452e+05  -3.473239e+05   0.000000e+00   0.000000e+00   0.000000e+00   8.690790e+05   0.000000e+00   0.000000e+00   0.000000e+00
     1560000   1.559999e-05   1.214569e+01   1.631409e+01   1.585289e+00   7.721598e+05   1.960452e+05  -3.473239e+05   0.000000e+00   0.000000e+00   0.000000e+00   8.690790e+05   0.000000e+00   0.000000e+00   0.000000e+00
     1568000   1.567999e-05   1.220747e+01   1.632977e+01   1.557503e+00   7.721598e+05   1.960452e+05  -3.473239e+05   0.000000e+00   0.000000e+00   0.000000e+00   8.690790e+05   0.000000e+00   0.000000e+00   0.000000e+00
     1576000   1.575999e-05   1.226924e+01   1.634545e+01   1.529717e+00   7.721598e+05   1.960452e+05  -3.473239e+05   0.000000e+00   0.000000e+00   0.000000e+00   8.690790e+05   0.000000e+00   0.000000e+00   0.000000e+00
     1584000   1.583999e-05   1.233101e+01   1.636114e+01   1.501931e+00   7.721598e+05   1.960452e+05  -3.473239e+05   0.000000e+00   0.000000e+00   0.000000e+00   8.690790e+05   0.000000e+00   0.000000e+00   0.000000e+00
     1592000   1.591999e-05   1.239278e+01   1.637682e+01   1.474145e+00   7.721598e+05   1.960452e+05  -3.473239e+05   0.000000e+00   0.000000e+00   0.000000e+00   8.690790e+05   0.000000e+00   0.000000e+00   0.000000e+00
     1600000   1.599999e-05   1.245456e+01   1.639250e+01   1.446359e+00   7.721598e+05   1.960452e+05  -3.473239e+05   0.000000e+00   0.000000e+00   0.000000e+00   8.690790e+05   0.000000e+00   0.000000e+00   0.000000e+00
     1608000   1.607999e-05   1.251633e+01   1.640819e+01   1.418573e+00   7.721598e+05   1.960452e+05  -3.473239e+05   0.000000e+00   0.000000e+00   0.000000e+00   8.690790e+05   0.000000e+00   0.000000e+00   0.000000e+00
     1616000   1.615999e-05   1.257810e+01   1.642387e+01   1.390788e+00   7.721598e+05   1.960452e+05  -3.473239e+05   0.000000e+00   0.000000e+00   0.000000e+00   8.690790e+05   0.000000e+00   0.000000e+00   0.000000e+00
     1624000   1.623999e-05   1.263987e+01   1.643955e+01   1.363002e+00   7.721598e+05   1.960452e+05  -3.473239e+05   0.000000e+00   0.000000e+00   0.000000e+00   8.690790e+05   0.000000e+00   0.000000e+00   0.000000e+00
     1632000   1.631999e-05   1.270165e+01   1.645524e+01   1.335216e+00   7.721598e+05   1.960452e+05  -3.473239e+05   0.000000e+00   0.000000e+00   0.000000e+00   8.690790e+05   0.000000e+00   0.000000e+00   0.000000e+00
     1640000   1.639999e-05   1.276342e+01   1.647092e+01   1.307430e+00   7.721598e+05   1.960452e+05  -3.473239e+05   0.000000e+00   0.000000e+00   0.000000e+00   8.690790e+05   0.000000e+00   0.000000e+00   0.000000e+00
     1648000   1.647999e-05   1.282519e+01   1.648661e+01   1.279644e+00   7.721598e+05   1.960452e+05  -3.473239e+05   0.000000e+00   0.000000e+00   0.000000e+00   8.690790e+05   0.000000e+00   0.000000e+00   0.000000e+00
     1656000   1.655999e-05   1.288697e+01   1.650229e+01   1.251858e+00   7.721598e+05   1.960452e+05  -3.473239e+05   0.000000e+00   0.000000e+00   0.000000e+00   8.690790e+05   0.000000e+00   0.000000e+00   0.000000e+00
     1664000   1.663999e-05   1.294874e+01   1.651797e+01   1.224072e+00   7.721598e+05   1.960452e+05  -3.473239e+05   0.000000e+00   0.000000e+00   0.000000e+00   8.690790e+05   0.000000e+00   0.000000e+00   0.000000e+00
     1672000   1.671999e-05   1.301051e+01   1.653366e+01   1.196286e+00   7.721598e+05   1.960452e+05  -3.473239e+05   0.000000e+00   0.000000e+00   0.000000e+00   8.690790e+05   0.000000e+00   0.000000e+00   0.000000e+00
     1680000   1.679999e-05   1.307228e+01   1.654934e+01   1.168500e+00   7.721598e+05   1.960452e+05  -3.473239e+05   0.000000e+00   0.000000e+00   0.000000e+00   8.690790e+05   0.000000e+00   0.000000e+00   0.000000e+00
     1688000   1.687999e-05   1.313406e+01   1.656502e+01   1.140714e+00   7.721598e+05   1.960452e+05  -3.473239e+05   0.000000e+00   0.000000e+00   0.000000e+00   8.690790e+05   0.000000e+00   0.000000e+00   0.000000e+00
     1696000   1.695999e-05   1.319583e+01   1.658071e+01   1.112928e+00   7.721598e+05   1.960452e+05  -3.473239e+05   0.000000e+00   0.000000e+00   0.000000e+00   8.690790e+05   0.000000e+00   0.000000e+00   0.000000e+00
     1704000   1.703999e-05   1.325760e+01   1.659639e+01   1.085143e+00   7.721598e+05   1.960452e+05  -3.473239e+05   0.000000e+00   0.000000e+00   0.000000e+00   8.690790e+05   0.000000e+00   0.000000e+00   0.000000e+00
     1712000   1.711999e-05   1.331938e+01   1.661207e+01   1.057357e+00   7.721598e+05   1.960452e+05  -3.473239e+05   0.000000e+00   0.000000e+00   0.000000e+00   8.690790e+05   0.000000e+00   0.000000e+00   0.000000e+00
     1720000   1.719999e-05   1.338115e+01   1.662776e+01   1.029571e+00   7.721598e+05   1.960452e+05  -3.473239e+05   0.000000e+00   0.000000e+00   0.000000e+00   8.690790e+05   0.000000e+00   0.000000e+00   0.000000e+00
     1728000   1.727999e-05   1.344292e+01   1.664344e+01   1.001785e+00   7.721598e+05   1.960452e+05  -3.473239e+05   0.000000e+00   0.000000e+00   0.000000e+00   8.690790e+05   0.000000e+00   0.000000e+00   0.000000e+00
     1736000   1.735999e-05   1.350469e+01   1.665913e+01   9.739989e-01   7.721598e+05   1.960452e+05  -3.473239e+05   0.000000e+00   0.000000e+00   0.000000e+00   8.690790e+05   0.000000e+00   0.000000e+00   0.000000e+00
     1744000   1.743999e-05   1.356647e+01   1.667481e+01   9.462130e-01   7.721598e+05   1.960452e+05  -3.473239e+05   0.000000e+00   0.000000e+00   0.000000e+00   8.690790e+05   0.000000e+00   0.000000e+00   0.000000e+00
     1752000   1.751999e-05   1.362824e+01   1.669049e+01   9.184271e-01   7.721598e+05   1.960452e+05  -3.473239e+05   0.000000e+00   0.000000e+00   0.000000e+00   8.690790e+05   0.000000e+00   0.000000e+00   0.000000e+00
     1760000   1.759999e-05   1.369001e+01   1.670618e+01   8.906412e-01   7.721598e+05   1.960452e+05  -3.473239e+05   0.000000e+00   0.000000e+00   0.000000e+00   8.690790e+05   0.000000e+00   0.000000e+00   0.000000e+00
     1768000   1.767999e-05   1.375178e+01   1.672186e+01   8.628553e-01   7.721598e+05   1.960452e+05  -3.473239e+05   0.000000e+00   0.000000e+00   0.000000e+00   8.690790e+05   0.000000e+00   0.000000e+00   0.000000e+00
     1776000   1.775999e-05   1.381356e+01   1.673754e+01   8.350694e-01   7.721598e+05   1.960452e+05  -3.473239e+05   0.000000e+00   0.000000e+00   0.000000e+00   8.690790e+05   0.000000e+00   0.000000e+00   0.000000e+00
     1784000   1.783999e-05   1.387533e+01   1.675323e+01   8.072834e-01   7.721598e+05   1.960452e+05  -3.473239e+05   0.000000e+00   0.000000e+00   0.000000e+00   8.690790e+05   0.000000e+00   0.000000e+00   0.000000e+00
     1792000   1.791999e-05   1.393710e+01   1.676891e+01   7.794975e-01   7.721598e+05   1.960452e+05  -3.473239e+05   0.000000e+00   0.000000e+00   0.000000e+00   8.690790e+05   0.000000e+00   0.000000e+00   0.000000e+00
     1800000   1.799999e-05   1.399888e+01   1.678459e+01   7.517116e-01   7.721598e+05   1.960452e+05  -3.473239e+05   0.000000e+00   0.000000e+00   0.000000e+00   8.690790e+05   0.000000e+00   0.000000e+00   0.000000e+00
     1808000   1.807999e-05   1.406065e+01   1.680028e+01   7.239257e-01   7.721598e+05   1.960452e+05  -3.473239e+05   0.000000e+00   0.000000e+00   0.000000e+00   8.690790e+05   0.000000e+00   0.000000e+00   0.000000e+00
     1816000   1.815999e-05   1.412242e+01   1.681596e+01   6.961398e-01   7.721598e+05   1.960452e+05  -3.473239e+05   0.000000e+00   0.000000e+00   0.000000e+00   8.690790e+05   0.000000e+00   0.000000e+00   0.000000e+00
     1824000   1.823999e-05   1.418419e+01   1.683164e+01   6.683539e-01   7.721598e+05   1.960452e+05  -3.473239e+05   0.000000e+00   0.000000e+00   0.000000e+00   8.690790e+05   0.000000e+00   0.000000e+00   0.000000e+00
     1832000   1.831999e-05   1.424597e+01   1.684733e+01   6.405680e-01   7.721598e+05   1.960452e+05  -3.473239e+05   0.000000e+00   0.000000e+00   0.000000e+00   8.690790e+05   0.000000e+00   0.000000e+00   0.000000e+00
     1840000   1.839999e-05   1.430774e+01   1.686301e+01   6.127821e-01   7.721598e+05   1.960452e+05  -3.473239e+05   0.000000e+00   0.000000e+00   0.000000e+00   8.690790e+05   0.000000e+00   0.000000e+00   0.000000e+00
     1848000   1.847999e-05   1.436951e+01   1.687870e+01   5.849962e-01   7.721598e+05   1.960452e+05  -3.473239e+05   0.000000e+00   0.000000e+00   0.000000e+00   8.690790e+05   0.000000e+00   0.000000e+00   0.000000e+00
     1856000   1.855999e-05   1.443129e+01   1.689438e+01   5.572103e-01   7.721598e+05   1.960452e+05  -3.473239e+05   0.000000e+00   0.000000e+00   0.000000e+00   8.690790e+05   0.000000e+00   0.000000e+00   0.000000e+00
     1864000   1.863999e-05   1.449306e+01   1.691006e+01   5.294244e-01   7.721598e+05   1.960452e+05  -3.473239e+05   0.000000e+00   0.000000e+00   0.000000e+00   8.690790e+05   0.000000e+00   0.000000e+00   0.000000e+00
     1872000   1.871999e-05   1.455483e+01   1.692575e+01   5.016385e-01   7.721598e+05   1.960452e+05  -3.473239e+05   0.000000e+00   0.000000e+00   0.000000e+00   8.690790e+05   0.000000e+00   0.000000e+00   0.000000e+00
     1880000   1.879999e-05   1.461660e+01   1.694143e+01   4.738525e-01   7.721598e+05   1.960452e+05  -3.473239e+05   0.000000e+00   0.000000e+00   0.000000e+00   8.690790e+05   0.000000e+00   0.000000e+00   0.000000e+00
     1888000   1.887999e-05   1.467838e+01   1.695711e+01   4.460666e-01   7.721598e+05   1.960452e+05  -3.473239e+05   0.000000e+00   0.000000e+00   0.000000e+00   8.690790e+05   0.000000e+00   0.000000e+00   0.000000e+00
     1896000   1.895999e-05   1.474015e+01   1.697280e+01   4.182807e-01   7.721598e+05   1.960452e+05  -3.473239e+05   0.000000e+00   0.000000e+00   0.000000e+00   8.690790e+05   0.000000e+00   0.000000e+00   0.000000e+00
     1904000   1.903999e-05   1.480192e+01   1.698848e+01   3.904948e-01   7.721598e+05   1.960452e+05  -3.473239e+05   0.000000e+00   0.000000e+00   0.000000e+00   8.690790e+05   0.000000e+00   0.000000e+00   0.000000e+00
     1912000   1.911999e-05   1.486369e+01   1.700416e+01   3.627089e-01   7.721598e+05   1.960452e+05  -3.473239e+05   0.000000e+00   0.000000e+00   0.000000e+00   8.690790e+05   0.000000e+00   0.000000e+00   0.000000e+00
     1920000   1.919999e-05   1.492547e+01   1.701985e+01   3.349230e-01   7.721598e+05   1.960452e+05  -3.473239e+05   0.000000e+00   0.000000e+00   0.000000e+00   8.690790e+05   0.000000e+00   0.000000e+00   0.000000e+00
     1928000   1.927999e-05   1.498724e+01   1.703553e+01   3.071371e-01   7.721598e+05   1.960452e+05  -3.473239e+05   0.000000e+00   0.000000e+00   0.000000e+00   8.690790e+05   0.000000e+00   0.000000e+00   0.000000e+00
     1936000   1.935999e-05   1.504901e+01   1.705122e+01   2.793512e-01   7.721598e+05   1.960452e+05  -3.473239e+05   0.000000e+00   0.000000e+00   0.000000e+00   8.690790e+05   0.000000e+00   0.000000e+00   0.000000e+00
     1944000   1.943999e-05   1.511079e+01   1.706690e+01   2.515653e-01   7.721598e+05   1.960452e+05  -3.473239e+05   0.000000e+00   0.000000e+00   0.000000e+00   8.690790e+05   0.000000e+00   0.000000e+00   0.000000e+00
     1952000   1.951999e-05   1.517256e+01   1.708258e+01   2.237794e-01   7.721598e+05   1.960452e+05  -3.473239e+05   0.000000e+00   0.000000e+00   0.000000e+00   8.690790e+05   0.000000e+00   0.000000e+00   0.000000e+00
     1960000   1.959999e-05   1.523433e+01   1.709827e+01   1.959935e-01   7.721598e+05   1.960452e+05  -3.473239e+05   0.000000e+00   0.000000e+00   0.000000e+00   8.690790e+05   0.000000e+00   0.000000e+00   0.000000e+00
     1968000   1.967999e-05   1.529610e+01   1.711395e+01   1.682076e-01   7.721598e+05   1.960452e+05  -3.473239e+05   0.000000e+00   0.000000e+00   0.000000e+00   8.690790e+05   0.000000e+00   0.000000e+00   0.000000e+00
     1976000   1.975999e-05   1.535788e+01   1.712963e+01   1.404216e-01   7.721598e+05   1.960452e+05  -3.473239e+05   0.000000e+00   0.000000e+00   0.000000e+00   8.690790e+05   0.000000e+00   0.000000e+00   0.000000e+00
     1984000   1.983999e-05   1.541965e+01   1.714532e+01   1.126357e-01   7.721598e+05   1.960452e+05  -3.473239e+05   0.000000e+00   0.000000e+00   0.000000e+00   8.690790e+05   0.000000e+00   0.000000e+00   0.000000e+00
     1992000   1.991999e-05   1.548142e+01   1.716100e+01   8.484983e-02   7.721598e+05   1.960452e+05  -3.473239e+05   0.000000e+00   0.000000e+00   0.000000e+00   8.690790e+05   0.000000e+00   0.000000e+00   0.000000e+00
     2000000   1.999999e-05   1.554320e+01   1.717668e+01   5.706392e-02   7.721598e+05   1.960452e+05  -3.473239e+05   0.000000e+00   0.000000e+00   0.000000e+00   8.690790e+05   0.000000e+00   0.000000e+00   0.000000e+00
     2008000   2.007999e-05   1.560497e+01   1.719237e+01   2.927801e-02   7.721598e+05   1.960452e+05  -3.473239e+05   0.000000e+00   0.000000e+00   0.000000e+00   8.690790e+05   0.000000e+00   0.000000e+00   0.000000e+00
     2016000   2.015999e-05   1.566674e+01   1.720805e+01   1.492105e-03   7.721598e+05   1.960452e+05  -3.473239e+05   0.000000e+00   0.000000e+00   0.000000e+00   8.690790e+05   0.000000e+00   0.000000e+00   0.000000e+00
