     timestep     time              x             y              z              vx             vy             vz             ax             ay             az         v_magnitude      ELoss        Electronic      Nuclear
           0   0.000000e+00   1.000000e-01   1.559630e+01   1.987781e+01   2.846538e+04   5.413934e+05   1.045708e+06   0.000000e+00   0.000000e+00   0.000000e+00   1.177889e+06   0.000000e+00   0.000000e+00   0.000000e+00
        8000   7.999000e-08   1.022771e-01   1.563961e+01   1.996147e+01   2.846184e+04   5.413993e+05   1.045705e+06  -4.031707e+07  -5.186087e+06   3.782368e+06   1.177889e+06   5.569220e-27   0.000000e+00   0.000000e+00
       16000   1.599900e-07   1.045539e-01   1.568293e+01   2.004513e+01   2.845896e+04   5.413977e+05   1.045706e+06  -2.492612e+07   8.490664e+06  -3.717539e+06   1.177889e+06   2.364009e-27   0.000000e+00   0.000000e+00
       24000   2.399900e-07   1.068305e-01   1.572624e+01   2.012878e+01   2.845510e+04   5.413982e+05   1.045706e+06  -5.066658e+07   2.662962e+06  -2.156829e-01   1.177889e+06   8.605456e-27   0.000000e+00   0.000000e+00
       32000   3.199900e-07   1.091068e-01   1.576955e+01   2.021244e+01   2.845262e+04   5.413984e+05   1.045706e+06  -7.152296e+07   3.758814e+06   2.989618e-16   1.177889e+06   1.713961e-26   0.000000e+00   0.000000e+00
       40000   3.999900e-07   1.113828e-01   1.581286e+01   2.029610e+01   2.844670e+04   5.413987e+05   1.045706e+06  -2.177648e+07   1.144201e+06   6.950463e-16   1.177889e+06   1.590304e-27   0.000000e+00   0.000000e+00
       48000   4.799900e-07   1.136583e-01   1.585617e+01   2.037975e+01   2.844146e+04   5.413990e+05   1.045706e+06  -9.587326e+07   5.036537e+06  -9.429388e-15   1.177889e+06   3.079829e-26   0.000000e+00   0.000000e+00
       56000   5.599900e-07   1.159335e-01   1.589949e+01   2.046341e+01   2.843849e+04   5.413991e+05   1.045706e+06   7.152906e+06  -3.757262e+05   5.735844e-17   1.177889e+06   1.710929e-28   0.000000e+00   0.000000e+00
       64000   6.399900e-07   1.182083e-01   1.594280e+01   2.054707e+01   2.843405e+04   5.413994e+05   1.045706e+06  -2.520592e+07   1.323804e+06  -8.289795e-16   1.177889e+06   2.130432e-27   0.000000e+00   0.000000e+00
       72000   7.199900e-07   1.204830e-01   1.598611e+01   2.063072e+01   2.843156e+04   5.413995e+05   1.045706e+06  -8.559716e+07   4.495130e+06  -3.909654e-15   1.177889e+06   2.454942e-26   0.000000e+00   0.000000e+00
       80000   7.999900e-07   1.227573e-01   1.602942e+01   2.071438e+01   2.842759e+04   5.413997e+05   1.045706e+06  -5.076526e+07   2.665561e+06  -2.843759e-15   1.177889e+06   8.633834e-27   0.000000e+00   0.000000e+00
       88000   8.799900e-07   1.250313e-01   1.607273e+01   2.079804e+01   2.842115e+04   5.414000e+05   1.045706e+06  -1.101054e+08   5.780054e+06  -2.638531e-15   1.177889e+06   4.062142e-26   0.000000e+00   0.000000e+00
       96000   9.599900e-07   1.273049e-01   1.611604e+01   2.088169e+01   2.841863e+04   5.414002e+05   1.045706e+06  -7.524633e+07   3.949754e+06   7.907291e-15   1.177889e+06   1.897061e-26   0.000000e+00   0.000000e+00
      104000   1.039990e-06   1.295782e-01   1.615936e+01   2.096535e+01   2.841572e+04   5.414003e+05   1.045706e+06   5.136459e+05  -2.695901e+04  -2.098214e-17   1.177889e+06   8.577583e-31   0.000000e+00   0.000000e+00
      112000   1.119990e-06   1.318514e-01   1.620267e+01   2.104901e+01   2.841262e+04   5.414005e+05   1.045706e+06  -3.211167e+07   1.685215e+06   2.522345e-16   1.177889e+06   3.457252e-27   0.000000e+00   0.000000e+00
      120000   1.199990e-06   1.341244e-01   1.624598e+01   2.113266e+01   2.841031e+04   5.414006e+05   1.045706e+06  -6.483259e+07   3.402128e+06  -2.292186e-15   1.177889e+06   1.408260e-26   0.000000e+00   0.000000e+00
      128000   1.279990e-06   1.363970e-01   1.628929e+01   2.121632e+01   2.840445e+04   5.414009e+05   1.045706e+06  -2.888706e+06   1.515552e+05   2.876987e-16   1.177889e+06   2.811428e-29   0.000000e+00   0.000000e+00
      136000   1.359990e-06   1.386692e-01   1.633261e+01   2.129998e+01   2.840051e+04   5.414011e+05   1.045706e+06  -8.946902e+07   4.693315e+06  -9.894633e-15   1.177889e+06   2.682056e-26   0.000000e+00   0.000000e+00
      144000   1.439990e-06   1.409412e-01   1.637592e+01   2.138363e+01   2.840015e+04   5.414011e+05   1.045706e+06   2.648796e+07  -1.389473e+06  -3.357466e-16   1.177889e+06   2.349836e-27   0.000000e+00   0.000000e+00
      152000   1.519990e-06   1.432131e-01   1.641923e+01   2.146729e+01   2.839773e+04   5.414013e+05   1.045706e+06  -6.236875e+06   3.271383e+05  -1.979414e-16   1.177889e+06   1.306808e-28   0.000000e+00   0.000000e+00
      160000   1.599990e-06   1.454849e-01   1.646254e+01   2.155094e+01   2.839495e+04   5.414014e+05   1.045706e+06  -7.903400e+07   4.145107e+06  -4.910504e-15   1.177889e+06   2.092860e-26   0.000000e+00   0.000000e+00
      168000   1.679990e-06   1.477562e-01   1.650585e+01   2.163460e+01   2.839013e+04   5.414017e+05   1.045706e+06  -4.374551e+07   2.293936e+06  -9.515172e-17   1.177889e+06   6.410796e-27   0.000000e+00   0.000000e+00
      176000   1.759990e-06   1.500273e-01   1.654917e+01   2.171826e+01   2.838563e+04   5.414019e+05   1.045706e+06  -9.684330e+06   5.077482e+05  -5.865217e-16   1.177889e+06   3.147982e-28   0.000000e+00   0.000000e+00
      184000   1.839990e-06   1.522981e-01   1.659248e+01   2.180191e+01   2.838714e+04   5.414018e+05   1.045706e+06  -6.854498e+07   3.593996e+06   1.025627e-14   1.177889e+06   1.574164e-26   0.000000e+00   0.000000e+00
      192000   1.919990e-06   1.545690e-01   1.663579e+01   2.188557e+01   2.838572e+04   5.414019e+05   1.045706e+06   1.988885e+07  -1.042773e+06   2.379206e-16   1.177889e+06   1.324560e-27   0.000000e+00   0.000000e+00
      200000   1.999990e-06   1.568398e-01   1.667910e+01   2.196923e+01   2.838153e+04   5.414021e+05   1.045706e+06  -9.336620e+07   4.894469e+06  -1.300778e-14   1.177889e+06   2.920806e-26   0.000000e+00   0.000000e+00
      208000   2.079990e-06   1.591101e-01   1.672241e+01   2.205288e+01   2.837683e+04   5.414024e+05   1.045706e+06  -5.793974e+07   3.036829e+06   2.054979e-15   1.177889e+06   1.124690e-26   0.000000e+00   0.000000e+00
      216000   2.159990e-06   1.613800e-01   1.676573e+01   2.213654e+01   2.837355e+04   5.414025e+05   1.045706e+06   1.648571e+07  -8.639750e+05   5.213162e-16   1.177889e+06   9.099033e-28   0.000000e+00   0.000000e+00
      224000   2.239990e-06   1.636500e-01   1.680904e+01   2.222020e+01   2.837543e+04   5.414024e+05   1.045706e+06  -1.658540e+07   8.692568e+05   2.721349e-16   1.177889e+06   9.226903e-28   0.000000e+00   0.000000e+00
      232000   2.319990e-06   1.659200e-01   1.685235e+01   2.230385e+01   2.837628e+04   5.414024e+05   1.045706e+06  -4.731834e+07   2.480075e+06  -1.889731e-15   1.177889e+06   7.500896e-27   0.000000e+00   0.000000e+00
      240000   2.399990e-06   1.681899e-01   1.689566e+01   2.238751e+01   2.837008e+04   5.414027e+05   1.045706e+06  -1.078259e+08   5.650192e+06  -4.101624e-15   1.177889e+06   3.895631e-26   0.000000e+00   0.000000e+00
      248000   2.479990e-06   1.704594e-01   1.693898e+01   2.247117e+01   2.836611e+04   5.414029e+05   1.045706e+06  -7.226285e+07   3.786119e+06  -4.571722e-15   1.177889e+06   1.749570e-26   0.000000e+00   0.000000e+00
      256000   2.559990e-06   1.727285e-01   1.698229e+01   2.255482e+01   2.836499e+04   5.414030e+05   1.045706e+06   4.290093e+07  -2.247650e+06   3.534922e-15   1.177889e+06   6.165468e-27   0.000000e+00   0.000000e+00
      264000   2.639990e-06   1.749978e-01   1.702560e+01   2.263848e+01   2.836596e+04   5.414029e+05   1.045706e+06   9.734195e+06  -5.100079e+05  -2.841573e-16   1.177889e+06   3.170207e-28   0.000000e+00   0.000000e+00
      272000   2.719990e-06   1.772672e-01   1.706891e+01   2.272214e+01   2.836676e+04   5.414029e+05   1.045706e+06  -6.162073e+07   3.228614e+06   2.987545e-15   1.177889e+06   1.272151e-26   0.000000e+00   0.000000e+00
      280000   2.799990e-06   1.795363e-01   1.711222e+01   2.280579e+01   2.836233e+04   5.414031e+05   1.045706e+06  -2.578369e+07   1.350723e+06  -1.594103e-15   1.177889e+06   2.226514e-27   0.000000e+00   0.000000e+00
      288000   2.879990e-06   1.818051e-01   1.715554e+01   2.288945e+01   2.835783e+04   5.414034e+05   1.045706e+06  -8.671132e+07   4.541798e+06   1.001688e-15   1.177889e+06   2.519224e-26   0.000000e+00   0.000000e+00
      296000   2.959990e-06   1.840738e-01   1.719885e+01   2.297311e+01   2.835984e+04   5.414032e+05   1.045706e+06   6.955628e+07  -3.643504e+06  -2.999539e-15   1.177889e+06   1.620935e-26   0.000000e+00   0.000000e+00
      304000   3.039990e-06   1.863425e-01   1.724216e+01   2.305676e+01   2.835934e+04   5.414033e+05   1.045706e+06   3.629444e+07  -1.901145e+06  -4.896362e-15   1.177889e+06   4.412471e-27   0.000000e+00   0.000000e+00
      312000   3.119990e-06   1.886113e-01   1.728547e+01   2.314042e+01   2.835915e+04   5.414033e+05   1.045706e+06  -7.604806e+07   3.983461e+06  -3.374123e-16   1.177889e+06   1.937674e-26   0.000000e+00   0.000000e+00
      320000   3.199990e-06   1.908799e-01   1.732879e+01   2.322407e+01   2.835721e+04   5.414034e+05   1.045706e+06  -4.007968e+07   2.099262e+06   3.586202e-16   1.177889e+06   5.381136e-27   0.000000e+00   0.000000e+00
      328000   3.279990e-06   1.931483e-01   1.737210e+01   2.330773e+01   2.835250e+04   5.414036e+05   1.045706e+06   3.287443e+07  -1.721585e+06   7.558160e-16   1.177889e+06   3.619908e-27   0.000000e+00   0.000000e+00
      336000   3.359990e-06   1.954166e-01   1.741541e+01   2.339139e+01   2.835370e+04   5.414036e+05   1.045706e+06  -6.528857e+07   3.419211e+06  -1.057233e-16   1.177889e+06   1.428116e-26   0.000000e+00   0.000000e+00
      344000   3.439990e-06   1.976849e-01   1.745872e+01   2.347504e+01   2.835562e+04   5.414035e+05   1.045706e+06   6.309017e+07  -3.304302e+06   5.348804e-16   1.177889e+06   1.333537e-26   0.000000e+00   0.000000e+00
      352000   3.519990e-06   1.999534e-01   1.750203e+01   2.355870e+01   2.835391e+04   5.414036e+05   1.045706e+06   2.958331e+07  -1.549311e+06  -1.513241e-16   1.177889e+06   2.931233e-27   0.000000e+00   0.000000e+00
      360000   3.599990e-06   2.022217e-01   1.754535e+01   2.364236e+01   2.835332e+04   5.414036e+05   1.045706e+06  -1.228762e+06   6.435028e+04   4.177999e-17   1.177889e+06   5.075933e-30   0.000000e+00   0.000000e+00
      368000   3.679990e-06   2.044900e-01   1.758866e+01   2.372601e+01   2.835326e+04   5.414036e+05   1.045706e+06  -1.398539e+07   7.324135e+05  -3.823057e-16   1.177889e+06   6.552693e-28   0.000000e+00   0.000000e+00
      376000   3.759990e-06   2.067582e-01   1.763197e+01   2.380967e+01   2.835285e+04   5.414036e+05   1.045706e+06  -5.088177e+06   2.664635e+05  -8.969628e-17   1.177889e+06   8.669311e-29   0.000000e+00   0.000000e+00
      384000   3.839990e-06   2.090264e-01   1.767528e+01   2.389333e+01   2.835182e+04   5.414037e+05   1.045706e+06  -2.059422e+07   1.078463e+06  -4.376907e-16   1.177889e+06   1.421019e-27   0.000000e+00   0.000000e+00
      392000   3.919990e-06   2.112945e-01   1.771860e+01   2.397698e+01   2.835149e+04   5.414037e+05   1.045706e+06  -1.169192e+07   6.122664e+05  -1.045590e-15   1.177889e+06   4.579500e-28   0.000000e+00   0.000000e+00
      400000   3.999990e-06   2.135626e-01   1.776191e+01   2.406064e+01   2.835111e+04   5.414037e+05   1.045706e+06   4.414211e+06  -2.311543e+05   3.696186e-16   1.177889e+06   6.523914e-29   0.000000e+00   0.000000e+00
      408000   4.079990e-06   2.158307e-01   1.780522e+01   2.414430e+01   2.835093e+04   5.414037e+05   1.045706e+06  -4.248898e+06   2.224961e+05  -1.453540e-16   1.177889e+06   6.055474e-29   0.000000e+00   0.000000e+00
      416000   4.159990e-06   2.180988e-01   1.784853e+01   2.422795e+01   2.835081e+04   5.414037e+05   1.045706e+06  -9.384265e+06   4.914105e+05  -4.251241e-17   1.177889e+06   2.949926e-28   0.000000e+00   0.000000e+00
      424000   4.239990e-06   2.203668e-01   1.789185e+01   2.431161e+01   2.834972e+04   5.414038e+05   1.045706e+06   2.917413e+06  -1.527655e+05   1.860795e-16   1.177889e+06   2.848373e-29   0.000000e+00   0.000000e+00
      432000   4.319990e-06   2.226348e-01   1.793516e+01   2.439527e+01   2.834916e+04   5.414038e+05   1.045706e+06  -1.602456e+07   8.390831e+05   1.499942e-17   1.177889e+06   8.603146e-28   0.000000e+00   0.000000e+00
      440000   4.399990e-06   2.249027e-01   1.797847e+01   2.447892e+01   2.834928e+04   5.414038e+05   1.045706e+06   1.010480e+07  -5.291128e+05  -1.412435e-16   1.177889e+06   3.420387e-28   0.000000e+00   0.000000e+00
      448000   4.479990e-06   2.271707e-01   1.802178e+01   2.456258e+01   2.834917e+04   5.414038e+05   1.045706e+06   1.417099e+06  -7.420262e+04  -5.116753e-17   1.177889e+06   6.710762e-30   0.000000e+00   0.000000e+00
      456000   4.559990e-06   2.294386e-01   1.806509e+01   2.464623e+01   2.834893e+04   5.414038e+05   1.045706e+06  -1.371528e+07   7.181582e+05   3.662858e-16   1.177889e+06   6.301973e-28   0.000000e+00   0.000000e+00
      464000   4.639990e-06   2.317065e-01   1.810841e+01   2.472989e+01   2.834797e+04   5.414039e+05   1.045706e+06  -4.722964e+06   2.472949e+05  -6.348761e-17   1.177889e+06   7.468950e-29   0.000000e+00   0.000000e+00
      472000   4.719990e-06   2.339743e-01   1.815172e+01   2.481355e+01   2.834719e+04   5.414039e+05   1.045706e+06  -9.558241e+04   5.004569e+03   7.921968e-18   1.177889e+06   3.190536e-32   0.000000e+00   0.000000e+00
      480000   4.799990e-06   2.362421e-01   1.819503e+01   2.489720e+01   2.834782e+04   5.414039e+05   1.045706e+06   1.584153e+07  -8.294602e+05  -1.992967e-15   1.177889e+06   8.407671e-28   0.000000e+00   0.000000e+00
      488000   4.879990e-06   2.385099e-01   1.823834e+01   2.498086e+01   2.834779e+04   5.414039e+05   1.045706e+06   7.129527e+06  -3.733005e+05   5.529681e-16   1.177889e+06   1.702428e-28   0.000000e+00   0.000000e+00
      496000   4.959990e-06   2.407777e-01   1.828166e+01   2.506452e+01   2.834721e+04   5.414039e+05   1.045706e+06  -1.808019e+07   9.466557e+05  -1.144514e-15   1.177889e+06   1.095223e-27   0.000000e+00   0.000000e+00
      504000   5.039990e-06   2.430454e-01   1.832497e+01   2.514817e+01   2.834628e+04   5.414040e+05   1.045706e+06  -9.059980e+06   4.743532e+05  -2.190105e-16   1.177889e+06   2.749517e-28   0.000000e+00   0.000000e+00
      512000   5.119990e-06   2.453131e-01   1.836828e+01   2.523183e+01   2.834567e+04   5.414040e+05   1.045706e+06   5.622021e+06  -2.943457e+05   2.925440e-16   1.177889e+06   1.058440e-28   0.000000e+00   0.000000e+00
      520000   5.199990e-06   2.475808e-01   1.841159e+01   2.531549e+01   2.834619e+04   5.414040e+05   1.045706e+06  -3.145512e+06   1.646890e+05   2.474101e-16   1.177889e+06   3.319911e-29   0.000000e+00   0.000000e+00
      528000   5.279990e-06   2.498485e-01   1.845491e+01   2.539914e+01   2.834658e+04   5.414039e+05   1.045706e+06   1.288691e+07  -6.747270e+05   1.405591e-16   1.177889e+06   5.563563e-28   0.000000e+00   0.000000e+00
      536000   5.359990e-06   2.521162e-01   1.849822e+01   2.548280e+01   2.834543e+04   5.414040e+05   1.045706e+06  -2.247773e+07   1.176831e+06   1.201839e-15   1.177889e+06   1.692852e-27   0.000000e+00   0.000000e+00
      544000   5.439990e-06   2.543838e-01   1.854153e+01   2.556646e+01   2.834498e+04   5.414040e+05   1.045706e+06  -1.343006e+07   7.031251e+05  -1.594200e-16   1.177889e+06   6.042527e-28   0.000000e+00   0.000000e+00
      552000   5.519990e-06   2.566513e-01   1.858484e+01   2.565011e+01   2.834476e+04   5.414040e+05   1.045706e+06   1.138420e+07  -5.960103e+05   9.745515e-16   1.177889e+06   4.341522e-28   0.000000e+00   0.000000e+00
      560000   5.599990e-06   2.589189e-01   1.862815e+01   2.573377e+01   2.834490e+04   5.414040e+05   1.045706e+06   2.593568e+06  -1.357848e+05  -2.010493e-16   1.177889e+06   2.250669e-29   0.000000e+00   0.000000e+00
      568000   5.679990e-06   2.611866e-01   1.867147e+01   2.581743e+01   2.834531e+04   5.414040e+05   1.045706e+06  -1.108484e+07   5.803492e+05   9.583329e-18   1.177889e+06   4.116182e-28   0.000000e+00   0.000000e+00
      576000   5.759990e-06   2.634541e-01   1.871478e+01   2.590108e+01   2.834464e+04   5.414040e+05   1.045706e+06  -1.980445e+06   1.036841e+05   1.298086e-16   1.177889e+06   1.311736e-29   0.000000e+00   0.000000e+00
      584000   5.839990e-06   2.657217e-01   1.875809e+01   2.598474e+01   2.834385e+04   5.414041e+05   1.045706e+06  -1.783205e+07   9.335520e+05   1.019368e-15   1.177889e+06   1.065360e-27   0.000000e+00   0.000000e+00
      592000   5.919990e-06   2.679892e-01   1.880140e+01   2.606839e+01   2.834419e+04   5.414041e+05   1.045706e+06  -8.723164e+06   4.566849e+05   6.037434e-17   1.177889e+06   2.548829e-28   0.000000e+00   0.000000e+00
      600000   5.999990e-06   2.702567e-01   1.884472e+01   2.615205e+01   2.834400e+04   5.414041e+05   1.045706e+06   8.375964e+06  -4.385049e+05  -8.488091e-16   1.177889e+06   2.349906e-28   0.000000e+00   0.000000e+00
      608000   6.079990e-06   2.725243e-01   1.888803e+01   2.623571e+01   2.834419e+04   5.414041e+05   1.045706e+06  -1.548514e+07   8.106954e+05   1.029727e-15   1.177889e+06   8.033583e-28   0.000000e+00   0.000000e+00
      616000   6.159990e-06   2.747918e-01   1.893134e+01   2.631936e+01   2.834403e+04   5.414041e+05   1.045706e+06  -6.354845e+06   3.326940e+05  -2.463249e-16   1.177889e+06   1.352472e-28   0.000000e+00   0.000000e+00
      624000   6.239990e-06   2.770593e-01   1.897465e+01   2.640302e+01   2.834296e+04   5.414041e+05   1.045706e+06   6.852117e+06  -3.587141e+05   9.538160e-16   1.177889e+06   1.572473e-28   0.000000e+00   0.000000e+00
      632000   6.319990e-06   2.793267e-01   1.901797e+01   2.648668e+01   2.834318e+04   5.414041e+05   1.045706e+06  -1.312991e+07   6.873669e+05   3.248769e-16   1.177889e+06   5.775394e-28   0.000000e+00   0.000000e+00
      640000   6.399990e-06   2.815942e-01   1.906128e+01   2.657033e+01   2.834349e+04   5.414041e+05   1.045706e+06   1.420009e+07  -7.434006e+05  -5.008827e-16   1.177889e+06   6.755358e-28   0.000000e+00   0.000000e+00
      648000   6.479990e-06   2.838617e-01   1.910459e+01   2.665399e+01   2.834342e+04   5.414041e+05   1.045706e+06   5.331967e+06  -2.791374e+05  -1.576859e-16   1.177889e+06   9.519943e-29   0.000000e+00   0.000000e+00
      656000   6.559990e-06   2.861292e-01   1.914790e+01   2.673765e+01   2.834359e+04   5.414041e+05   1.045706e+06  -1.076012e+07   5.633138e+05   4.948678e-16   1.177889e+06   3.878496e-28   0.000000e+00   0.000000e+00
      664000   6.639990e-06   2.883966e-01   1.919121e+01   2.682130e+01   2.834281e+04   5.414041e+05   1.045706e+06   1.268061e+07  -6.638372e+05  -4.096128e-16   1.177889e+06   5.386810e-28   0.000000e+00   0.000000e+00
      672000   6.719990e-06   2.906640e-01   1.923453e+01   2.690496e+01   2.834242e+04   5.414042e+05   1.045706e+06   3.793867e+06  -1.986083e+05   3.258145e-16   1.177889e+06   4.818242e-29   0.000000e+00   0.000000e+00
      680000   6.799990e-06   2.929315e-01   1.927784e+01   2.698862e+01   2.834338e+04   5.414041e+05   1.045706e+06   2.006424e+07  -1.050395e+06   1.726216e-16   1.177889e+06   1.348801e-27   0.000000e+00   0.000000e+00
      688000   6.879990e-06   2.951989e-01   1.932115e+01   2.707227e+01   2.834348e+04   5.414041e+05   1.045706e+06   1.117455e+07  -5.850081e+05  -4.323940e-16   1.177889e+06   4.183042e-28   0.000000e+00   0.000000e+00
      696000   6.959990e-06   2.974664e-01   1.936446e+01   2.715593e+01   2.834332e+04   5.414041e+05   1.045706e+06  -1.519501e+07   7.954816e+05   2.647702e-16   1.177889e+06   7.735307e-28   0.000000e+00   0.000000e+00
      704000   7.039990e-06   2.997338e-01   1.940778e+01   2.723959e+01   2.834275e+04   5.414041e+05   1.045706e+06  -5.982792e+06   3.132019e+05   7.773035e-16   1.177889e+06   1.198690e-28   0.000000e+00   0.000000e+00
      712000   7.119990e-06   3.020013e-01   1.945109e+01   2.732324e+01   2.834269e+04   5.414041e+05   1.045706e+06  -2.233263e+01   1.169121e+00   1.630698e-21   1.177889e+06   1.671290e-39   0.000000e+00   0.000000e+00
      720000   7.199990e-06   3.042687e-01   1.949440e+01   2.740690e+01   2.834269e+04   5.414041e+05   1.045706e+06  -2.126714e+01   1.113342e+00  -1.492984e-22   1.177889e+06   1.515757e-39   0.000000e+00   0.000000e+00
      728000   7.279990e-06   3.065361e-01   1.953771e+01   2.749056e+01   2.834269e+04   5.414041e+05   1.045706e+06  -2.266205e+01   1.186366e+00  -7.180170e-22   1.177889e+06   1.721005e-39   0.000000e+00   0.000000e+00
      736000   7.359990e-06   3.088035e-01   1.958103e+01   2.757421e+01   2.834269e+04   5.414041e+05   1.045706e+06  -1.932457e+01   1.011648e+00  -7.146866e-22   1.177889e+06   1.251471e-39   0.000000e+00   0.000000e+00
      744000   7.439990e-06   3.110709e-01   1.962434e+01   2.765787e+01   2.834269e+04   5.414041e+05   1.045706e+06  -1.986468e+01   1.039922e+00  -5.494082e-22   1.177889e+06   1.322447e-39   0.000000e+00   0.000000e+00
      752000   7.519990e-06   3.133383e-01   1.966765e+01   2.774152e+01   2.834269e+04   5.414041e+05   1.045706e+06  -2.567717e+01   1.344209e+00   2.126111e-21   1.177889e+06   2.209323e-39   0.000000e+00   0.000000e+00
      760000   7.599990e-06   3.156057e-01   1.971096e+01   2.782518e+01   2.834269e+04   5.414041e+05   1.045706e+06  -2.174632e+01   1.138427e+00  -9.933162e-22   1.177889e+06   1.584654e-39   0.000000e+00   0.000000e+00
      768000   7.679990e-06   3.178732e-01   1.975428e+01   2.790884e+01   2.834269e+04   5.414041e+05   1.045706e+06  -1.907225e+01   9.984387e-01  -8.622241e-22   1.177889e+06   1.219147e-39   0.000000e+00   0.000000e+00
      776000   7.759990e-06   3.201406e-01   1.979759e+01   2.799249e+01   2.834269e+04   5.414041e+05   1.045706e+06  -8.170116e+00   4.277083e-01   3.305135e-22   1.177889e+06   2.237647e-40   0.000000e+00   0.000000e+00
      784000   7.839990e-06   3.224080e-01   1.984090e+01   2.807615e+01   2.834269e+04   5.414041e+05   1.045706e+06  -1.910231e+01   1.000012e+00   2.714432e-22   1.177889e+06   1.222830e-39   0.000000e+00   0.000000e+00
      792000   7.919990e-06   3.246754e-01   1.988421e+01   2.815981e+01   2.834269e+04   5.414041e+05   1.045706e+06  -1.728067e+01   9.046487e-01  -1.017738e-22   1.177889e+06   1.000717e-39   0.000000e+00   0.000000e+00
      800000   7.999990e-06   3.269428e-01   1.992752e+01   2.824346e+01   2.834269e+04   5.414041e+05   1.045706e+06  -2.059719e+01   1.078270e+00  -1.951310e-21   1.177889e+06   1.421633e-39   0.000000e+00   0.000000e+00
      808000   8.079990e-06   3.292102e-01   1.997084e+01   2.832712e+01   2.834269e+04   5.414041e+05   1.045706e+06  -2.192490e+01   1.147776e+00   1.067994e-21   1.177889e+06   1.610783e-39   0.000000e+00   0.000000e+00
      816000   8.159990e-06   3.314776e-01   2.001415e+01   2.841078e+01   2.834269e+04   5.414041e+05   1.045706e+06  -2.395898e+01   1.254260e+00   4.879495e-22   1.177889e+06   1.923908e-39   0.000000e+00   0.000000e+00
      824000   8.239990e-06   3.337451e-01   2.005746e+01   2.849443e+01   2.834269e+04   5.414041e+05   1.045706e+06  -1.122893e+01   5.878382e-01  -1.119303e-21   1.177889e+06   4.226589e-40   0.000000e+00   0.000000e+00
      832000   8.319990e-06   3.360125e-01   2.010077e+01   2.857809e+01   2.834269e+04   5.414041e+05   1.045706e+06  -1.386108e+01   7.256320e-01  -5.852581e-22   1.177889e+06   6.439338e-40   0.000000e+00   0.000000e+00
      840000   8.399990e-06   3.382799e-01   2.014409e+01   2.866175e+01   2.834269e+04   5.414041e+05   1.045706e+06  -3.005824e+01   1.573559e+00   1.897458e-21   1.177889e+06   3.027371e-39   0.000000e+00   0.000000e+00
      848000   8.479990e-06   3.405473e-01   2.018740e+01   2.874540e+01   2.834269e+04   5.414041e+05   1.045706e+06  -1.700296e+01   8.901107e-01  -1.864577e-22   1.177889e+06   9.689154e-40   0.000000e+00   0.000000e+00
      856000   8.559990e-06   3.428147e-01   2.023071e+01   2.882906e+01   2.834269e+04   5.414041e+05   1.045706e+06  -1.892193e+01   9.905693e-01  -2.513356e-21   1.177889e+06   1.199942e-39   0.000000e+00   0.000000e+00
      864000   8.639990e-06   3.450821e-01   2.027402e+01   2.891272e+01   2.834269e+04   5.414041e+05   1.045706e+06  -1.792111e+01   9.381762e-01  -4.717883e-22   1.177889e+06   1.076211e-39   0.000000e+00   0.000000e+00
      872000   8.719990e-06   3.473496e-01   2.031734e+01   2.899637e+01   2.834269e+04   5.414041e+05   1.045706e+06  -2.396855e+01   1.254761e+00  -9.624864e-22   1.177889e+06   1.925107e-39   0.000000e+00   0.000000e+00
      880000   8.799990e-06   3.496170e-01   2.036065e+01   2.908003e+01   2.834269e+04   5.414041e+05   1.045706e+06  -1.772641e+01   9.279833e-01   1.809641e-21   1.177889e+06   1.053071e-39   0.000000e+00   0.000000e+00
      888000   8.879990e-06   3.518844e-01   2.040396e+01   2.916368e+01   2.834269e+04   5.414041e+05   1.045706e+06  -2.756699e+01   1.443141e+00   1.032611e-21   1.177889e+06   2.546577e-39   0.000000e+00   0.000000e+00
      896000   8.959990e-06   3.541518e-01   2.044727e+01   2.924734e+01   2.834269e+04   5.414041e+05   1.045706e+06  -2.449258e+01   1.282195e+00  -2.195025e-21   1.177889e+06   2.010322e-39   0.000000e+00   0.000000e+00
      904000   9.039990e-06   3.564192e-01   2.049058e+01   2.933100e+01   2.834269e+04   5.414041e+05   1.045706e+06  -2.625703e+01   1.374564e+00  -7.625789e-22   1.177889e+06   2.310301e-39   0.000000e+00   0.000000e+00
      912000   9.119990e-06   3.586866e-01   2.053390e+01   2.941465e+01   2.834269e+04   5.414041e+05   1.045706e+06  -2.204673e+01   1.154154e+00  -1.452835e-21   1.177889e+06   1.628987e-39   0.000000e+00   0.000000e+00
      920000   9.199990e-06   3.609540e-01   2.057721e+01   2.949831e+01   2.834269e+04   5.414041e+05   1.045706e+06  -1.408490e+01   7.373489e-01   7.461693e-22   1.177889e+06   6.649037e-40   0.000000e+00   0.000000e+00
      928000   9.279990e-06   3.632215e-01   2.062052e+01   2.958197e+01   2.834269e+04   5.414041e+05   1.045706e+06  -2.014201e+01   1.054441e+00   4.018016e-22   1.177889e+06   1.359630e-39   0.000000e+00   0.000000e+00
      936000   9.359990e-06   3.654889e-01   2.066383e+01   2.966562e+01   2.834269e+04   5.414041e+05   1.045706e+06  -2.362392e+01   1.236720e+00  -3.332189e-22   1.177889e+06   1.870186e-39   0.000000e+00   0.000000e+00
      944000   9.439990e-06   3.677563e-01   2.070715e+01   2.974928e+01   2.834269e+04   5.414041e+05   1.045706e+06  -2.085383e+01  -1.218936e+00   1.196312e+00   1.177889e+06   1.463054e-39   0.000000e+00   0.000000e+00
      952000   9.519990e-06   3.700237e-01   2.075046e+01   2.983294e+01   2.834269e+04   5.414041e+05   1.045706e+06  -2.318887e+01   1.939250e+01  -9.411772e+00   1.177889e+06   3.349595e-39   0.000000e+00   0.000000e+00
      960000   9.599990e-06   3.722911e-01   2.079377e+01   2.991659e+01   2.834269e+04   5.414041e+05   1.045706e+06  -2.705091e+01   2.344687e+00  -4.807542e-01   1.177889e+06   2.464618e-39   0.000000e+00   0.000000e+00
      968000   9.679990e-06   3.745585e-01   2.083708e+01   3.000025e+01   2.834269e+04   5.414041e+05   1.045706e+06  -2.617084e+01  -6.026452e+00   3.829468e+00   1.177889e+06   2.459338e-39   0.000000e+00   0.000000e+00
      976000   9.759990e-06   3.768259e-01   2.088040e+01   3.008391e+01   2.834269e+04   5.414041e+05   1.045706e+06  -2.912117e+01   3.875100e+00  -1.216999e+00   1.177889e+06   2.889151e-39   0.000000e+00   0.000000e+00
      984000   9.839990e-06   3.790934e-01   2.092371e+01   3.016756e+01   2.834269e+04   5.414041e+05   1.045706e+06  -2.293902e+01   1.294458e+00  -4.845665e-02   1.177889e+06   1.764190e-39   0.000000e+00   0.000000e+00
      992000   9.919990e-06   3.813608e-01   2.096702e+01   3.025122e+01   2.834269e+04   5.414041e+05   1.045706e+06  -2.339687e+01   1.224834e+00   8.463960e-23   1.177889e+06   1.834558e-39   0.000000e+00   0.000000e+00
     1000000   9.999990e-06   3.836282e-01   2.101033e+01   3.033488e+01   2.834269e+04   5.414041e+05   1.045706e+06  -2.912096e+01   1.524492e+00  -6.513148e-22   1.177889e+06   2.841699e-39   0.000000e+00   0.000000e+00
     1008000   1.007999e-05   3.858956e-01   2.105365e+01   3.041853e+01   2.834269e+04   5.414041e+05   1.045706e+06  -3.547912e+01   1.857344e+00   1.535129e-21   1.177889e+06   4.218047e-39   0.000000e+00   0.000000e+00
     1016000   1.015999e-05   3.881630e-01   2.109696e+01   3.050219e+01   2.834269e+04   5.414041e+05   1.045706e+06  -4.541183e+01   2.377324e+00   1.695696e-21   1.177889e+06   6.910561e-39   0.000000e+00   0.000000e+00
     1024000   1.023999e-05   3.904304e-01   2.114027e+01   3.058585e+01   2.834269e+04   5.414041e+05   1.045706e+06  -7.788414e+00   4.077261e-01   1.104715e-22   1.177889e+06   2.033419e-40   0.000000e+00   0.000000e+00
     1032000   1.031999e-05   3.926979e-01   2.118358e+01   3.066950e+01   2.834269e+04   5.414041e+05   1.045706e+06  -2.047829e+01   1.072045e+00   5.929970e-22   1.177889e+06   1.405251e-39   0.000000e+00   0.000000e+00
     1040000   1.039999e-05   3.949653e-01   2.122689e+01   3.075316e+01   2.834269e+04   5.414041e+05   1.045706e+06  -2.977814e+01   1.558895e+00  -6.917109e-22   1.177889e+06   2.971430e-39   0.000000e+00   0.000000e+00
     1048000   1.047999e-05   3.972327e-01   2.127021e+01   3.083681e+01   2.834269e+04   5.414041e+05   1.045706e+06  -1.989496e+01   1.041508e+00   1.132733e-21   1.177889e+06   1.326551e-39   0.000000e+00   0.000000e+00
     1056000   1.055999e-05   3.995001e-01   2.131352e+01   3.092047e+01   2.834269e+04   5.414041e+05   1.045706e+06  -1.863253e+01   9.754191e-01   6.879426e-22   1.177889e+06   1.163330e-39   0.000000e+00   0.000000e+00
     1064000   1.063999e-05   4.017675e-01   2.135683e+01   3.100413e+01   2.834269e+04   5.414041e+05   1.045706e+06  -2.369020e+01   1.240190e+00   1.889600e-21   1.177889e+06   1.880644e-39   0.000000e+00   0.000000e+00
     1072000   1.071999e-05   4.040349e-01   2.140014e+01   3.108778e+01   2.834269e+04   5.414041e+05   1.045706e+06  -3.390621e+01   1.775001e+00   2.578151e-21   1.177889e+06   3.852460e-39   0.000000e+00   0.000000e+00
     1080000   1.079999e-05   4.063023e-01   2.144346e+01   3.117144e+01   2.834269e+04   5.414041e+05   1.045706e+06  -2.365769e+01   1.238488e+00   6.974610e-22   1.177889e+06   1.875798e-39   0.000000e+00   0.000000e+00
     1088000   1.087999e-05   4.085698e-01   2.148677e+01   3.125510e+01   2.834269e+04   5.414041e+05   1.045706e+06  -2.809483e+01   1.470774e+00   7.640410e-22   1.177889e+06   2.645028e-39   0.000000e+00   0.000000e+00
     1096000   1.095999e-05   4.108372e-01   2.153008e+01   3.133875e+01   2.834269e+04   5.414041e+05   1.045706e+06  -2.440457e+01   1.277587e+00   1.571415e-22   1.177889e+06   1.995781e-39   0.000000e+00   0.000000e+00
     1104000   1.103999e-05   4.131046e-01   2.157339e+01   3.142241e+01   2.834269e+04   5.414041e+05   1.045706e+06  -2.653810e+01   1.389278e+00  -3.963405e-23   1.177889e+06   2.360111e-39   0.000000e+00   0.000000e+00
     1112000   1.111999e-05   4.153720e-01   2.161671e+01   3.150607e+01   2.834269e+04   5.414041e+05   1.045706e+06  -2.584554e+01   1.353023e+00  -1.796244e-21   1.177889e+06   2.238539e-39   0.000000e+00   0.000000e+00
     1120000   1.119999e-05   4.176394e-01   2.166002e+01   3.158972e+01   2.834269e+04   5.414041e+05   1.045706e+06  -2.505705e+01   1.311745e+00   2.485372e-22   1.177889e+06   2.104037e-39   0.000000e+00   0.000000e+00
     1128000   1.127999e-05   4.199068e-01   2.170333e+01   3.167338e+01   2.834269e+04   5.414041e+05   1.045706e+06  -2.450245e+01   1.282711e+00   9.003911e-22   1.177889e+06   2.011995e-39   0.000000e+00   0.000000e+00
     1136000   1.135999e-05   4.221742e-01   2.174664e+01   3.175704e+01   2.834269e+04   5.414041e+05   1.045706e+06  -2.814799e+01   1.473557e+00   2.488182e-21   1.177889e+06   2.655042e-39   0.000000e+00   0.000000e+00
     1144000   1.143999e-05   4.244417e-01   2.178995e+01   3.184069e+01   2.834269e+04   5.414041e+05   1.045706e+06  -2.216686e+01   1.160443e+00   4.414859e-22   1.177889e+06   1.646714e-39   0.000000e+00   0.000000e+00
     1152000   1.151999e-05   4.267091e-01   2.183327e+01   3.192435e+01   2.834269e+04   5.414041e+05   1.045706e+06  -2.484594e+01   1.300693e+00   4.973499e-22   1.177889e+06   2.068803e-39   0.000000e+00   0.000000e+00
     1160000   1.159999e-05   4.289765e-01   2.187658e+01   3.200801e+01   2.834269e+04   5.414041e+05   1.045706e+06  -3.246929e+01   1.699778e+00  -1.898048e-22   1.177889e+06   3.532780e-39   0.000000e+00   0.000000e+00
     1168000   1.167999e-05   4.312439e-01   2.191989e+01   3.209166e+01   2.834269e+04   5.414041e+05   1.045706e+06  -2.109555e+01   1.104359e+00   4.301250e-22   1.177889e+06   1.491439e-39   0.000000e+00   0.000000e+00
     1176000   1.175999e-05   4.335113e-01   2.196320e+01   3.217532e+01   2.834269e+04   5.414041e+05   1.045706e+06  -3.376962e+01   1.767851e+00  -3.865735e-22   1.177889e+06   3.821339e-39   0.000000e+00   0.000000e+00
     1184000   1.183999e-05   4.357787e-01   2.200652e+01   3.225897e+01   2.834269e+04   5.414041e+05   1.045706e+06  -2.843034e+01   1.488337e+00   6.443645e-24   1.177889e+06   2.708508e-39   0.000000e+00   0.000000e+00
     1192000   1.191999e-05   4.380461e-01   2.204983e+01   3.234263e+01   2.834269e+04   5.414041e+05   1.045706e+06  -2.298550e+01   1.203299e+00   3.327181e-22   1.177889e+06   1.770611e-39   0.000000e+00   0.000000e+00
     1200000   1.199999e-05   4.403136e-01   2.209314e+01   3.242629e+01   2.834269e+04   5.414041e+05   1.045706e+06  -3.294002e+01   1.724421e+00   1.638090e-21   1.177889e+06   3.635944e-39   0.000000e+00   0.000000e+00
     1208000   1.207999e-05   4.425810e-01   2.213645e+01   3.250994e+01   2.834269e+04   5.414041e+05   1.045706e+06  -3.130434e+01   1.638793e+00  -1.162240e-21   1.177889e+06   3.283749e-39   0.000000e+00   0.000000e+00
     1216000   1.215999e-05   4.448484e-01   2.217977e+01   3.259360e+01   2.834269e+04   5.414041e+05   1.045706e+06  -3.979281e+01   2.083167e+00   1.345081e-21   1.177889e+06   5.306109e-39   0.000000e+00   0.000000e+00
     1224000   1.223999e-05   4.471158e-01   2.222308e+01   3.267726e+01   2.834269e+04   5.414041e+05   1.045706e+06  -2.977063e+01   1.558502e+00   2.249989e-21   1.177889e+06   2.969968e-39   0.000000e+00   0.000000e+00
     1232000   1.231999e-05   4.493832e-01   2.226639e+01   3.276091e+01   2.834269e+04   5.414041e+05   1.045706e+06  -2.027264e+01   1.061280e+00  -1.628123e-21   1.177889e+06   1.377354e-39   0.000000e+00   0.000000e+00
     1240000   1.239999e-05   4.516506e-01   2.230970e+01   3.284457e+01   2.834269e+04   5.414041e+05   1.045706e+06  -2.630379e+01   1.377012e+00  -1.258630e-21   1.177889e+06   2.318776e-39   0.000000e+00   0.000000e+00
     1248000   1.247999e-05   4.539181e-01   2.235302e+01   3.292823e+01   2.834269e+04   5.414041e+05   1.045706e+06  -2.679953e+01   1.402964e+00   1.505585e-21   1.177889e+06   2.406752e-39   0.000000e+00   0.000000e+00
     1256000   1.255999e-05   4.561855e-01   2.239633e+01   3.301188e+01   2.834269e+04   5.414041e+05   1.045706e+06  -2.163819e+01   1.132766e+00   4.195579e-23   1.177889e+06   1.569173e-39   0.000000e+00   0.000000e+00
     1264000   1.263999e-05   4.584529e-01   2.243964e+01   3.309554e+01   2.834269e+04   5.414041e+05   1.045706e+06  -3.721556e+01   1.948247e+00   1.581483e-21   1.177889e+06   4.641072e-39   0.000000e+00   0.000000e+00
     1272000   1.271999e-05   4.607203e-01   2.248295e+01   3.317920e+01   2.834269e+04   5.414041e+05   1.045706e+06  -3.037596e+01   1.590192e+00  -4.236054e-22   1.177889e+06   3.091982e-39   0.000000e+00   0.000000e+00
     1280000   1.279999e-05   4.629877e-01   2.252626e+01   3.326285e+01   2.834269e+04   5.414041e+05   1.045706e+06  -2.556834e+01   1.338511e+00   3.805863e-21   1.177889e+06   2.191100e-39   0.000000e+00   0.000000e+00
     1288000   1.287999e-05   4.652551e-01   2.256958e+01   3.334651e+01   2.834269e+04   5.414041e+05   1.045706e+06  -4.625879e+01   2.421663e+00   1.762292e-21   1.177889e+06   7.170447e-39   0.000000e+00   0.000000e+00
     1296000   1.295999e-05   4.675225e-01   2.261289e+01   3.343017e+01   2.834269e+04   5.414041e+05   1.045706e+06  -2.947103e+01   1.542818e+00   1.239810e-21   1.177889e+06   2.910506e-39   0.000000e+00   0.000000e+00
     1304000   1.303999e-05   4.697900e-01   2.265620e+01   3.351382e+01   2.834269e+04   5.414041e+05   1.045706e+06  -2.394620e+01   1.253592e+00  -4.228360e-23   1.177889e+06   1.921782e-39   0.000000e+00   0.000000e+00
     1312000   1.311999e-05   4.720574e-01   2.269951e+01   3.359748e+01   2.834269e+04   5.414041e+05   1.045706e+06  -1.500278e+01   7.854007e-01   9.272426e-22   1.177889e+06   7.543946e-40   0.000000e+00   0.000000e+00
     1320000   1.319999e-05   4.743248e-01   2.274283e+01   3.368114e+01   2.834269e+04   5.414041e+05   1.045706e+06  -3.094673e+01   1.620072e+00   4.663068e-22   1.177889e+06   3.209322e-39   0.000000e+00   0.000000e+00
     1328000   1.327999e-05   4.765922e-01   2.278614e+01   3.376479e+01   2.834269e+04   5.414041e+05   1.045706e+06  -3.354242e+01   1.755957e+00   5.818917e-22   1.177889e+06   3.770224e-39   0.000000e+00   0.000000e+00
     1336000   1.335999e-05   4.788596e-01   2.282945e+01   3.384845e+01   2.834269e+04   5.414041e+05   1.045706e+06  -3.547316e+01   1.857032e+00   1.364721e-21   1.177889e+06   4.216911e-39   0.000000e+00   0.000000e+00
     1344000   1.343999e-05   4.811270e-01   2.287276e+01   3.393210e+01   2.834269e+04   5.414041e+05   1.045706e+06  -2.743674e+01   1.436322e+00   3.604506e-22   1.177889e+06   2.522777e-39   0.000000e+00   0.000000e+00
     1352000   1.351999e-05   4.833944e-01   2.291608e+01   3.401576e+01   2.834269e+04   5.414041e+05   1.045706e+06  -2.845334e+01   1.489542e+00   1.271615e-21   1.177889e+06   2.712863e-39   0.000000e+00   0.000000e+00
     1360000   1.359999e-05   4.856619e-01   2.295939e+01   3.409942e+01   2.834269e+04   5.414041e+05   1.045706e+06  -3.604511e+01   1.886974e+00   9.953744e-23   1.177889e+06   4.353716e-39   0.000000e+00   0.000000e+00
     1368000   1.367999e-05   4.879293e-01   2.300270e+01   3.418307e+01   2.834269e+04   5.414041e+05   1.045706e+06  -3.457569e+01   1.810049e+00  -1.907055e-21   1.177889e+06   4.006109e-39   0.000000e+00   0.000000e+00
     1376000   1.375999e-05   4.901967e-01   2.304601e+01   3.426673e+01   2.834269e+04   5.414041e+05   1.045706e+06  -4.779748e+01   2.502214e+00   5.720597e-21   1.177889e+06   7.655615e-39   0.000000e+00   0.000000e+00
     1384000   1.383999e-05   4.924641e-01   2.308932e+01   3.435039e+01   2.834269e+04   5.414041e+05   1.045706e+06  -4.252298e+01   2.226092e+00   1.131460e-21   1.177889e+06   6.059404e-39   0.000000e+00   0.000000e+00
     1392000   1.391999e-05   4.947315e-01   2.313264e+01   3.443404e+01   2.834269e+04   5.414041e+05   1.045706e+06  -1.826580e+01   9.562207e-01   1.188435e-21   1.177889e+06   1.118294e-39   0.000000e+00   0.000000e+00
     1400000   1.399999e-05   4.969989e-01   2.317595e+01   3.451770e+01   2.834269e+04   5.414041e+05   1.045706e+06  -2.302661e+01   1.205451e+00   5.770816e-22   1.177889e+06   1.776814e-39   0.000000e+00   0.000000e+00
     1408000   1.407999e-05   4.992664e-01   2.321926e+01   3.460136e+01   2.834269e+04   5.414041e+05   1.045706e+06  -3.431245e+01   1.796268e+00   3.375211e-22   1.177889e+06   3.945335e-39   0.000000e+00   0.000000e+00
     1416000   1.415999e-05   5.015338e-01   2.326257e+01   3.468501e+01   2.834269e+04   5.414041e+05   1.045706e+06  -3.189419e+01   1.669671e+00  -2.335939e-21   1.177889e+06   3.408890e-39   0.000000e+00   0.000000e+00
     1424000   1.423999e-05   5.038012e-01   2.330589e+01   3.476867e+01   2.834269e+04   5.414041e+05   1.045706e+06  -3.281416e+01   1.717832e+00   6.003082e-22   1.177889e+06   3.608574e-39   0.000000e+00   0.000000e+00
     1432000   1.431999e-05   5.060686e-01   2.334920e+01   3.485233e+01   2.834269e+04   5.414041e+05   1.045706e+06  -3.621835e+01   1.896043e+00  -2.745962e-22   1.177889e+06   4.395698e-39   0.000000e+00   0.000000e+00
     1440000   1.439999e-05   5.083360e-01   2.339251e+01   3.493598e+01   2.834269e+04   5.414041e+05   1.045706e+06  -3.056563e+01   1.600121e+00   1.546183e-21   1.177889e+06   3.130988e-39   0.000000e+00   0.000000e+00
     1448000   1.447999e-05   5.106034e-01   2.343582e+01   3.501964e+01   2.834269e+04   5.414041e+05   1.045706e+06  -3.378232e+01   1.768516e+00   5.298075e-21   1.177889e+06   3.824571e-39   0.000000e+00   0.000000e+00
     1456000   1.455999e-05   5.128708e-01   2.347914e+01   3.510330e+01   2.834269e+04   5.414041e+05   1.045706e+06  -3.368257e+01   1.763294e+00  -9.610738e-23   1.177889e+06   3.801807e-39   0.000000e+00   0.000000e+00
     1464000   1.463999e-05   5.151383e-01   2.352245e+01   3.518695e+01   2.834269e+04   5.414041e+05   1.045706e+06  -3.363832e+01   1.760977e+00   1.019820e-21   1.177889e+06   3.791905e-39   0.000000e+00   0.000000e+00
     1472000   1.471999e-05   5.174057e-01   2.356576e+01   3.527061e+01   2.834269e+04   5.414041e+05   1.045706e+06  -4.208051e+01   2.202929e+00  -4.614475e-23   1.177889e+06   5.933798e-39   0.000000e+00   0.000000e+00
     1480000   1.479999e-05   5.196731e-01   2.360907e+01   3.535426e+01   2.834269e+04   5.414041e+05   1.045706e+06  -3.989376e+01   2.088451e+00  -3.624688e-21   1.177889e+06   5.333241e-39   0.000000e+00   0.000000e+00
     1488000   1.487999e-05   5.219405e-01   2.365239e+01   3.543792e+01   2.834269e+04   5.414041e+05   1.045706e+06  -3.346690e+01   1.752003e+00  -1.217344e-22   1.177889e+06   3.753698e-39   0.000000e+00   0.000000e+00
     1496000   1.495999e-05   5.242079e-01   2.369570e+01   3.552158e+01   2.834269e+04   5.414041e+05   1.045706e+06  -3.264775e+01   1.709121e+00  -1.624836e-21   1.177889e+06   3.571791e-39   0.000000e+00   0.000000e+00
     1504000   1.503999e-05   5.264753e-01   2.373901e+01   3.560523e+01   2.834269e+04   5.414041e+05   1.045706e+06  -3.113023e+01   1.629678e+00  -1.083446e-21   1.177889e+06   3.247465e-39   0.000000e+00   0.000000e+00
     1512000   1.511999e-05   5.287427e-01   2.378232e+01   3.568889e+01   2.834269e+04   5.414041e+05   1.045706e+06  -3.409002e+01   1.784624e+00   2.020123e-21   1.177889e+06   3.894353e-39   0.000000e+00   0.000000e+00
     1520000   1.519999e-05   5.310102e-01   2.382563e+01   3.577255e+01   2.834269e+04   5.414041e+05   1.045706e+06  -4.106431e+01   2.149730e+00   4.252082e-22   1.177889e+06   5.650742e-39   0.000000e+00   0.000000e+00
     1528000   1.527999e-05   5.332776e-01   2.386895e+01   3.585620e+01   2.834269e+04   5.414041e+05   1.045706e+06  -3.435108e+01   1.798290e+00   1.043895e-21   1.177889e+06   3.954447e-39   0.000000e+00   0.000000e+00
     1536000   1.535999e-05   5.355450e-01   2.391226e+01   3.593986e+01   2.834269e+04   5.414041e+05   1.045706e+06  -3.271935e+01   1.712869e+00   3.065964e-23   1.177889e+06   3.587734e-39   0.000000e+00   0.000000e+00
     1544000   1.543999e-05   5.378124e-01   2.395557e+01   3.602352e+01   2.834269e+04   5.414041e+05   1.045706e+06  -3.691459e+01   1.932491e+00   9.711607e-22   1.177889e+06   4.566349e-39   0.000000e+00   0.000000e+00
     1552000   1.551999e-05   5.400798e-01   2.399888e+01   3.610717e+01   2.834269e+04   5.414041e+05   1.045706e+06  -3.128138e+01   1.637591e+00   1.587068e-21   1.177889e+06   3.279319e-39   0.000000e+00   0.000000e+00
     1560000   1.559999e-05   5.423472e-01   2.404220e+01   3.619083e+01   2.834269e+04   5.414041e+05   1.045706e+06  -3.587502e+01   1.878069e+00   1.663376e-22   1.177889e+06   4.312957e-39   0.000000e+00   0.000000e+00
     1568000   1.567999e-05   5.446146e-01   2.408551e+01   3.627449e+01   2.834269e+04   5.414041e+05   1.045706e+06  -3.275811e+01   1.714898e+00   5.473999e-22   1.177889e+06   3.596130e-39   0.000000e+00   0.000000e+00
     1576000   1.575999e-05   5.468821e-01   2.412882e+01   3.635814e+01   2.834269e+04   5.414041e+05   1.045706e+06  -3.710597e+01   1.942510e+00   3.768928e-21   1.177889e+06   4.614031e-39   0.000000e+00   0.000000e+00
     1584000   1.583999e-05   5.491495e-01   2.417213e+01   3.644180e+01   2.834269e+04   5.414041e+05   1.045706e+06  -3.986160e+01   2.086768e+00   1.242924e-22   1.177889e+06   5.324540e-39   0.000000e+00   0.000000e+00
     1592000   1.591999e-05   5.514169e-01   2.421545e+01   3.652546e+01   2.834269e+04   5.414041e+05   1.045706e+06  -3.469990e+01   1.816551e+00  -1.601739e-21   1.177889e+06   4.034938e-39   0.000000e+00   0.000000e+00
     1600000   1.599999e-05   5.536843e-01   2.425876e+01   3.660911e+01   2.834269e+04   5.414041e+05   1.045706e+06  -3.277777e+01   1.715927e+00  -1.671299e-21   1.177889e+06   3.600442e-39   0.000000e+00   0.000000e+00
     1608000   1.607999e-05   5.559517e-01   2.430207e+01   3.669277e+01   2.834269e+04   5.414041e+05   1.045706e+06  -4.493087e+01   2.352146e+00   7.041395e-22   1.177889e+06   6.764631e-39   0.000000e+00   0.000000e+00
     1616000   1.615999e-05   5.582191e-01   2.434538e+01   3.677643e+01   2.834269e+04   5.414041e+05   1.045706e+06  -2.757874e+01   1.443756e+00  -2.184249e-21   1.177889e+06   2.549142e-39   0.000000e+00   0.000000e+00
     1624000   1.623999e-05   5.604866e-01   2.438869e+01   3.686008e+01   2.834269e+04   5.414041e+05   1.045706e+06  -5.029806e+01   2.633120e+00   2.413219e-21   1.177889e+06   8.477363e-39   0.000000e+00   0.000000e+00
     1632000   1.631999e-05   5.627540e-01   2.443201e+01   3.694374e+01   2.834269e+04   5.414041e+05   1.045706e+06  -3.802329e+01   1.990532e+00   1.244344e-21   1.177889e+06   4.844901e-39   0.000000e+00   0.000000e+00
     1640000   1.639999e-05   5.650214e-01   2.447532e+01   3.702739e+01   2.834269e+04   5.414041e+05   1.045706e+06  -2.717223e+01   1.422475e+00   1.689072e-21   1.177889e+06   2.474525e-39   0.000000e+00   0.000000e+00
     1648000   1.647999e-05   5.672888e-01   2.451863e+01   3.711105e+01   2.834269e+04   5.414041e+05   1.045706e+06  -3.427664e+01   1.794394e+00   8.411394e-22   1.177889e+06   3.937013e-39   0.000000e+00   0.000000e+00
     1656000   1.655999e-05   5.695562e-01   2.456194e+01   3.719471e+01   2.834269e+04   5.414041e+05   1.045706e+06  -4.056021e+01   2.123341e+00  -4.697119e-22   1.177889e+06   5.512820e-39   0.000000e+00   0.000000e+00
     1664000   1.663999e-05   5.718236e-01   2.460526e+01   3.727836e+01   2.834269e+04   5.414041e+05   1.045706e+06  -3.762034e+01   1.969437e+00   6.153244e-22   1.177889e+06   4.742920e-39   0.000000e+00   0.000000e+00
     1672000   1.671999e-05   5.740910e-01   2.464857e+01   3.736202e+01   2.834269e+04   5.414041e+05   1.045706e+06  -3.268150e+01   1.710887e+00  -1.136688e-21   1.177889e+06   3.579336e-39   0.000000e+00   0.000000e+00
     1680000   1.679999e-05   5.763585e-01   2.469188e+01   3.744568e+01   2.834269e+04   5.414041e+05   1.045706e+06  -3.086807e+01   1.615954e+00   1.111455e-21   1.177889e+06   3.193165e-39   0.000000e+00   0.000000e+00
     1688000   1.687999e-05   5.786259e-01   2.473519e+01   3.752933e+01   2.834269e+04   5.414041e+05   1.045706e+06  -3.909264e+01   2.046512e+00   5.355657e-21   1.177889e+06   5.121288e-39   0.000000e+00   0.000000e+00
     1696000   1.695999e-05   5.808933e-01   2.477851e+01   3.761299e+01   2.834269e+04   5.414041e+05   1.045706e+06  -4.547377e+01   2.380567e+00   1.156800e-22   1.177889e+06   6.929494e-39   0.000000e+00   0.000000e+00
     1704000   1.703999e-05   5.831607e-01   2.482182e+01   3.769665e+01   2.834269e+04   5.414041e+05   1.045706e+06  -3.454992e+01   1.808700e+00   1.533759e-21   1.177889e+06   4.000252e-39   0.000000e+00   0.000000e+00
     1712000   1.711999e-05   5.854281e-01   2.486513e+01   3.778030e+01   2.834269e+04   5.414041e+05   1.045706e+06  -3.295575e+01   1.725245e+00  -1.280815e-21   1.177889e+06   3.639547e-39   0.000000e+00   0.000000e+00
     1720000   1.719999e-05   5.876955e-01   2.490844e+01   3.786396e+01   2.834269e+04   5.414041e+05   1.045706e+06  -3.669102e+01   1.920787e+00   2.895610e-21   1.177889e+06   4.511220e-39   0.000000e+00   0.000000e+00
     1728000   1.727999e-05   5.899629e-01   2.495176e+01   3.794762e+01   2.834269e+04   5.414041e+05   1.045706e+06  -3.400692e+01   1.780273e+00  -1.157802e-21   1.177889e+06   3.875649e-39   0.000000e+00   0.000000e+00
     1736000   1.735999e-05   5.922304e-01   2.499507e+01   3.803127e+01   2.834269e+04   5.414041e+05   1.045706e+06  -3.644726e+01   1.908026e+00   6.964164e-23   1.177889e+06   4.451479e-39   0.000000e+00   0.000000e+00
     1744000   1.743999e-05   5.944978e-01   2.503838e+01   3.811493e+01   2.834269e+04   5.414041e+05   1.045706e+06  -2.830168e+01   1.481603e+00  -7.218754e-23   1.177889e+06   2.684239e-39   0.000000e+00   0.000000e+00
     1752000   1.751999e-05   5.967652e-01   2.508169e+01   3.819859e+01   2.834269e+04   5.414041e+05   1.045706e+06  -2.661327e+01   1.393214e+00  -5.085931e-22   1.177889e+06   2.373524e-39   0.000000e+00   0.000000e+00
     1760000   1.759999e-05   5.990326e-01   2.512500e+01   3.828224e+01   2.834269e+04   5.414041e+05   1.045706e+06  -4.636418e+01   2.427180e+00   1.289876e-21   1.177889e+06   7.203492e-39   0.000000e+00   0.000000e+00
     1768000   1.767999e-05   6.013000e-01   2.516832e+01   3.836590e+01   2.834269e+04   5.414041e+05   1.045706e+06  -3.826131e+01   2.002992e+00   2.833730e-21   1.177889e+06   4.905792e-39   0.000000e+00   0.000000e+00
     1776000   1.775999e-05   6.035674e-01   2.521163e+01   3.844955e+01   2.834269e+04   5.414041e+05   1.045706e+06  -3.418755e+01   1.789730e+00   3.630042e-21   1.177889e+06   3.917060e-39   0.000000e+00   0.000000e+00
     1784000   1.783999e-05   6.058349e-01   2.525494e+01   3.853321e+01   2.834269e+04   5.414041e+05   1.045706e+06  -3.575926e+01   1.872009e+00   1.521916e-21   1.177889e+06   4.285071e-39   0.000000e+00   0.000000e+00
     1792000   1.791999e-05   6.081023e-01   2.529825e+01   3.861687e+01   2.834269e+04   5.414041e+05   1.045706e+06  -1.992938e+01   1.043310e+00   5.863290e-22   1.177889e+06   1.331179e-39   0.000000e+00   0.000000e+00
     1800000   1.799999e-05   6.103697e-01   2.534157e+01   3.870052e+01   2.834269e+04   5.414041e+05   1.045706e+06  -3.634653e+01   1.902753e+00   3.128330e-21   1.177889e+06   4.427367e-39   0.000000e+00   0.000000e+00
     1808000   1.807999e-05   6.126371e-01   2.538488e+01   3.878418e+01   2.834269e+04   5.414041e+05   1.045706e+06  -2.646761e+01   1.385588e+00   2.841916e-21   1.177889e+06   2.347794e-39   0.000000e+00   0.000000e+00
     1816000   1.815999e-05   6.149045e-01   2.542819e+01   3.886784e+01   2.834269e+04   5.414041e+05   1.045706e+06  -3.725695e+01   1.950414e+00  -3.493197e-22   1.177889e+06   4.651713e-39   0.000000e+00   0.000000e+00
     1824000   1.823999e-05   6.171719e-01   2.547150e+01   3.895149e+01   2.834269e+04   5.414041e+05   1.045706e+06  -3.781076e+01   1.979406e+00   1.457625e-21   1.177889e+06   4.790955e-39   0.000000e+00   0.000000e+00
     1832000   1.831999e-05   6.194393e-01   2.551482e+01   3.903515e+01   2.834269e+04   5.414041e+05   1.045706e+06  -3.570909e+01   1.869383e+00   3.146742e-22   1.177889e+06   4.273057e-39   0.000000e+00   0.000000e+00
     1840000   1.839999e-05   6.217068e-01   2.555813e+01   3.911881e+01   2.834269e+04   5.414041e+05   1.045706e+06  -3.033078e+01   1.587826e+00   8.604462e-22   1.177889e+06   3.083050e-39   0.000000e+00   0.000000e+00
     1848000   1.847999e-05   6.239742e-01   2.560144e+01   3.920246e+01   2.834269e+04   5.414041e+05   1.045706e+06  -3.458560e+01   1.810567e+00  -1.453908e-21   1.177889e+06   4.008552e-39   0.000000e+00   0.000000e+00
     1856000   1.855999e-05   6.262416e-01   2.564475e+01   3.928612e+01   2.834269e+04   5.414041e+05   1.045706e+06  -3.242840e+01   1.697637e+00  -7.698535e-23   1.177889e+06   3.524101e-39   0.000000e+00   0.000000e+00
     1864000   1.863999e-05   6.285090e-01   2.568806e+01   3.936978e+01   2.834269e+04   5.414041e+05   1.045706e+06  -4.716104e+01   2.468896e+00   1.211230e-21   1.177889e+06   7.453076e-39   0.000000e+00   0.000000e+00
     1872000   1.871999e-05   6.307764e-01   2.573138e+01   3.945343e+01   2.834269e+04   5.414041e+05   1.045706e+06  -4.125369e+01   2.159644e+00   8.471837e-22   1.177889e+06   5.702888e-39   0.000000e+00   0.000000e+00
     1880000   1.879999e-05   6.330438e-01   2.577469e+01   3.953709e+01   2.834269e+04   5.414041e+05   1.045706e+06  -3.101782e+01   1.623793e+00  -7.228858e-22   1.177889e+06   3.224354e-39   0.000000e+00   0.000000e+00
     1888000   1.887999e-05   6.353112e-01   2.581800e+01   3.962075e+01   2.834269e+04   5.414041e+05   1.045706e+06  -3.464937e+01   1.813906e+00   2.401439e-21   1.177889e+06   4.023381e-39   0.000000e+00   0.000000e+00
     1896000   1.895999e-05   6.375787e-01   2.586131e+01   3.970440e+01   2.834269e+04   5.414041e+05   1.045706e+06  -3.292794e+01   1.723789e+00   2.532439e-21   1.177889e+06   3.633498e-39   0.000000e+00   0.000000e+00
     1904000   1.903999e-05   6.398461e-01   2.590463e+01   3.978806e+01   2.834269e+04   5.414041e+05   1.045706e+06  -3.982464e+01   2.084833e+00  -6.615580e-22   1.177889e+06   5.314468e-39   0.000000e+00   0.000000e+00
     1912000   1.911999e-05   6.421135e-01   2.594794e+01   3.987172e+01   2.834269e+04   5.414041e+05   1.045706e+06  -3.877769e+01   2.030025e+00  -7.853423e-22   1.177889e+06   5.039188e-39   0.000000e+00   0.000000e+00
     1920000   1.919999e-05   6.443809e-01   2.599125e+01   3.995537e+01   2.834269e+04   5.414041e+05   1.045706e+06  -5.145503e+01   2.693688e+00  -3.215333e-21   1.177889e+06   8.871958e-39   0.000000e+00   0.000000e+00
     1928000   1.927999e-05   6.466483e-01   2.603456e+01   4.003903e+01   2.834269e+04   5.414041e+05   1.045706e+06  -3.006661e+01   1.573997e+00   4.353623e-22   1.177889e+06   3.029639e-39   0.000000e+00   0.000000e+00
     1936000   1.935999e-05   6.489157e-01   2.607788e+01   4.012268e+01   2.834269e+04   5.414041e+05   1.045706e+06  -2.622804e+01   1.373047e+00   4.521930e-22   1.177889e+06   2.305455e-39   0.000000e+00   0.000000e+00
     1944000   1.943999e-05   6.511831e-01   2.612119e+01   4.020634e+01   2.834269e+04   5.414041e+05   1.045706e+06  -3.231072e+01   1.691477e+00  -9.606173e-22   1.177889e+06   3.498127e-39   0.000000e+00   0.000000e+00
     1952000   1.951999e-05   6.534506e-01   2.616450e+01   4.029000e+01   2.834269e+04   5.414041e+05   1.045706e+06  -4.654375e+01   2.436581e+00  -2.216232e-21   1.177889e+06   7.259050e-39   0.000000e+00   0.000000e+00
     1960000   1.959999e-05   6.557180e-01   2.620781e+01   4.037365e+01   2.834269e+04   5.414041e+05   1.045706e+06  -3.941524e+01   2.063401e+00   3.725646e-22   1.177889e+06   5.205897e-39   0.000000e+00   0.000000e+00
     1968000   1.967999e-05   6.579854e-01   2.625112e+01   4.045731e+01   2.834269e+04   5.414041e+05   1.045706e+06  -2.903326e+01   1.519901e+00   1.500485e-21   1.177889e+06   2.824912e-39   0.000000e+00   0.000000e+00
     1976000   1.975999e-05   6.602528e-01   2.629444e+01   4.054097e+01   2.834269e+04   5.414041e+05   1.045706e+06  -4.477595e+01   2.344036e+00   1.824530e-22   1.177889e+06   6.718302e-39   0.000000e+00   0.000000e+00
     1984000   1.983999e-05   6.625202e-01   2.633775e+01   4.062462e+01   2.834269e+04   5.414041e+05   1.045706e+06  -3.674502e+01   1.923614e+00  -5.281835e-22   1.177889e+06   4.524463e-39   0.000000e+00   0.000000e+00
     1992000   1.991999e-05   6.647876e-01   2.638106e+01   4.070828e+01   2.834269e+04   5.414041e+05   1.045706e+06  -3.360327e+01   1.759143e+00   1.308990e-21   1.177889e+06   3.784201e-39   0.000000e+00   0.000000e+00
     2000000   1.999999e-05   6.670551e-01   2.642437e+01   4.079194e+01   2.834269e+04   5.414041e+05   1.045706e+06  -4.096115e+01   2.144330e+00  -2.023192e-21   1.177889e+06   5.622407e-39   0.000000e+00   0.000000e+00
     2008000   2.007999e-05   6.693225e-01   2.646769e+01   4.087559e+01   2.834269e+04   5.414041e+05   1.045706e+06  -2.193957e+01   1.148544e+00   9.556271e-22   1.177889e+06   1.613191e-39   0.000000e+00   0.000000e+00
     2016000   2.015999e-05   6.715899e-01   2.651100e+01   4.095925e+01   2.834269e+04   5.414041e+05   1.045706e+06  -2.105942e+01   1.102467e+00   5.628521e-22   1.177889e+06   1.486321e-39   0.000000e+00   0.000000e+00
     2024000   2.023999e-05   6.738573e-01   2.655431e+01   4.104291e+01   2.834269e+04   5.414041e+05   1.045706e+06  -3.775803e+01   1.976645e+00   3.738459e-21   1.177889e+06   4.777252e-39   0.000000e+00   0.000000e+00
     2032000   2.031999e-05   6.761247e-01   2.659762e+01   4.112656e+01   2.834269e+04   5.414041e+05   1.045706e+06  -2.582256e+01   1.351820e+00   8.874299e-22   1.177889e+06   2.234668e-39   0.000000e+00   0.000000e+00
     2040000   2.039999e-05   6.783921e-01   2.664094e+01   4.121022e+01   2.834269e+04   5.414041e+05   1.045706e+06  -3.704081e+01   1.939099e+00   3.039563e-22   1.177889e+06   4.597901e-39   0.000000e+00   0.000000e+00
     2048000   2.047999e-05   6.806595e-01   2.668425e+01   4.129388e+01   2.834269e+04   5.414041e+05   1.045706e+06  -3.415218e+01   1.787878e+00  -1.410706e-22   1.177889e+06   3.908734e-39   0.000000e+00   0.000000e+00
     2056000   2.055999e-05   6.829270e-01   2.672756e+01   4.137753e+01   2.834269e+04   5.414041e+05   1.045706e+06  -2.153986e+01   1.127619e+00  -9.955785e-22   1.177889e+06   1.554945e-39   0.000000e+00   0.000000e+00
     2064000   2.063999e-05   6.851944e-01   2.677087e+01   4.146119e+01   2.834269e+04   5.414041e+05   1.045706e+06  -4.495778e+01   2.353554e+00  -4.516491e-21   1.177889e+06   6.772820e-39   0.000000e+00   0.000000e+00
     2072000   2.071999e-05   6.874618e-01   2.681419e+01   4.154484e+01   2.834269e+04   5.414041e+05   1.045706e+06  -3.413619e+01   1.787041e+00  -5.988247e-22   1.177889e+06   3.904953e-39   0.000000e+00   0.000000e+00
     2080000   2.079999e-05   6.897292e-01   2.685750e+01   4.162850e+01   2.834269e+04   5.414041e+05   1.045706e+06  -2.680866e+01   1.403442e+00   9.881982e-22   1.177889e+06   2.408480e-39   0.000000e+00   0.000000e+00
     2088000   2.087999e-05   6.919966e-01   2.690081e+01   4.171216e+01   2.834269e+04   5.414041e+05   1.045706e+06  -2.518571e+01   1.318480e+00  -1.508963e-21   1.177889e+06   2.125761e-39   0.000000e+00   0.000000e+00
     2096000   2.095999e-05   6.942640e-01   2.694412e+01   4.179581e+01   2.834269e+04   5.414041e+05   1.045706e+06  -2.153353e+01   1.127288e+00   2.143943e-22   1.177889e+06   1.553958e-39   0.000000e+00   0.000000e+00
     2104000   2.103999e-05   6.965314e-01   2.698743e+01   4.187947e+01   2.834269e+04   5.414041e+05   1.045706e+06  -3.357038e+01   1.757421e+00   6.446963e-22   1.177889e+06   3.776525e-39   0.000000e+00   0.000000e+00
     2112000   2.111999e-05   6.987989e-01   2.703075e+01   4.196313e+01   2.834269e+04   5.414041e+05   1.045706e+06  -3.845065e+01   2.012904e+00  -2.106211e-21   1.177889e+06   4.954647e-39   0.000000e+00   0.000000e+00
     2120000   2.119999e-05   7.010663e-01   2.707406e+01   4.204678e+01   2.834269e+04   5.414041e+05   1.045706e+06  -3.490289e+01   1.827178e+00   1.751723e-21   1.177889e+06   4.082212e-39   0.000000e+00   0.000000e+00
     2128000   2.127999e-05   7.033337e-01   2.711737e+01   4.213044e+01   2.834269e+04   5.414041e+05   1.045706e+06  -3.069584e+01   1.606937e+00  -2.277887e-21   1.177889e+06   3.157439e-39   0.000000e+00   0.000000e+00
     2136000   2.135999e-05   7.056011e-01   2.716068e+01   4.221410e+01   2.834269e+04   5.414041e+05   1.045706e+06  -2.961470e+01   1.550339e+00   2.136757e-22   1.177889e+06   2.939057e-39   0.000000e+00   0.000000e+00
     2144000   2.143999e-05   7.078685e-01   2.720400e+01   4.229775e+01   2.834269e+04   5.414041e+05   1.045706e+06  -3.606647e+01   1.888092e+00   2.789753e-21   1.177889e+06   4.358868e-39   0.000000e+00   0.000000e+00
     2152000   2.151999e-05   7.101359e-01   2.724731e+01   4.238141e+01   2.834269e+04   5.414041e+05   1.045706e+06  -2.805100e+01   1.468479e+00   8.372943e-22   1.177889e+06   2.637052e-39   0.000000e+00   0.000000e+00
     2160000   2.159999e-05   7.124034e-01   2.729062e+01   4.246507e+01   2.834269e+04   5.414041e+05   1.045706e+06  -3.748018e+01   1.962100e+00  -1.497451e-21   1.177889e+06   4.707288e-39   0.000000e+00   0.000000e+00
     2168000   2.167999e-05   7.146708e-01   2.733393e+01   4.254872e+01   2.834269e+04   5.414041e+05   1.045706e+06  -3.459769e+01   1.811201e+00   5.593466e-22   1.177889e+06   4.011202e-39   0.000000e+00   0.000000e+00
     2176000   2.175999e-05   7.169382e-01   2.737725e+01   4.263238e+01   2.834269e+04   5.414041e+05   1.045706e+06  -3.149797e+01   1.648929e+00  -1.918629e-22   1.177889e+06   3.324826e-39   0.000000e+00   0.000000e+00
     2184000   2.183999e-05   7.192056e-01   2.742056e+01   4.271604e+01   2.834269e+04   5.414041e+05   1.045706e+06  -3.032697e+01   1.587627e+00  -1.007729e-21   1.177889e+06   3.082286e-39   0.000000e+00   0.000000e+00
     2192000   2.191999e-05   7.214730e-01   2.746387e+01   4.279969e+01   2.834269e+04   5.414041e+05   1.045706e+06  -2.338550e+01   1.224239e+00  -1.012107e-21   1.177889e+06   1.832803e-39   0.000000e+00   0.000000e+00
     2200000   2.199999e-05   7.237404e-01   2.750718e+01   4.288335e+01   2.834269e+04   5.414041e+05   1.045706e+06  -2.913349e+01   1.525148e+00   6.997383e-23   1.177889e+06   2.844280e-39   0.000000e+00   0.000000e+00
     2208000   2.207999e-05   7.260078e-01   2.755049e+01   4.296701e+01   2.834269e+04   5.414041e+05   1.045706e+06  -3.424719e+01   1.792852e+00   1.046441e-21   1.177889e+06   3.930277e-39   0.000000e+00   0.000000e+00
     2216000   2.215999e-05   7.282753e-01   2.759381e+01   4.305066e+01   2.834269e+04   5.414041e+05   1.045706e+06  -3.738003e+01   1.956857e+00  -3.513325e-21   1.177889e+06   4.682386e-39   0.000000e+00   0.000000e+00
     2224000   2.223999e-05   7.305427e-01   2.763712e+01   4.313432e+01   2.834269e+04   5.414041e+05   1.045706e+06  -3.607086e+01   1.888321e+00   1.147395e-21   1.177889e+06   4.360032e-39   0.000000e+00   0.000000e+00
     2232000   2.231999e-05   7.328101e-01   2.768043e+01   4.321797e+01   2.834269e+04   5.414041e+05   1.045706e+06  -3.258020e+01   1.705584e+00   2.028017e-22   1.177889e+06   3.557314e-39   0.000000e+00   0.000000e+00
     2240000   2.239999e-05   7.350775e-01   2.772374e+01   4.330163e+01   2.834269e+04   5.414041e+05   1.045706e+06  -3.001773e+01   1.571438e+00  -5.464283e-22   1.177889e+06   3.019515e-39   0.000000e+00   0.000000e+00
     2248000   2.247999e-05   7.373449e-01   2.776706e+01   4.338529e+01   2.834269e+04   5.414041e+05   1.045706e+06  -3.242346e+01   1.697379e+00   1.089590e-21   1.177889e+06   3.522904e-39   0.000000e+00   0.000000e+00
     2256000   2.255999e-05   7.396123e-01   2.781037e+01   4.346894e+01   2.834269e+04   5.414041e+05   1.045706e+06  -3.122191e+01   1.634478e+00   1.830408e-22   1.177889e+06   3.266497e-39   0.000000e+00   0.000000e+00
     2264000   2.263999e-05   7.418797e-01   2.785368e+01   4.355260e+01   2.834269e+04   5.414041e+05   1.045706e+06  -2.487425e+01   1.302175e+00  -3.050551e-21   1.177889e+06   2.073520e-39   0.000000e+00   0.000000e+00
     2272000   2.271999e-05   7.441472e-01   2.789699e+01   4.363626e+01   2.834269e+04   5.414041e+05   1.045706e+06  -3.677338e+01   1.925098e+00   1.607006e-21   1.177889e+06   4.531420e-39   0.000000e+00   0.000000e+00
     2280000   2.279999e-05   7.464146e-01   2.794031e+01   4.371991e+01   2.834269e+04   5.414041e+05   1.045706e+06  -3.260444e+01   1.706853e+00  -9.129116e-22   1.177889e+06   3.562373e-39   0.000000e+00   0.000000e+00
     2288000   2.287999e-05   7.486820e-01   2.798362e+01   4.380357e+01   2.834269e+04   5.414041e+05   1.045706e+06  -2.474493e+01   1.295405e+00  -7.703977e-22   1.177889e+06   2.052093e-39   0.000000e+00   0.000000e+00
     2296000   2.295999e-05   7.509494e-01   2.802693e+01   4.388723e+01   2.834269e+04   5.414041e+05   1.045706e+06  -3.661822e+01   1.916976e+00  -6.522190e-22   1.177889e+06   4.493133e-39   0.000000e+00   0.000000e+00
     2304000   2.303999e-05   7.532168e-01   2.807024e+01   4.397088e+01   2.834269e+04   5.414041e+05   1.045706e+06  -2.564925e+01   1.342747e+00  -1.805329e-22   1.177889e+06   2.204805e-39   0.000000e+00   0.000000e+00
     2312000   2.311999e-05   7.554842e-01   2.811356e+01   4.405454e+01   2.834269e+04   5.414041e+05   1.045706e+06  -2.642537e+01   1.383377e+00  -1.267520e-21   1.177889e+06   2.340215e-39   0.000000e+00   0.000000e+00
     2320000   2.319999e-05   7.577516e-01   2.815687e+01   4.413820e+01   2.834269e+04   5.414041e+05   1.045706e+06  -3.384577e+01   1.771837e+00   2.308342e-21   1.177889e+06   3.838617e-39   0.000000e+00   0.000000e+00
     2328000   2.327999e-05   7.600191e-01   2.820018e+01   4.422185e+01   2.834269e+04   5.414041e+05   1.045706e+06  -3.159500e+01   1.654009e+00   1.014718e-21   1.177889e+06   3.345258e-39   0.000000e+00   0.000000e+00
     2336000   2.335999e-05   7.622865e-01   2.824349e+01   4.430551e+01   2.834269e+04   5.414041e+05   1.045706e+06  -3.808645e+01   1.993838e+00   1.949107e-21   1.177889e+06   4.860916e-39   0.000000e+00   0.000000e+00
     2344000   2.343999e-05   7.645539e-01   2.828680e+01   4.438917e+01   2.834269e+04   5.414041e+05   1.045706e+06  -4.264102e+01   2.232271e+00   3.636317e-21   1.177889e+06   6.093035e-39   0.000000e+00   0.000000e+00
     2352000   2.351999e-05   7.668213e-01   2.833012e+01   4.447282e+01   2.834269e+04   5.414041e+05   1.045706e+06  -2.317539e+01   1.213239e+00   1.537375e-21   1.177889e+06   1.800178e-39   0.000000e+00   0.000000e+00
     2360000   2.359999e-05   7.690887e-01   2.837343e+01   4.455648e+01   2.834269e+04   5.414041e+05   1.045706e+06  -2.958372e+01   1.548717e+00   1.639332e-21   1.177889e+06   2.932804e-39   0.000000e+00   0.000000e+00
     2368000   2.367999e-05   7.713561e-01   2.841674e+01   4.464013e+01   2.834269e+04   5.414041e+05   1.045706e+06  -3.442562e+01   1.802192e+00   2.099455e-22   1.177889e+06   3.971029e-39   0.000000e+00   0.000000e+00
     2376000   2.375999e-05   7.736236e-01   2.846005e+01   4.472379e+01   2.834269e+04   5.414041e+05   1.045706e+06  -2.158030e+01   1.129736e+00  -1.133306e-22   1.177889e+06   1.560771e-39   0.000000e+00   0.000000e+00
     2384000   2.383999e-05   7.758910e-01   2.850337e+01   4.480745e+01   2.834269e+04   5.414041e+05   1.045706e+06  -3.080145e+01   1.612466e+00   1.057836e-21   1.177889e+06   3.179685e-39   0.000000e+00   0.000000e+00
     2392000   2.391999e-05   7.781584e-01   2.854668e+01   4.489110e+01   2.834269e+04   5.414041e+05   1.045706e+06  -1.619650e+01   8.478921e-01  -4.223486e-22   1.177889e+06   8.792865e-40   0.000000e+00   0.000000e+00
     2400000   2.399999e-05   7.804258e-01   2.858999e+01   4.497476e+01   2.834269e+04   5.414041e+05   1.045706e+06  -2.486907e+01   1.301904e+00  -5.475581e-22   1.177889e+06   2.072578e-39   0.000000e+00   0.000000e+00
     2408000   2.407999e-05   7.826932e-01   2.863330e+01   4.505842e+01   2.834269e+04   5.414041e+05   1.045706e+06  -3.542076e+01   1.854288e+00  -2.135214e-21   1.177889e+06   4.203970e-39   0.000000e+00   0.000000e+00
     2416000   2.415999e-05   7.849606e-01   2.867662e+01   4.514207e+01   2.834269e+04   5.414041e+05   1.045706e+06  -3.321290e+01   1.738706e+00  -1.862996e-21   1.177889e+06   3.696706e-39   0.000000e+00   0.000000e+00
     2424000   2.423999e-05   7.872280e-01   2.871993e+01   4.522573e+01   2.834269e+04   5.414041e+05   1.045706e+06  -3.263183e+01   1.708287e+00   3.334615e-21   1.177889e+06   3.568421e-39   0.000000e+00   0.000000e+00
     2432000   2.431999e-05   7.894955e-01   2.876324e+01   4.530939e+01   2.834269e+04   5.414041e+05   1.045706e+06  -3.030897e+01   1.586684e+00   5.366100e-23   1.177889e+06   3.078441e-39   0.000000e+00   0.000000e+00
     2440000   2.439999e-05   7.917629e-01   2.880655e+01   4.539304e+01   2.834269e+04   5.414041e+05   1.045706e+06  -2.694368e+01   1.410510e+00   6.758335e-22   1.177889e+06   2.432740e-39   0.000000e+00   0.000000e+00
     2448000   2.447999e-05   7.940303e-01   2.884986e+01   4.547670e+01   2.834269e+04   5.414041e+05   1.045706e+06  -2.318579e+01   1.213784e+00   1.037059e-21   1.177889e+06   1.801489e-39   0.000000e+00   0.000000e+00
     2456000   2.455999e-05   7.962977e-01   2.889318e+01   4.556036e+01   2.834269e+04   5.414041e+05   1.045706e+06  -3.114083e+01   1.630233e+00   4.677579e-21   1.177889e+06   3.249701e-39   0.000000e+00   0.000000e+00
     2464000   2.463999e-05   7.985651e-01   2.893649e+01   4.564401e+01   2.834269e+04   5.414041e+05   1.045706e+06  -2.653837e+01   1.389293e+00   2.743969e-21   1.177889e+06   2.360094e-39   0.000000e+00   0.000000e+00
     2472000   2.471999e-05   8.008325e-01   2.897980e+01   4.572767e+01   2.834269e+04   5.414041e+05   1.045706e+06  -3.080570e+01   1.612689e+00   2.021252e-21   1.177889e+06   3.180113e-39   0.000000e+00   0.000000e+00
     2480000   2.479999e-05   8.030999e-01   2.902311e+01   4.581133e+01   2.834269e+04   5.414041e+05   1.045706e+06  -2.647786e+01   1.386125e+00   2.731409e-22   1.177889e+06   2.349022e-39   0.000000e+00   0.000000e+00
     2488000   2.487999e-05   8.053674e-01   2.906643e+01   4.589498e+01   2.834269e+04   5.414041e+05   1.045706e+06  -4.327344e+01   2.265379e+00  -1.796482e-21   1.177889e+06   6.274669e-39   0.000000e+00   0.000000e+00
     2496000   2.495999e-05   8.076348e-01   2.910974e+01   4.597864e+01   2.834269e+04   5.414041e+05   1.045706e+06  -3.674901e+01   1.923823e+00   1.518679e-21   1.177889e+06   4.525204e-39   0.000000e+00   0.000000e+00
     2504000   2.503999e-05   8.099022e-01   2.915305e+01   4.606230e+01   2.834269e+04   5.414041e+05   1.045706e+06  -2.209407e+01   1.156632e+00   9.242206e-22   1.177889e+06   1.636161e-39   0.000000e+00   0.000000e+00
     2512000   2.511999e-05   8.121696e-01   2.919636e+01   4.614595e+01   2.834269e+04   5.414041e+05   1.045706e+06  -3.714361e+01   1.944480e+00  -1.662555e-22   1.177889e+06   4.622912e-39   0.000000e+00   0.000000e+00
     2520000   2.519999e-05   8.144370e-01   2.923968e+01   4.622961e+01   2.834269e+04   5.414041e+05   1.045706e+06  -2.518780e+01   1.318590e+00   1.027435e-21   1.177889e+06   2.126041e-39   0.000000e+00   0.000000e+00
     2528000   2.527999e-05   8.167044e-01   2.928299e+01   4.631326e+01   2.834269e+04   5.414041e+05   1.045706e+06  -2.064216e+01   1.080624e+00   1.820451e-21   1.177889e+06   1.427995e-39   0.000000e+00   0.000000e+00
     2536000   2.535999e-05   8.189718e-01   2.932630e+01   4.639692e+01   2.834269e+04   5.414041e+05   1.045706e+06  -2.704096e+01   1.415603e+00   1.733711e-21   1.177889e+06   2.450271e-39   0.000000e+00   0.000000e+00
     2544000   2.543999e-05   8.212393e-01   2.936961e+01   4.648058e+01   2.834269e+04   5.414041e+05   1.045706e+06  -2.741693e+01   1.435285e+00   3.936460e-21   1.177889e+06   2.518972e-39   0.000000e+00   0.000000e+00
     2552000   2.551999e-05   8.235067e-01   2.941293e+01   4.656423e+01   2.834269e+04   5.414041e+05   1.045706e+06  -2.657388e+01   1.391151e+00   1.079493e-21   1.177889e+06   2.366587e-39   0.000000e+00   0.000000e+00
     2560000   2.559999e-05   8.257741e-01   2.945624e+01   4.664789e+01   2.834269e+04   5.414041e+05   1.045706e+06  -2.695293e+01   1.410995e+00   8.520047e-23   1.177889e+06   2.434489e-39   0.000000e+00   0.000000e+00
     2568000   2.567999e-05   8.280415e-01   2.949955e+01   4.673155e+01   2.834269e+04   5.414041e+05   1.045706e+06  -1.732190e+01   9.068073e-01  -5.326127e-22   1.177889e+06   1.005578e-39   0.000000e+00   0.000000e+00
     2576000   2.575999e-05   8.303089e-01   2.954286e+01   4.681520e+01   2.834269e+04   5.414041e+05   1.045706e+06  -2.659397e+01   1.392203e+00  -4.040900e-22   1.177889e+06   2.370065e-39   0.000000e+00   0.000000e+00
     2584000   2.583999e-05   8.325763e-01   2.958617e+01   4.689886e+01   2.834269e+04   5.414041e+05   1.045706e+06  -2.569456e+01   1.345118e+00   1.291116e-21   1.177889e+06   2.212464e-39   0.000000e+00   0.000000e+00
     2592000   2.591999e-05   8.348438e-01   2.962949e+01   4.698252e+01   2.834269e+04   5.414041e+05   1.045706e+06  -2.302007e+01   1.205108e+00   2.156165e-21   1.177889e+06   1.776000e-39   0.000000e+00   0.000000e+00
     2600000   2.599999e-05   8.371112e-01   2.967280e+01   4.706617e+01   2.834269e+04   5.414041e+05   1.045706e+06  -1.657814e+01   8.678709e-01   1.527936e-21   1.177889e+06   9.210922e-40   0.000000e+00   0.000000e+00
     2608000   2.607999e-05   8.393786e-01   2.971611e+01   4.714983e+01   2.834269e+04   5.414041e+05   1.045706e+06  -1.730575e+01   9.059616e-01   2.222265e-22   1.177889e+06   1.003602e-39   0.000000e+00   0.000000e+00
     2616000   2.615999e-05   8.416460e-01   2.975942e+01   4.723349e+01   2.834269e+04   5.414041e+05   1.045706e+06  -2.129153e+01   1.114619e+00   6.671925e-22   1.177889e+06   1.519056e-39   0.000000e+00   0.000000e+00
     2624000   2.623999e-05   8.439134e-01   2.980274e+01   4.731714e+01   2.834269e+04   5.414041e+05   1.045706e+06  -2.419981e+01   1.266868e+00   1.451468e-21   1.177889e+06   1.962568e-39   0.000000e+00   0.000000e+00
     2632000   2.631999e-05   8.461808e-01   2.984605e+01   4.740080e+01   2.834269e+04   5.414041e+05   1.045706e+06  -2.719798e+01   1.423823e+00   1.138134e-21   1.177889e+06   2.478913e-39   0.000000e+00   0.000000e+00
     2640000   2.639999e-05   8.484482e-01   2.988936e+01   4.748446e+01   2.834269e+04   5.414041e+05   1.045706e+06  -2.779422e+01   1.455037e+00   9.072408e-22   1.177889e+06   2.588790e-39   0.000000e+00   0.000000e+00
     2648000   2.647999e-05   8.507157e-01   2.993267e+01   4.756811e+01   2.834269e+04   5.414041e+05   1.045706e+06  -2.586694e+01   1.354143e+00  -6.396326e-23   1.177889e+06   2.242128e-39   0.000000e+00   0.000000e+00
     2656000   2.655999e-05   8.529831e-01   2.997599e+01   4.765177e+01   2.834269e+04   5.414041e+05   1.045706e+06  -2.425654e+01   1.269838e+00   1.435904e-21   1.177889e+06   1.971735e-39   0.000000e+00   0.000000e+00
     2664000   2.663999e-05   8.552505e-01   3.001930e+01   4.773542e+01   2.834269e+04   5.414041e+05   1.045706e+06  -1.896568e+01   9.928595e-01   3.079026e-22   1.177889e+06   1.205515e-39   0.000000e+00   0.000000e+00
     2672000   2.671999e-05   8.575179e-01   3.006261e+01   4.781908e+01   2.834269e+04   5.414041e+05   1.045706e+06  -1.561530e+01   8.174663e-01  -2.277620e-22   1.177889e+06   8.171018e-40   0.000000e+00   0.000000e+00
     2680000   2.679999e-05   8.597853e-01   3.010592e+01   4.790274e+01   2.834269e+04   5.414041e+05   1.045706e+06  -1.799325e+01   9.419524e-01   1.630692e-21   1.177889e+06   1.084899e-39   0.000000e+00   0.000000e+00
     2688000   2.687999e-05   8.620527e-01   3.014923e+01   4.798639e+01   2.834269e+04   5.414041e+05   1.045706e+06  -2.130839e+01   1.115501e+00  -6.346938e-22   1.177889e+06   1.521510e-39   0.000000e+00   0.000000e+00
     2696000   2.695999e-05   8.643201e-01   3.019255e+01   4.807005e+01   2.834269e+04   5.414041e+05   1.045706e+06  -2.123729e+01   1.111779e+00   1.134357e-21   1.177889e+06   1.511430e-39   0.000000e+00   0.000000e+00
     2704000   2.703999e-05   8.665876e-01   3.023586e+01   4.815371e+01   2.834269e+04   5.414041e+05   1.045706e+06  -1.842308e+01   9.644541e-01   1.181334e-22   1.177889e+06   1.137461e-39   0.000000e+00   0.000000e+00
     2712000   2.711999e-05   8.688550e-01   3.027917e+01   4.823736e+01   2.834269e+04   5.414041e+05   1.045706e+06  -2.071018e+01   1.084185e+00  -4.569132e-22   1.177889e+06   1.437380e-39   0.000000e+00   0.000000e+00
     2720000   2.719999e-05   8.711224e-01   3.032248e+01   4.832102e+01   2.834269e+04   5.414041e+05   1.045706e+06  -2.260050e+01   1.183144e+00   8.925214e-22   1.177889e+06   1.711542e-39   0.000000e+00   0.000000e+00
     2728000   2.727999e-05   8.733898e-01   3.036580e+01   4.840468e+01   2.834269e+04   5.414041e+05   1.045706e+06  -2.235205e+01   1.170137e+00   1.328237e-21   1.177889e+06   1.674242e-39   0.000000e+00   0.000000e+00
     2736000   2.735999e-05   8.756572e-01   3.040911e+01   4.848833e+01   2.834269e+04   5.414041e+05   1.045706e+06  -2.614161e+01   1.368522e+00  -1.779826e-21   1.177889e+06   2.290161e-39   0.000000e+00   0.000000e+00
     2744000   2.743999e-05   8.779246e-01   3.045242e+01   4.857199e+01   2.834269e+04   5.414041e+05   1.045706e+06  -1.455127e+01   7.617636e-01  -2.767917e-23   1.177889e+06   7.096721e-40   0.000000e+00   0.000000e+00
     2752000   2.751999e-05   8.801921e-01   3.049573e+01   4.865565e+01   2.834269e+04   5.414041e+05   1.045706e+06  -1.467238e+01   7.681038e-01   9.634416e-22   1.177889e+06   7.214577e-40   0.000000e+00   0.000000e+00
     2760000   2.759999e-05   8.824595e-01   3.053905e+01   4.873930e+01   2.834269e+04   5.414041e+05   1.045706e+06  -1.190786e+01   6.233803e-01  -5.938572e-22   1.177889e+06   4.751780e-40   0.000000e+00   0.000000e+00
     2768000   2.767999e-05   8.847269e-01   3.058236e+01   4.882296e+01   2.834269e+04   5.414041e+05   1.045706e+06  -1.351264e+01   7.073911e-01   6.858587e-22   1.177889e+06   6.118844e-40   0.000000e+00   0.000000e+00
     2776000   2.775999e-05   8.869943e-01   3.062567e+01   4.890662e+01   2.834269e+04   5.414041e+05   1.045706e+06  -2.351654e+01   1.231099e+00   1.511146e-21   1.177889e+06   1.853339e-39   0.000000e+00   0.000000e+00
     2784000   2.783999e-05   8.892617e-01   3.066898e+01   4.899027e+01   2.834269e+04   5.414041e+05   1.045706e+06  -1.962091e+01   1.027161e+00  -1.386772e-21   1.177889e+06   1.290179e-39   0.000000e+00   0.000000e+00
     2792000   2.791999e-05   8.915291e-01   3.071230e+01   4.907393e+01   2.834269e+04   5.414041e+05   1.045706e+06  -5.285876e+00   2.767174e-01   2.205916e-22   1.177889e+06   9.367209e-41   0.000000e+00   0.000000e+00
     2800000   2.799999e-05   8.937965e-01   3.075561e+01   4.915759e+01   2.834269e+04   5.414041e+05   1.045706e+06  -1.748644e+01   9.154210e-01   1.518012e-21   1.177889e+06   1.024566e-39   0.000000e+00   0.000000e+00
     2808000   2.807999e-05   8.960640e-01   3.079892e+01   4.924124e+01   2.834269e+04   5.414041e+05   1.045706e+06  -1.438281e+00   7.529448e-02   4.605799e-23   1.177889e+06   6.943226e-42   0.000000e+00   0.000000e+00
     2816000   2.815999e-05   8.983314e-01   3.084223e+01   4.932490e+01   2.834269e+04   5.414041e+05   1.045706e+06  -5.659277e+00   2.962650e-01  -7.838355e-23   1.177889e+06   1.073716e-40   0.000000e+00   0.000000e+00
     2824000   2.823999e-05   9.005988e-01   3.088554e+01   4.940855e+01   2.834269e+04   5.414041e+05   1.045706e+06  -1.750392e+01   9.163362e-01   1.025335e-21   1.177889e+06   1.026552e-39   0.000000e+00   0.000000e+00
     2832000   2.831999e-05   9.028662e-01   3.092886e+01   4.949221e+01   2.834269e+04   5.414041e+05   1.045706e+06  -1.949091e+01   1.020356e+00  -8.906780e-22   1.177889e+06   1.273090e-39   0.000000e+00   0.000000e+00
     2840000   2.839999e-05   9.051336e-01   3.097217e+01   4.957587e+01   2.834269e+04   5.414041e+05   1.045706e+06  -7.324623e+00   3.834464e-01   3.648419e-22   1.177889e+06   1.798477e-40   0.000000e+00   0.000000e+00
     2848000   2.847999e-05   9.074010e-01   3.101548e+01   4.965952e+01   2.834200e+04   5.414015e+05   1.045707e+06  -1.255044e+07  -4.937876e+07   2.590537e+07   1.177889e+06   1.091603e-26   0.000000e+00   0.000000e+00
     2856000   2.855999e-05   9.096683e-01   3.105879e+01   4.974318e+01   2.833975e+04   5.413927e+05   1.045712e+06  -5.103070e+07  -1.990154e+08   1.044185e+08   1.177889e+06   1.774726e-25   0.000000e+00   0.000000e+00
     2864000   2.863999e-05   9.119353e-01   3.110210e+01   4.982684e+01   2.833493e+04   5.413739e+05   1.045722e+06  -4.219624e+07  -1.631702e+08   8.561712e+07   1.177889e+06   1.194631e-25   0.000000e+00   0.000000e+00
     2872000   2.871999e-05   9.142020e-01   3.114541e+01   4.991050e+01   2.833356e+04   5.413687e+05   1.045725e+06   0.000000e+00   0.000000e+00   0.000000e+00   1.177889e+06   0.000000e+00   0.000000e+00   0.000000e+00
     2880000   2.879999e-05   9.164687e-01   3.118872e+01   4.999415e+01   2.833356e+04   5.413687e+05   1.045725e+06   0.000000e+00   0.000000e+00   0.000000e+00   1.177889e+06   0.000000e+00   0.000000e+00   0.000000e+00
