     timestep     time              x             y              z              vx             vy             vz             ax             ay             az         v_magnitude      ELoss        Electronic      Nuclear
           0   0.000000e+00   1.000000e-01   1.057484e+01   5.485209e+00   7.240337e+05  -3.694939e+04  -4.792789e+05   0.000000e+00   0.000000e+00   0.000000e+00   8.690790e+05   0.000000e+00   0.000000e+00   0.000000e+00
        8000   7.999000e-08   1.579227e-01   1.057189e+01   5.446867e+00   7.240337e+05  -3.694939e+04  -4.792789e+05   0.000000e+00   0.000000e+00   0.000000e+00   8.690790e+05   0.000000e+00   0.000000e+00   0.000000e+00
       16000   1.599900e-07   2.158454e-01   1.056893e+01   5.408524e+00   7.240337e+05  -3.694939e+04  -4.792789e+05   0.000000e+00   0.000000e+00   0.000000e+00   8.690790e+05   0.000000e+00   0.000000e+00   0.000000e+00
       24000   2.399900e-07   2.737681e-01   1.056598e+01   5.370182e+00   7.240337e+05  -3.694939e+04  -4.792789e+05   0.000000e+00   0.000000e+00   0.000000e+00   8.690790e+05   0.000000e+00   0.000000e+00   0.000000e+00
       32000   3.199900e-07   3.316908e-01   1.056302e+01   5.331840e+00   7.240337e+05  -3.694939e+04  -4.792789e+05   0.000000e+00   0.000000e+00   0.000000e+00   8.690790e+05   0.000000e+00   0.000000e+00   0.000000e+00
       40000   3.999900e-07   3.896135e-01   1.056006e+01   5.293497e+00   7.240337e+05  -3.694939e+04  -4.792789e+05   0.000000e+00   0.000000e+00   0.000000e+00   8.690790e+05   0.000000e+00   0.000000e+00   0.000000e+00
       48000   4.799900e-07   4.475362e-01   1.055711e+01   5.255155e+00   7.240337e+05  -3.694939e+04  -4.792789e+05   0.000000e+00   0.000000e+00   0.000000e+00   8.690790e+05   0.000000e+00   0.000000e+00   0.000000e+00
       56000   5.599900e-07   5.054589e-01   1.055415e+01   5.216813e+00   7.240337e+05  -3.694939e+04  -4.792789e+05   0.000000e+00   0.000000e+00   0.000000e+00   8.690790e+05   0.000000e+00   0.000000e+00   0.000000e+00
       64000   6.399900e-07   5.633816e-01   1.055120e+01   5.178471e+00   7.240337e+05  -3.694939e+04  -4.792789e+05   0.000000e+00   0.000000e+00   0.000000e+00   8.690790e+05   0.000000e+00   0.000000e+00   0.000000e+00
       72000   7.199900e-07   6.213043e-01   1.054824e+01   5.140128e+00   7.240337e+05  -3.694939e+04  -4.792789e+05   0.000000e+00   0.000000e+00   0.000000e+00   8.690790e+05   0.000000e+00   0.000000e+00   0.000000e+00
       80000   7.999900e-07   6.792269e-01   1.054528e+01   5.101786e+00   7.240337e+05  -3.694939e+04  -4.792789e+05   0.000000e+00   0.000000e+00   0.000000e+00   8.690790e+05   0.000000e+00   0.000000e+00   0.000000e+00
       88000   8.799900e-07   7.371496e-01   1.054233e+01   5.063444e+00   7.240337e+05  -3.694939e+04  -4.792789e+05   0.000000e+00   0.000000e+00   0.000000e+00   8.690790e+05   0.000000e+00   0.000000e+00   0.000000e+00
       96000   9.599900e-07   7.950723e-01   1.053937e+01   5.025101e+00   7.240337e+05  -3.694939e+04  -4.792789e+05   0.000000e+00   0.000000e+00   0.000000e+00   8.690790e+05   0.000000e+00   0.000000e+00   0.000000e+00
      104000   1.039990e-06   8.529950e-01   1.053642e+01   4.986759e+00   7.240337e+05  -3.694939e+04  -4.792789e+05   0.000000e+00   0.000000e+00   0.000000e+00   8.690790e+05   0.000000e+00   0.000000e+00   0.000000e+00
      112000   1.119990e-06   9.109177e-01   1.053346e+01   4.948417e+00   7.240337e+05  -3.694939e+04  -4.792789e+05   0.000000e+00   0.000000e+00   0.000000e+00   8.690790e+05   0.000000e+00   0.000000e+00   0.000000e+00
      120000   1.199990e-06   9.688404e-01   1.053050e+01   4.910074e+00   7.240337e+05  -3.694939e+04  -4.792789e+05   0.000000e+00   0.000000e+00   0.000000e+00   8.690790e+05   0.000000e+00   0.000000e+00   0.000000e+00
      128000   1.279990e-06   1.026763e+00   1.052755e+01   4.871732e+00   7.240337e+05  -3.694939e+04  -4.792789e+05   0.000000e+00   0.000000e+00   0.000000e+00   8.690790e+05   0.000000e+00   0.000000e+00   0.000000e+00
      136000   1.359990e-06   1.084686e+00   1.052459e+01   4.833390e+00   7.240337e+05  -3.694939e+04  -4.792789e+05   0.000000e+00   0.000000e+00   0.000000e+00   8.690790e+05   0.000000e+00   0.000000e+00   0.000000e+00
      144000   1.439990e-06   1.142609e+00   1.052164e+01   4.795047e+00   7.240337e+05  -3.694939e+04  -4.792789e+05   0.000000e+00   0.000000e+00   0.000000e+00   8.690790e+05   0.000000e+00   0.000000e+00   0.000000e+00
      152000   1.519990e-06   1.200531e+00   1.051868e+01   4.756705e+00   7.240337e+05  -3.694939e+04  -4.792789e+05   0.000000e+00   0.000000e+00   0.000000e+00   8.690790e+05   0.000000e+00   0.000000e+00   0.000000e+00
      160000   1.599990e-06   1.258454e+00   1.051572e+01   4.718363e+00   7.240337e+05  -3.694939e+04  -4.792789e+05   0.000000e+00   0.000000e+00   0.000000e+00   8.690790e+05   0.000000e+00   0.000000e+00   0.000000e+00
      168000   1.679990e-06   1.316377e+00   1.051277e+01   4.680020e+00   7.240337e+05  -3.694939e+04  -4.792789e+05   0.000000e+00   0.000000e+00   0.000000e+00   8.690790e+05   0.000000e+00   0.000000e+00   0.000000e+00
      176000   1.759990e-06   1.374299e+00   1.050981e+01   4.641678e+00   7.240337e+05  -3.694939e+04  -4.792789e+05   0.000000e+00   0.000000e+00   0.000000e+00   8.690790e+05   0.000000e+00   0.000000e+00   0.000000e+00
      184000   1.839990e-06   1.432222e+00   1.050686e+01   4.603336e+00   7.240337e+05  -3.694939e+04  -4.792789e+05   0.000000e+00   0.000000e+00   0.000000e+00   8.690790e+05   0.000000e+00   0.000000e+00   0.000000e+00
      192000   1.919990e-06   1.490145e+00   1.050390e+01   4.564994e+00   7.240337e+05  -3.694939e+04  -4.792789e+05   0.000000e+00   0.000000e+00   0.000000e+00   8.690790e+05   0.000000e+00   0.000000e+00   0.000000e+00
      200000   1.999990e-06   1.548067e+00   1.050095e+01   4.526651e+00   7.240337e+05  -3.694939e+04  -4.792789e+05   0.000000e+00   0.000000e+00   0.000000e+00   8.690790e+05   0.000000e+00   0.000000e+00   0.000000e+00
      208000   2.079990e-06   1.605990e+00   1.049799e+01   4.488309e+00   7.240337e+05  -3.694939e+04  -4.792789e+05   0.000000e+00   0.000000e+00   0.000000e+00   8.690790e+05   0.000000e+00   0.000000e+00   0.000000e+00
      216000   2.159990e-06   1.663913e+00   1.049503e+01   4.449967e+00   7.240337e+05  -3.694939e+04  -4.792789e+05   0.000000e+00   0.000000e+00   0.000000e+00   8.690790e+05   0.000000e+00   0.000000e+00   0.000000e+00
      224000   2.239990e-06   1.721835e+00   1.049208e+01   4.411624e+00   7.240337e+05  -3.694939e+04  -4.792789e+05   0.000000e+00   0.000000e+00   0.000000e+00   8.690790e+05   0.000000e+00   0.000000e+00   0.000000e+00
      232000   2.319990e-06   1.779758e+00   1.048912e+01   4.373282e+00   7.240337e+05  -3.694939e+04  -4.792789e+05   0.000000e+00   0.000000e+00   0.000000e+00   8.690790e+05   0.000000e+00   0.000000e+00   0.000000e+00
      240000   2.399990e-06   1.837681e+00   1.048617e+01   4.334940e+00   7.240337e+05  -3.694939e+04  -4.792789e+05   0.000000e+00   0.000000e+00   0.000000e+00   8.690790e+05   0.000000e+00   0.000000e+00   0.000000e+00
      248000   2.479990e-06   1.895604e+00   1.048321e+01   4.296597e+00   7.240337e+05  -3.694939e+04  -4.792789e+05   0.000000e+00   0.000000e+00   0.000000e+00   8.690790e+05   0.000000e+00   0.000000e+00   0.000000e+00
      256000   2.559990e-06   1.953526e+00   1.048025e+01   4.258255e+00   7.240337e+05  -3.694939e+04  -4.792789e+05   0.000000e+00   0.000000e+00   0.000000e+00   8.690790e+05   0.000000e+00   0.000000e+00   0.000000e+00
      264000   2.639990e-06   2.011449e+00   1.047730e+01   4.219913e+00   7.240337e+05  -3.694939e+04  -4.792789e+05   0.000000e+00   0.000000e+00   0.000000e+00   8.690790e+05   0.000000e+00   0.000000e+00   0.000000e+00
      272000   2.719990e-06   2.069372e+00   1.047434e+01   4.181570e+00   7.240337e+05  -3.694939e+04  -4.792789e+05   0.000000e+00   0.000000e+00   0.000000e+00   8.690790e+05   0.000000e+00   0.000000e+00   0.000000e+00
      280000   2.799990e-06   2.127294e+00   1.047139e+01   4.143228e+00   7.240337e+05  -3.694939e+04  -4.792789e+05   0.000000e+00   0.000000e+00   0.000000e+00   8.690790e+05   0.000000e+00   0.000000e+00   0.000000e+00
      288000   2.879990e-06   2.185217e+00   1.046843e+01   4.104886e+00   7.240337e+05  -3.694939e+04  -4.792789e+05   0.000000e+00   0.000000e+00   0.000000e+00   8.690790e+05   0.000000e+00   0.000000e+00   0.000000e+00
      296000   2.959990e-06   2.243140e+00   1.046547e+01   4.066543e+00   7.240337e+05  -3.694939e+04  -4.792789e+05   0.000000e+00   0.000000e+00   0.000000e+00   8.690790e+05   0.000000e+00   0.000000e+00   0.000000e+00
      304000   3.039990e-06   2.301062e+00   1.046252e+01   4.028201e+00   7.240337e+05  -3.694939e+04  -4.792789e+05   0.000000e+00   0.000000e+00   0.000000e+00   8.690790e+05   0.000000e+00   0.000000e+00   0.000000e+00
      312000   3.119990e-06   2.358985e+00   1.045956e+01   3.989859e+00   7.240337e+05  -3.694939e+04  -4.792789e+05   0.000000e+00   0.000000e+00   0.000000e+00   8.690790e+05   0.000000e+00   0.000000e+00   0.000000e+00
      320000   3.199990e-06   2.416908e+00   1.045661e+01   3.951517e+00   7.240337e+05  -3.694939e+04  -4.792789e+05   0.000000e+00   0.000000e+00   0.000000e+00   8.690790e+05   0.000000e+00   0.000000e+00   0.000000e+00
      328000   3.279990e-06   2.474830e+00   1.045365e+01   3.913174e+00   7.240337e+05  -3.694939e+04  -4.792789e+05   0.000000e+00   0.000000e+00   0.000000e+00   8.690790e+05   0.000000e+00   0.000000e+00   0.000000e+00
      336000   3.359990e-06   2.532753e+00   1.045069e+01   3.874832e+00   7.240337e+05  -3.694939e+04  -4.792789e+05   0.000000e+00   0.000000e+00   0.000000e+00   8.690790e+05   0.000000e+00   0.000000e+00   0.000000e+00
      344000   3.439990e-06   2.590676e+00   1.044774e+01   3.836490e+00   7.240337e+05  -3.694939e+04  -4.792789e+05   0.000000e+00   0.000000e+00   0.000000e+00   8.690790e+05   0.000000e+00   0.000000e+00   0.000000e+00
      352000   3.519990e-06   2.648599e+00   1.044478e+01   3.798147e+00   7.240337e+05  -3.694939e+04  -4.792789e+05   0.000000e+00   0.000000e+00   0.000000e+00   8.690790e+05   0.000000e+00   0.000000e+00   0.000000e+00
      360000   3.599990e-06   2.706521e+00   1.044183e+01   3.759805e+00   7.240337e+05  -3.694939e+04  -4.792789e+05   0.000000e+00   0.000000e+00   0.000000e+00   8.690790e+05   0.000000e+00   0.000000e+00   0.000000e+00
      368000   3.679990e-06   2.764444e+00   1.043887e+01   3.721463e+00   7.240337e+05  -3.694939e+04  -4.792789e+05   0.000000e+00   0.000000e+00   0.000000e+00   8.690790e+05   0.000000e+00   0.000000e+00   0.000000e+00
      376000   3.759990e-06   2.822367e+00   1.043591e+01   3.683120e+00   7.240337e+05  -3.694939e+04  -4.792789e+05   0.000000e+00   0.000000e+00   0.000000e+00   8.690790e+05   0.000000e+00   0.000000e+00   0.000000e+00
      384000   3.839990e-06   2.880289e+00   1.043296e+01   3.644778e+00   7.240337e+05  -3.694939e+04  -4.792789e+05   0.000000e+00   0.000000e+00   0.000000e+00   8.690790e+05   0.000000e+00   0.000000e+00   0.000000e+00
      392000   3.919990e-06   2.938212e+00   1.043000e+01   3.606436e+00   7.240337e+05  -3.694939e+04  -4.792789e+05   0.000000e+00   0.000000e+00   0.000000e+00   8.690790e+05   0.000000e+00   0.000000e+00   0.000000e+00
      400000   3.999990e-06   2.996135e+00   1.042705e+01   3.568093e+00   7.240337e+05  -3.694939e+04  -4.792789e+05   0.000000e+00   0.000000e+00   0.000000e+00   8.690790e+05   0.000000e+00   0.000000e+00   0.000000e+00
      408000   4.079990e-06   3.054057e+00   1.042409e+01   3.529751e+00   7.240337e+05  -3.694939e+04  -4.792789e+05   0.000000e+00   0.000000e+00   0.000000e+00   8.690790e+05   0.000000e+00   0.000000e+00   0.000000e+00
      416000   4.159990e-06   3.111980e+00   1.042113e+01   3.491409e+00   7.240337e+05  -3.694939e+04  -4.792789e+05   0.000000e+00   0.000000e+00   0.000000e+00   8.690790e+05   0.000000e+00   0.000000e+00   0.000000e+00
      424000   4.239990e-06   3.169903e+00   1.041818e+01   3.453067e+00   7.240337e+05  -3.694939e+04  -4.792789e+05   0.000000e+00   0.000000e+00   0.000000e+00   8.690790e+05   0.000000e+00   0.000000e+00   0.000000e+00
      432000   4.319990e-06   3.227826e+00   1.041522e+01   3.414724e+00   7.240337e+05  -3.694939e+04  -4.792789e+05   0.000000e+00   0.000000e+00   0.000000e+00   8.690790e+05   0.000000e+00   0.000000e+00   0.000000e+00
      440000   4.399990e-06   3.285748e+00   1.041227e+01   3.376382e+00   7.240337e+05  -3.694939e+04  -4.792789e+05   0.000000e+00   0.000000e+00   0.000000e+00   8.690790e+05   0.000000e+00   0.000000e+00   0.000000e+00
      448000   4.479990e-06   3.343671e+00   1.040931e+01   3.338040e+00   7.240337e+05  -3.694939e+04  -4.792789e+05   0.000000e+00   0.000000e+00   0.000000e+00   8.690790e+05   0.000000e+00   0.000000e+00   0.000000e+00
      456000   4.559990e-06   3.401594e+00   1.040635e+01   3.299697e+00   7.240337e+05  -3.694939e+04  -4.792789e+05   0.000000e+00   0.000000e+00   0.000000e+00   8.690790e+05   0.000000e+00   0.000000e+00   0.000000e+00
      464000   4.639990e-06   3.459516e+00   1.040340e+01   3.261355e+00   7.240337e+05  -3.694939e+04  -4.792789e+05   0.000000e+00   0.000000e+00   0.000000e+00   8.690790e+05   0.000000e+00   0.000000e+00   0.000000e+00
      472000   4.719990e-06   3.517439e+00   1.040044e+01   3.223013e+00   7.240337e+05  -3.694939e+04  -4.792789e+05   0.000000e+00   0.000000e+00   0.000000e+00   8.690790e+05   0.000000e+00   0.000000e+00   0.000000e+00
      480000   4.799990e-06   3.575362e+00   1.039749e+01   3.184670e+00   7.240337e+05  -3.694939e+04  -4.792789e+05   0.000000e+00   0.000000e+00   0.000000e+00   8.690790e+05   0.000000e+00   0.000000e+00   0.000000e+00
      488000   4.879990e-06   3.633284e+00   1.039453e+01   3.146328e+00   7.240337e+05  -3.694939e+04  -4.792789e+05   0.000000e+00   0.000000e+00   0.000000e+00   8.690790e+05   0.000000e+00   0.000000e+00   0.000000e+00
      496000   4.959990e-06   3.691207e+00   1.039158e+01   3.107986e+00   7.240337e+05  -3.694939e+04  -4.792789e+05   0.000000e+00   0.000000e+00   0.000000e+00   8.690790e+05   0.000000e+00   0.000000e+00   0.000000e+00
      504000   5.039990e-06   3.749130e+00   1.038862e+01   3.069643e+00   7.240337e+05  -3.694939e+04  -4.792789e+05   0.000000e+00   0.000000e+00   0.000000e+00   8.690790e+05   0.000000e+00   0.000000e+00   0.000000e+00
      512000   5.119990e-06   3.807052e+00   1.038566e+01   3.031301e+00   7.240337e+05  -3.694939e+04  -4.792789e+05   0.000000e+00   0.000000e+00   0.000000e+00   8.690790e+05   0.000000e+00   0.000000e+00   0.000000e+00
      520000   5.199990e-06   3.864975e+00   1.038271e+01   2.992959e+00   7.240337e+05  -3.694939e+04  -4.792789e+05   0.000000e+00   0.000000e+00   0.000000e+00   8.690790e+05   0.000000e+00   0.000000e+00   0.000000e+00
      528000   5.279990e-06   3.922898e+00   1.037975e+01   2.954616e+00   7.240337e+05  -3.694939e+04  -4.792789e+05   0.000000e+00   0.000000e+00   0.000000e+00   8.690790e+05   0.000000e+00   0.000000e+00   0.000000e+00
      536000   5.359990e-06   3.980821e+00   1.037680e+01   2.916274e+00   7.240337e+05  -3.694939e+04  -4.792789e+05   0.000000e+00   0.000000e+00   0.000000e+00   8.690790e+05   0.000000e+00   0.000000e+00   0.000000e+00
      544000   5.439990e-06   4.038743e+00   1.037384e+01   2.877932e+00   7.240337e+05  -3.694939e+04  -4.792789e+05   0.000000e+00   0.000000e+00   0.000000e+00   8.690790e+05   0.000000e+00   0.000000e+00   0.000000e+00
      552000   5.519990e-06   4.096666e+00   1.037088e+01   2.839590e+00   7.240337e+05  -3.694939e+04  -4.792789e+05   0.000000e+00   0.000000e+00   0.000000e+00   8.690790e+05   0.000000e+00   0.000000e+00   0.000000e+00
      560000   5.599990e-06   4.154589e+00   1.036793e+01   2.801247e+00   7.240337e+05  -3.694939e+04  -4.792789e+05   0.000000e+00   0.000000e+00   0.000000e+00   8.690790e+05   0.000000e+00   0.000000e+00   0.000000e+00
      568000   5.679990e-06   4.212511e+00   1.036497e+01   2.762905e+00   7.240337e+05  -3.694939e+04  -4.792789e+05   0.000000e+00   0.000000e+00   0.000000e+00   8.690790e+05   0.000000e+00   0.000000e+00   0.000000e+00
      576000   5.759990e-06   4.270434e+00   1.036202e+01   2.724563e+00   7.240337e+05  -3.694939e+04  -4.792789e+05   0.000000e+00   0.000000e+00   0.000000e+00   8.690790e+05   0.000000e+00   0.000000e+00   0.000000e+00
      584000   5.839990e-06   4.328357e+00   1.035906e+01   2.686220e+00   7.240337e+05  -3.694939e+04  -4.792789e+05   0.000000e+00   0.000000e+00   0.000000e+00   8.690790e+05   0.000000e+00   0.000000e+00   0.000000e+00
      592000   5.919990e-06   4.386279e+00   1.035610e+01   2.647878e+00   7.240337e+05  -3.694939e+04  -4.792789e+05   0.000000e+00   0.000000e+00   0.000000e+00   8.690790e+05   0.000000e+00   0.000000e+00   0.000000e+00
      600000   5.999990e-06   4.444202e+00   1.035315e+01   2.609536e+00   7.240337e+05  -3.694939e+04  -4.792789e+05   0.000000e+00   0.000000e+00   0.000000e+00   8.690790e+05   0.000000e+00   0.000000e+00   0.000000e+00
      608000   6.079990e-06   4.502125e+00   1.035019e+01   2.571193e+00   7.240337e+05  -3.694939e+04  -4.792789e+05   0.000000e+00   0.000000e+00   0.000000e+00   8.690790e+05   0.000000e+00   0.000000e+00   0.000000e+00
      616000   6.159990e-06   4.560047e+00   1.034724e+01   2.532851e+00   7.240337e+05  -3.694939e+04  -4.792789e+05   0.000000e+00   0.000000e+00   0.000000e+00   8.690790e+05   0.000000e+00   0.000000e+00   0.000000e+00
      624000   6.239990e-06   4.617970e+00   1.034428e+01   2.494509e+00   7.240337e+05  -3.694939e+04  -4.792789e+05   0.000000e+00   0.000000e+00   0.000000e+00   8.690790e+05   0.000000e+00   0.000000e+00   0.000000e+00
      632000   6.319990e-06   4.675893e+00   1.034132e+01   2.456166e+00   7.240337e+05  -3.694939e+04  -4.792789e+05   0.000000e+00   0.000000e+00   0.000000e+00   8.690790e+05   0.000000e+00   0.000000e+00   0.000000e+00
      640000   6.399990e-06   4.733816e+00   1.033837e+01   2.417824e+00   7.240337e+05  -3.694939e+04  -4.792789e+05   0.000000e+00   0.000000e+00   0.000000e+00   8.690790e+05   0.000000e+00   0.000000e+00   0.000000e+00
      648000   6.479990e-06   4.791738e+00   1.033541e+01   2.379482e+00   7.240337e+05  -3.694939e+04  -4.792789e+05   0.000000e+00   0.000000e+00   0.000000e+00   8.690790e+05   0.000000e+00   0.000000e+00   0.000000e+00
      656000   6.559990e-06   4.849661e+00   1.033246e+01   2.341140e+00   7.240337e+05  -3.694939e+04  -4.792789e+05   0.000000e+00   0.000000e+00   0.000000e+00   8.690790e+05   0.000000e+00   0.000000e+00   0.000000e+00
      664000   6.639990e-06   4.907584e+00   1.032950e+01   2.302797e+00   7.240337e+05  -3.694939e+04  -4.792789e+05   0.000000e+00   0.000000e+00   0.000000e+00   8.690790e+05   0.000000e+00   0.000000e+00   0.000000e+00
      672000   6.719990e-06   4.965506e+00   1.032654e+01   2.264455e+00   7.240337e+05  -3.694939e+04  -4.792789e+05   0.000000e+00   0.000000e+00   0.000000e+00   8.690790e+05   0.000000e+00   0.000000e+00   0.000000e+00
      680000   6.799990e-06   5.023429e+00   1.032359e+01   2.226113e+00   7.240337e+05  -3.694939e+04  -4.792789e+05   0.000000e+00   0.000000e+00   0.000000e+00   8.690790e+05   0.000000e+00   0.000000e+00   0.000000e+00
      688000   6.879990e-06   5.081352e+00   1.032063e+01   2.187770e+00   7.240337e+05  -3.694939e+04  -4.792789e+05   0.000000e+00   0.000000e+00   0.000000e+00   8.690790e+05   0.000000e+00   0.000000e+00   0.000000e+00
      696000   6.959990e-06   5.139274e+00   1.031768e+01   2.149428e+00   7.240337e+05  -3.694939e+04  -4.792789e+05   0.000000e+00   0.000000e+00   0.000000e+00   8.690790e+05   0.000000e+00   0.000000e+00   0.000000e+00
      704000   7.039990e-06   5.197197e+00   1.031472e+01   2.111086e+00   7.240337e+05  -3.694939e+04  -4.792789e+05   0.000000e+00   0.000000e+00   0.000000e+00   8.690790e+05   0.000000e+00   0.000000e+00   0.000000e+00
      712000   7.119990e-06   5.255120e+00   1.031176e+01   2.072743e+00   7.240337e+05  -3.694939e+04  -4.792789e+05   0.000000e+00   0.000000e+00   0.000000e+00   8.690790e+05   0.000000e+00   0.000000e+00   0.000000e+00
      720000   7.199990e-06   5.313043e+00   1.030881e+01   2.034401e+00   7.240337e+05  -3.694939e+04  -4.792789e+05   0.000000e+00   0.000000e+00   0.000000e+00   8.690790e+05   0.000000e+00   0.000000e+00   0.000000e+00
      728000   7.279990e-06   5.370965e+00   1.030585e+01   1.996059e+00   7.240337e+05  -3.694939e+04  -4.792789e+05   0.000000e+00   0.000000e+00   0.000000e+00   8.690790e+05   0.000000e+00   0.000000e+00   0.000000e+00
      736000   7.359990e-06   5.428888e+00   1.030290e+01   1.957716e+00   7.240337e+05  -3.694939e+04  -4.792789e+05   0.000000e+00   0.000000e+00   0.000000e+00   8.690790e+05   0.000000e+00   0.000000e+00   0.000000e+00
      744000   7.439990e-06   5.486811e+00   1.029994e+01   1.919374e+00   7.240337e+05  -3.694939e+04  -4.792789e+05   0.000000e+00   0.000000e+00   0.000000e+00   8.690790e+05   0.000000e+00   0.000000e+00   0.000000e+00
      752000   7.519990e-06   5.544733e+00   1.029698e+01   1.881032e+00   7.240337e+05  -3.694939e+04  -4.792789e+05   0.000000e+00   0.000000e+00   0.000000e+00   8.690790e+05   0.000000e+00   0.000000e+00   0.000000e+00
      760000   7.599990e-06   5.602656e+00   1.029403e+01   1.842689e+00   7.240337e+05  -3.694939e+04  -4.792789e+05   0.000000e+00   0.000000e+00   0.000000e+00   8.690790e+05   0.000000e+00   0.000000e+00   0.000000e+00
      768000   7.679990e-06   5.660579e+00   1.029107e+01   1.804347e+00   7.240337e+05  -3.694939e+04  -4.792789e+05   0.000000e+00   0.000000e+00   0.000000e+00   8.690790e+05   0.000000e+00   0.000000e+00   0.000000e+00
      776000   7.759990e-06   5.718501e+00   1.028812e+01   1.766005e+00   7.240337e+05  -3.694939e+04  -4.792789e+05   0.000000e+00   0.000000e+00   0.000000e+00   8.690790e+05   0.000000e+00   0.000000e+00   0.000000e+00
      784000   7.839990e-06   5.776424e+00   1.028516e+01   1.727663e+00   7.240337e+05  -3.694939e+04  -4.792789e+05   0.000000e+00   0.000000e+00   0.000000e+00   8.690790e+05   0.000000e+00   0.000000e+00   0.000000e+00
      792000   7.919990e-06   5.834347e+00   1.028220e+01   1.689320e+00   7.240337e+05  -3.694939e+04  -4.792789e+05   0.000000e+00   0.000000e+00   0.000000e+00   8.690790e+05   0.000000e+00   0.000000e+00   0.000000e+00
      800000   7.999990e-06   5.892269e+00   1.027925e+01   1.650978e+00   7.240337e+05  -3.694939e+04  -4.792789e+05   0.000000e+00   0.000000e+00   0.000000e+00   8.690790e+05   0.000000e+00   0.000000e+00   0.000000e+00
      808000   8.079990e-06   5.950192e+00   1.027629e+01   1.612636e+00   7.240337e+05  -3.694939e+04  -4.792789e+05   0.000000e+00   0.000000e+00   0.000000e+00   8.690790e+05   0.000000e+00   0.000000e+00   0.000000e+00
      816000   8.159990e-06   6.008115e+00   1.027334e+01   1.574293e+00   7.240337e+05  -3.694939e+04  -4.792789e+05   0.000000e+00   0.000000e+00   0.000000e+00   8.690790e+05   0.000000e+00   0.000000e+00   0.000000e+00
      824000   8.239990e-06   6.066038e+00   1.027038e+01   1.535951e+00   7.240337e+05  -3.694939e+04  -4.792789e+05   0.000000e+00   0.000000e+00   0.000000e+00   8.690790e+05   0.000000e+00   0.000000e+00   0.000000e+00
      832000   8.319990e-06   6.123960e+00   1.026743e+01   1.497609e+00   7.240337e+05  -3.694939e+04  -4.792789e+05   0.000000e+00   0.000000e+00   0.000000e+00   8.690790e+05   0.000000e+00   0.000000e+00   0.000000e+00
      840000   8.399990e-06   6.181883e+00   1.026447e+01   1.459266e+00   7.240337e+05  -3.694939e+04  -4.792789e+05   0.000000e+00   0.000000e+00   0.000000e+00   8.690790e+05   0.000000e+00   0.000000e+00   0.000000e+00
      848000   8.479990e-06   6.239806e+00   1.026151e+01   1.420924e+00   7.240337e+05  -3.694939e+04  -4.792789e+05   0.000000e+00   0.000000e+00   0.000000e+00   8.690790e+05   0.000000e+00   0.000000e+00   0.000000e+00
      856000   8.559990e-06   6.297728e+00   1.025856e+01   1.382582e+00   7.240337e+05  -3.694939e+04  -4.792789e+05   0.000000e+00   0.000000e+00   0.000000e+00   8.690790e+05   0.000000e+00   0.000000e+00   0.000000e+00
      864000   8.639990e-06   6.355651e+00   1.025560e+01   1.344239e+00   7.240337e+05  -3.694939e+04  -4.792789e+05   0.000000e+00   0.000000e+00   0.000000e+00   8.690790e+05   0.000000e+00   0.000000e+00   0.000000e+00
      872000   8.719990e-06   6.413574e+00   1.025265e+01   1.305897e+00   7.240337e+05  -3.694939e+04  -4.792789e+05   0.000000e+00   0.000000e+00   0.000000e+00   8.690790e+05   0.000000e+00   0.000000e+00   0.000000e+00
      880000   8.799990e-06   6.471496e+00   1.024969e+01   1.267555e+00   7.240337e+05  -3.694939e+04  -4.792789e+05   0.000000e+00   0.000000e+00   0.000000e+00   8.690790e+05   0.000000e+00   0.000000e+00   0.000000e+00
      888000   8.879990e-06   6.529419e+00   1.024673e+01   1.229212e+00   7.240337e+05  -3.694939e+04  -4.792789e+05   0.000000e+00   0.000000e+00   0.000000e+00   8.690790e+05   0.000000e+00   0.000000e+00   0.000000e+00
      896000   8.959990e-06   6.587342e+00   1.024378e+01   1.190870e+00   7.240337e+05  -3.694939e+04  -4.792789e+05   0.000000e+00   0.000000e+00   0.000000e+00   8.690790e+05   0.000000e+00   0.000000e+00   0.000000e+00
      904000   9.039990e-06   6.645264e+00   1.024082e+01   1.152528e+00   7.240337e+05  -3.694939e+04  -4.792789e+05   0.000000e+00   0.000000e+00   0.000000e+00   8.690790e+05   0.000000e+00   0.000000e+00   0.000000e+00
      912000   9.119990e-06   6.703187e+00   1.023787e+01   1.114186e+00   7.240337e+05  -3.694939e+04  -4.792789e+05   0.000000e+00   0.000000e+00   0.000000e+00   8.690790e+05   0.000000e+00   0.000000e+00   0.000000e+00
      920000   9.199990e-06   6.761110e+00   1.023491e+01   1.075843e+00   7.240337e+05  -3.694939e+04  -4.792789e+05   0.000000e+00   0.000000e+00   0.000000e+00   8.690790e+05   0.000000e+00   0.000000e+00   0.000000e+00
      928000   9.279990e-06   6.819033e+00   1.023195e+01   1.037501e+00   7.240337e+05  -3.694939e+04  -4.792789e+05   0.000000e+00   0.000000e+00   0.000000e+00   8.690790e+05   0.000000e+00   0.000000e+00   0.000000e+00
      936000   9.359990e-06   6.876955e+00   1.022900e+01   9.991586e-01   7.240337e+05  -3.694939e+04  -4.792789e+05   0.000000e+00   0.000000e+00   0.000000e+00   8.690790e+05   0.000000e+00   0.000000e+00   0.000000e+00
      944000   9.439990e-06   6.934878e+00   1.022604e+01   9.608163e-01   7.240337e+05  -3.694939e+04  -4.792789e+05   0.000000e+00   0.000000e+00   0.000000e+00   8.690790e+05   0.000000e+00   0.000000e+00   0.000000e+00
      952000   9.519990e-06   6.992801e+00   1.022309e+01   9.224740e-01   7.240337e+05  -3.694939e+04  -4.792789e+05   0.000000e+00   0.000000e+00   0.000000e+00   8.690790e+05   0.000000e+00   0.000000e+00   0.000000e+00
      960000   9.599990e-06   7.050723e+00   1.022013e+01   8.841317e-01   7.240337e+05  -3.694939e+04  -4.792789e+05   0.000000e+00   0.000000e+00   0.000000e+00   8.690790e+05   0.000000e+00   0.000000e+00   0.000000e+00
      968000   9.679990e-06   7.108646e+00   1.021717e+01   8.457894e-01   7.240337e+05  -3.694939e+04  -4.792789e+05   0.000000e+00   0.000000e+00   0.000000e+00   8.690790e+05   0.000000e+00   0.000000e+00   0.000000e+00
      976000   9.759990e-06   7.166569e+00   1.021422e+01   8.074471e-01   7.240337e+05  -3.694939e+04  -4.792789e+05   0.000000e+00   0.000000e+00   0.000000e+00   8.690790e+05   0.000000e+00   0.000000e+00   0.000000e+00
      984000   9.839990e-06   7.224491e+00   1.021126e+01   7.691048e-01   7.240337e+05  -3.694939e+04  -4.792789e+05   0.000000e+00   0.000000e+00   0.000000e+00   8.690790e+05   0.000000e+00   0.000000e+00   0.000000e+00
      992000   9.919990e-06   7.282414e+00   1.020831e+01   7.307624e-01   7.240337e+05  -3.694939e+04  -4.792789e+05   0.000000e+00   0.000000e+00   0.000000e+00   8.690790e+05   0.000000e+00   0.000000e+00   0.000000e+00
     1000000   9.999990e-06   7.340337e+00   1.020535e+01   6.924201e-01   7.240337e+05  -3.694939e+04  -4.792789e+05   0.000000e+00   0.000000e+00   0.000000e+00   8.690790e+05   0.000000e+00   0.000000e+00   0.000000e+00
     1008000   1.007999e-05   7.398260e+00   1.020239e+01   6.540778e-01   7.240337e+05  -3.694939e+04  -4.792789e+05   0.000000e+00   0.000000e+00   0.000000e+00   8.690790e+05   0.000000e+00   0.000000e+00   0.000000e+00
     1016000   1.015999e-05   7.456182e+00   1.019944e+01   6.157355e-01   7.240337e+05  -3.694939e+04  -4.792789e+05   0.000000e+00   0.000000e+00   0.000000e+00   8.690790e+05   0.000000e+00   0.000000e+00   0.000000e+00
     1024000   1.023999e-05   7.514105e+00   1.019648e+01   5.773932e-01   7.240337e+05  -3.694939e+04  -4.792789e+05   0.000000e+00   0.000000e+00   0.000000e+00   8.690790e+05   0.000000e+00   0.000000e+00   0.000000e+00
     1032000   1.031999e-05   7.572028e+00   1.019353e+01   5.390509e-01   7.240337e+05  -3.694939e+04  -4.792789e+05   0.000000e+00   0.000000e+00   0.000000e+00   8.690790e+05   0.000000e+00   0.000000e+00   0.000000e+00
     1040000   1.039999e-05   7.629950e+00   1.019057e+01   5.007086e-01   7.240337e+05  -3.694939e+04  -4.792789e+05   0.000000e+00   0.000000e+00   0.000000e+00   8.690790e+05   0.000000e+00   0.000000e+00   0.000000e+00
     1048000   1.047999e-05   7.687873e+00   1.018761e+01   4.623663e-01   7.240337e+05  -3.694939e+04  -4.792789e+05   0.000000e+00   0.000000e+00   0.000000e+00   8.690790e+05   0.000000e+00   0.000000e+00   0.000000e+00
     1056000   1.055999e-05   7.745796e+00   1.018466e+01   4.240240e-01   7.240337e+05  -3.694939e+04  -4.792789e+05   0.000000e+00   0.000000e+00   0.000000e+00   8.690790e+05   0.000000e+00   0.000000e+00   0.000000e+00
     1064000   1.063999e-05   7.803718e+00   1.018170e+01   3.856816e-01   7.240337e+05  -3.694939e+04  -4.792789e+05   0.000000e+00   0.000000e+00   0.000000e+00   8.690790e+05   0.000000e+00   0.000000e+00   0.000000e+00
     1072000   1.071999e-05   7.861641e+00   1.017875e+01   3.473393e-01   7.240337e+05  -3.694939e+04  -4.792789e+05   0.000000e+00   0.000000e+00   0.000000e+00   8.690790e+05   0.000000e+00   0.000000e+00   0.000000e+00
     1080000   1.079999e-05   7.919564e+00   1.017579e+01   3.089970e-01   7.240337e+05  -3.694939e+04  -4.792789e+05   0.000000e+00   0.000000e+00   0.000000e+00   8.690790e+05   0.000000e+00   0.000000e+00   0.000000e+00
     1088000   1.087999e-05   7.977486e+00   1.017283e+01   2.706547e-01   7.240337e+05  -3.694939e+04  -4.792789e+05   0.000000e+00   0.000000e+00   0.000000e+00   8.690790e+05   0.000000e+00   0.000000e+00   0.000000e+00
     1096000   1.095999e-05   8.035409e+00   1.016988e+01   2.323124e-01   7.240337e+05  -3.694939e+04  -4.792789e+05   0.000000e+00   0.000000e+00   0.000000e+00   8.690790e+05   0.000000e+00   0.000000e+00   0.000000e+00
     1104000   1.103999e-05   8.093332e+00   1.016692e+01   1.939701e-01   7.240337e+05  -3.694939e+04  -4.792789e+05   0.000000e+00   0.000000e+00   0.000000e+00   8.690790e+05   0.000000e+00   0.000000e+00   0.000000e+00
     1112000   1.111999e-05   8.151255e+00   1.016397e+01   1.556278e-01   7.240337e+05  -3.694939e+04  -4.792789e+05   0.000000e+00   0.000000e+00   0.000000e+00   8.690790e+05   0.000000e+00   0.000000e+00   0.000000e+00
     1120000   1.119999e-05   8.209177e+00   1.016101e+01   1.172855e-01   7.240337e+05  -3.694939e+04  -4.792789e+05   0.000000e+00   0.000000e+00   0.000000e+00   8.690790e+05   0.000000e+00   0.000000e+00   0.000000e+00
     1128000   1.127999e-05   8.267100e+00   1.015805e+01   7.894316e-02   7.240337e+05  -3.694939e+04  -4.792789e+05   0.000000e+00   0.000000e+00   0.000000e+00   8.690790e+05   0.000000e+00   0.000000e+00   0.000000e+00
     1136000   1.135999e-05   8.325023e+00   1.015510e+01   4.060085e-02   7.240337e+05  -3.694939e+04  -4.792789e+05   0.000000e+00   0.000000e+00   0.000000e+00   8.690790e+05   0.000000e+00   0.000000e+00   0.000000e+00
     1144000   1.143999e-05   8.382945e+00   1.015214e+01   2.258537e-03   7.240337e+05  -3.694939e+04  -4.792789e+05   0.000000e+00   0.000000e+00   0.000000e+00   8.690790e+05   0.000000e+00   0.000000e+00   0.000000e+00
