     timestep     time              x             y              z              vx             vy             vz             ax             ay             az         v_magnitude      ELoss        Electronic      Nuclear
           0   0.000000e+00   1.000000e-01   6.119861e+00   8.792921e+00   7.339116e+05  -4.241226e+05  -1.918126e+05   0.000000e+00   0.000000e+00   0.000000e+00   8.690790e+05   0.000000e+00   0.000000e+00   0.000000e+00
        8000   7.999000e-08   1.587129e-01   6.085931e+00   8.777576e+00   7.339116e+05  -4.241226e+05  -1.918126e+05   0.000000e+00   0.000000e+00   0.000000e+00   8.690790e+05   0.000000e+00   0.000000e+00   0.000000e+00
       16000   1.599900e-07   2.174258e-01   6.052001e+00   8.762231e+00   7.339116e+05  -4.241226e+05  -1.918126e+05   0.000000e+00   0.000000e+00   0.000000e+00   8.690790e+05   0.000000e+00   0.000000e+00   0.000000e+00
       24000   2.399900e-07   2.761388e-01   6.018072e+00   8.746886e+00   7.339116e+05  -4.241226e+05  -1.918126e+05   0.000000e+00   0.000000e+00   0.000000e+00   8.690790e+05   0.000000e+00   0.000000e+00   0.000000e+00
       32000   3.199900e-07   3.348517e-01   5.984142e+00   8.731541e+00   7.339116e+05  -4.241226e+05  -1.918126e+05   0.000000e+00   0.000000e+00   0.000000e+00   8.690790e+05   0.000000e+00   0.000000e+00   0.000000e+00
       40000   3.999900e-07   3.935646e-01   5.950212e+00   8.716196e+00   7.339116e+05  -4.241226e+05  -1.918126e+05   0.000000e+00   0.000000e+00   0.000000e+00   8.690790e+05   0.000000e+00   0.000000e+00   0.000000e+00
       48000   4.799900e-07   4.522775e-01   5.916282e+00   8.700851e+00   7.339116e+05  -4.241226e+05  -1.918126e+05   0.000000e+00   0.000000e+00   0.000000e+00   8.690790e+05   0.000000e+00   0.000000e+00   0.000000e+00
       56000   5.599900e-07   5.109905e-01   5.882352e+00   8.685506e+00   7.339116e+05  -4.241226e+05  -1.918126e+05   0.000000e+00   0.000000e+00   0.000000e+00   8.690790e+05   0.000000e+00   0.000000e+00   0.000000e+00
       64000   6.399900e-07   5.697034e-01   5.848423e+00   8.670161e+00   7.339116e+05  -4.241226e+05  -1.918126e+05   0.000000e+00   0.000000e+00   0.000000e+00   8.690790e+05   0.000000e+00   0.000000e+00   0.000000e+00
       72000   7.199900e-07   6.284163e-01   5.814493e+00   8.654816e+00   7.339116e+05  -4.241226e+05  -1.918126e+05   0.000000e+00   0.000000e+00   0.000000e+00   8.690790e+05   0.000000e+00   0.000000e+00   0.000000e+00
       80000   7.999900e-07   6.871292e-01   5.780563e+00   8.639471e+00   7.339116e+05  -4.241226e+05  -1.918126e+05   0.000000e+00   0.000000e+00   0.000000e+00   8.690790e+05   0.000000e+00   0.000000e+00   0.000000e+00
       88000   8.799900e-07   7.458422e-01   5.746633e+00   8.624126e+00   7.339116e+05  -4.241226e+05  -1.918126e+05   0.000000e+00   0.000000e+00   0.000000e+00   8.690790e+05   0.000000e+00   0.000000e+00   0.000000e+00
       96000   9.599900e-07   8.045551e-01   5.712703e+00   8.608781e+00   7.339116e+05  -4.241226e+05  -1.918126e+05   0.000000e+00   0.000000e+00   0.000000e+00   8.690790e+05   0.000000e+00   0.000000e+00   0.000000e+00
      104000   1.039990e-06   8.632680e-01   5.678773e+00   8.593436e+00   7.339116e+05  -4.241226e+05  -1.918126e+05   0.000000e+00   0.000000e+00   0.000000e+00   8.690790e+05   0.000000e+00   0.000000e+00   0.000000e+00
      112000   1.119990e-06   9.219809e-01   5.644844e+00   8.578091e+00   7.339116e+05  -4.241226e+05  -1.918126e+05   0.000000e+00   0.000000e+00   0.000000e+00   8.690790e+05   0.000000e+00   0.000000e+00   0.000000e+00
      120000   1.199990e-06   9.806939e-01   5.610914e+00   8.562746e+00   7.339116e+05  -4.241226e+05  -1.918126e+05   0.000000e+00   0.000000e+00   0.000000e+00   8.690790e+05   0.000000e+00   0.000000e+00   0.000000e+00
      128000   1.279990e-06   1.039407e+00   5.576984e+00   8.547401e+00   7.339116e+05  -4.241226e+05  -1.918126e+05   0.000000e+00   0.000000e+00   0.000000e+00   8.690790e+05   0.000000e+00   0.000000e+00   0.000000e+00
      136000   1.359990e-06   1.098120e+00   5.543054e+00   8.532056e+00   7.339116e+05  -4.241226e+05  -1.918126e+05   0.000000e+00   0.000000e+00   0.000000e+00   8.690790e+05   0.000000e+00   0.000000e+00   0.000000e+00
      144000   1.439990e-06   1.156833e+00   5.509124e+00   8.516711e+00   7.339116e+05  -4.241226e+05  -1.918126e+05   0.000000e+00   0.000000e+00   0.000000e+00   8.690790e+05   0.000000e+00   0.000000e+00   0.000000e+00
      152000   1.519990e-06   1.215546e+00   5.475195e+00   8.501366e+00   7.339116e+05  -4.241226e+05  -1.918126e+05   0.000000e+00   0.000000e+00   0.000000e+00   8.690790e+05   0.000000e+00   0.000000e+00   0.000000e+00
      160000   1.599990e-06   1.274258e+00   5.441265e+00   8.486021e+00   7.339116e+05  -4.241226e+05  -1.918126e+05   0.000000e+00   0.000000e+00   0.000000e+00   8.690790e+05   0.000000e+00   0.000000e+00   0.000000e+00
      168000   1.679990e-06   1.332971e+00   5.407335e+00   8.470676e+00   7.339116e+05  -4.241226e+05  -1.918126e+05   0.000000e+00   0.000000e+00   0.000000e+00   8.690790e+05   0.000000e+00   0.000000e+00   0.000000e+00
      176000   1.759990e-06   1.391684e+00   5.373405e+00   8.455331e+00   7.339116e+05  -4.241226e+05  -1.918126e+05   0.000000e+00   0.000000e+00   0.000000e+00   8.690790e+05   0.000000e+00   0.000000e+00   0.000000e+00
      184000   1.839990e-06   1.450397e+00   5.339475e+00   8.439986e+00   7.339116e+05  -4.241226e+05  -1.918126e+05   0.000000e+00   0.000000e+00   0.000000e+00   8.690790e+05   0.000000e+00   0.000000e+00   0.000000e+00
      192000   1.919990e-06   1.509110e+00   5.305546e+00   8.424641e+00   7.339116e+05  -4.241226e+05  -1.918126e+05   0.000000e+00   0.000000e+00   0.000000e+00   8.690790e+05   0.000000e+00   0.000000e+00   0.000000e+00
      200000   1.999990e-06   1.567823e+00   5.271616e+00   8.409296e+00   7.339116e+05  -4.241226e+05  -1.918126e+05   0.000000e+00   0.000000e+00   0.000000e+00   8.690790e+05   0.000000e+00   0.000000e+00   0.000000e+00
      208000   2.079990e-06   1.626536e+00   5.237686e+00   8.393951e+00   7.339116e+05  -4.241226e+05  -1.918126e+05   0.000000e+00   0.000000e+00   0.000000e+00   8.690790e+05   0.000000e+00   0.000000e+00   0.000000e+00
      216000   2.159990e-06   1.685249e+00   5.203756e+00   8.378606e+00   7.339116e+05  -4.241226e+05  -1.918126e+05   0.000000e+00   0.000000e+00   0.000000e+00   8.690790e+05   0.000000e+00   0.000000e+00   0.000000e+00
      224000   2.239990e-06   1.743962e+00   5.169826e+00   8.363261e+00   7.339116e+05  -4.241226e+05  -1.918126e+05   0.000000e+00   0.000000e+00   0.000000e+00   8.690790e+05   0.000000e+00   0.000000e+00   0.000000e+00
      232000   2.319990e-06   1.802675e+00   5.135896e+00   8.347916e+00   7.339116e+05  -4.241226e+05  -1.918126e+05   0.000000e+00   0.000000e+00   0.000000e+00   8.690790e+05   0.000000e+00   0.000000e+00   0.000000e+00
      240000   2.399990e-06   1.861388e+00   5.101967e+00   8.332571e+00   7.339116e+05  -4.241226e+05  -1.918126e+05   0.000000e+00   0.000000e+00   0.000000e+00   8.690790e+05   0.000000e+00   0.000000e+00   0.000000e+00
      248000   2.479990e-06   1.920101e+00   5.068037e+00   8.317226e+00   7.339116e+05  -4.241226e+05  -1.918126e+05   0.000000e+00   0.000000e+00   0.000000e+00   8.690790e+05   0.000000e+00   0.000000e+00   0.000000e+00
      256000   2.559990e-06   1.978814e+00   5.034107e+00   8.301881e+00   7.339116e+05  -4.241226e+05  -1.918126e+05   0.000000e+00   0.000000e+00   0.000000e+00   8.690790e+05   0.000000e+00   0.000000e+00   0.000000e+00
      264000   2.639990e-06   2.037527e+00   5.000177e+00   8.286536e+00   7.339116e+05  -4.241226e+05  -1.918126e+05   0.000000e+00   0.000000e+00   0.000000e+00   8.690790e+05   0.000000e+00   0.000000e+00   0.000000e+00
      272000   2.719990e-06   2.096239e+00   4.966247e+00   8.271191e+00   7.339116e+05  -4.241226e+05  -1.918126e+05   0.000000e+00   0.000000e+00   0.000000e+00   8.690790e+05   0.000000e+00   0.000000e+00   0.000000e+00
      280000   2.799990e-06   2.154952e+00   4.932318e+00   8.255846e+00   7.339116e+05  -4.241226e+05  -1.918126e+05   0.000000e+00   0.000000e+00   0.000000e+00   8.690790e+05   0.000000e+00   0.000000e+00   0.000000e+00
      288000   2.879990e-06   2.213665e+00   4.898388e+00   8.240501e+00   7.339116e+05  -4.241226e+05  -1.918126e+05   0.000000e+00   0.000000e+00   0.000000e+00   8.690790e+05   0.000000e+00   0.000000e+00   0.000000e+00
      296000   2.959990e-06   2.272378e+00   4.864458e+00   8.225156e+00   7.339116e+05  -4.241226e+05  -1.918126e+05   0.000000e+00   0.000000e+00   0.000000e+00   8.690790e+05   0.000000e+00   0.000000e+00   0.000000e+00
      304000   3.039990e-06   2.331091e+00   4.830528e+00   8.209811e+00   7.339116e+05  -4.241226e+05  -1.918126e+05   0.000000e+00   0.000000e+00   0.000000e+00   8.690790e+05   0.000000e+00   0.000000e+00   0.000000e+00
      312000   3.119990e-06   2.389804e+00   4.796598e+00   8.194466e+00   7.339116e+05  -4.241226e+05  -1.918126e+05   0.000000e+00   0.000000e+00   0.000000e+00   8.690790e+05   0.000000e+00   0.000000e+00   0.000000e+00
      320000   3.199990e-06   2.448517e+00   4.762669e+00   8.179121e+00   7.339116e+05  -4.241226e+05  -1.918126e+05   0.000000e+00   0.000000e+00   0.000000e+00   8.690790e+05   0.000000e+00   0.000000e+00   0.000000e+00
      328000   3.279990e-06   2.507230e+00   4.728739e+00   8.163776e+00   7.339116e+05  -4.241226e+05  -1.918126e+05   0.000000e+00   0.000000e+00   0.000000e+00   8.690790e+05   0.000000e+00   0.000000e+00   0.000000e+00
      336000   3.359990e-06   2.565943e+00   4.694809e+00   8.148431e+00   7.339116e+05  -4.241226e+05  -1.918126e+05   0.000000e+00   0.000000e+00   0.000000e+00   8.690790e+05   0.000000e+00   0.000000e+00   0.000000e+00
      344000   3.439990e-06   2.624656e+00   4.660879e+00   8.133086e+00   7.339116e+05  -4.241226e+05  -1.918126e+05   0.000000e+00   0.000000e+00   0.000000e+00   8.690790e+05   0.000000e+00   0.000000e+00   0.000000e+00
      352000   3.519990e-06   2.683369e+00   4.626949e+00   8.117741e+00   7.339116e+05  -4.241226e+05  -1.918126e+05   0.000000e+00   0.000000e+00   0.000000e+00   8.690790e+05   0.000000e+00   0.000000e+00   0.000000e+00
      360000   3.599990e-06   2.742082e+00   4.593019e+00   8.102396e+00   7.339116e+05  -4.241226e+05  -1.918126e+05   0.000000e+00   0.000000e+00   0.000000e+00   8.690790e+05   0.000000e+00   0.000000e+00   0.000000e+00
      368000   3.679990e-06   2.800795e+00   4.559090e+00   8.087051e+00   7.339116e+05  -4.241226e+05  -1.918126e+05   0.000000e+00   0.000000e+00   0.000000e+00   8.690790e+05   0.000000e+00   0.000000e+00   0.000000e+00
      376000   3.759990e-06   2.859507e+00   4.525160e+00   8.071706e+00   7.339116e+05  -4.241226e+05  -1.918126e+05   0.000000e+00   0.000000e+00   0.000000e+00   8.690790e+05   0.000000e+00   0.000000e+00   0.000000e+00
      384000   3.839990e-06   2.918220e+00   4.491230e+00   8.056361e+00   7.339116e+05  -4.241226e+05  -1.918126e+05   0.000000e+00   0.000000e+00   0.000000e+00   8.690790e+05   0.000000e+00   0.000000e+00   0.000000e+00
      392000   3.919990e-06   2.976933e+00   4.457300e+00   8.041015e+00   7.339116e+05  -4.241226e+05  -1.918126e+05   0.000000e+00   0.000000e+00   0.000000e+00   8.690790e+05   0.000000e+00   0.000000e+00   0.000000e+00
      400000   3.999990e-06   3.035646e+00   4.423370e+00   8.025670e+00   7.339116e+05  -4.241226e+05  -1.918126e+05   0.000000e+00   0.000000e+00   0.000000e+00   8.690790e+05   0.000000e+00   0.000000e+00   0.000000e+00
      408000   4.079990e-06   3.094359e+00   4.389441e+00   8.010325e+00   7.339116e+05  -4.241226e+05  -1.918126e+05   0.000000e+00   0.000000e+00   0.000000e+00   8.690790e+05   0.000000e+00   0.000000e+00   0.000000e+00
      416000   4.159990e-06   3.153072e+00   4.355511e+00   7.994980e+00   7.339116e+05  -4.241226e+05  -1.918126e+05   0.000000e+00   0.000000e+00   0.000000e+00   8.690790e+05   0.000000e+00   0.000000e+00   0.000000e+00
      424000   4.239990e-06   3.211785e+00   4.321581e+00   7.979635e+00   7.339116e+05  -4.241226e+05  -1.918126e+05   0.000000e+00   0.000000e+00   0.000000e+00   8.690790e+05   0.000000e+00   0.000000e+00   0.000000e+00
      432000   4.319990e-06   3.270498e+00   4.287651e+00   7.964290e+00   7.339116e+05  -4.241226e+05  -1.918126e+05   0.000000e+00   0.000000e+00   0.000000e+00   8.690790e+05   0.000000e+00   0.000000e+00   0.000000e+00
      440000   4.399990e-06   3.329211e+00   4.253721e+00   7.948945e+00   7.339116e+05  -4.241226e+05  -1.918126e+05   0.000000e+00   0.000000e+00   0.000000e+00   8.690790e+05   0.000000e+00   0.000000e+00   0.000000e+00
      448000   4.479990e-06   3.387924e+00   4.219792e+00   7.933600e+00   7.339116e+05  -4.241226e+05  -1.918126e+05   0.000000e+00   0.000000e+00   0.000000e+00   8.690790e+05   0.000000e+00   0.000000e+00   0.000000e+00
      456000   4.559990e-06   3.446637e+00   4.185862e+00   7.918255e+00   7.339116e+05  -4.241226e+05  -1.918126e+05   0.000000e+00   0.000000e+00   0.000000e+00   8.690790e+05   0.000000e+00   0.000000e+00   0.000000e+00
      464000   4.639990e-06   3.505350e+00   4.151932e+00   7.902910e+00   7.339116e+05  -4.241226e+05  -1.918126e+05   0.000000e+00   0.000000e+00   0.000000e+00   8.690790e+05   0.000000e+00   0.000000e+00   0.000000e+00
      472000   4.719990e-06   3.564063e+00   4.118002e+00   7.887565e+00   7.339116e+05  -4.241226e+05  -1.918126e+05   0.000000e+00   0.000000e+00   0.000000e+00   8.690790e+05   0.000000e+00   0.000000e+00   0.000000e+00
      480000   4.799990e-06   3.622775e+00   4.084072e+00   7.872220e+00   7.339116e+05  -4.241226e+05  -1.918126e+05   0.000000e+00   0.000000e+00   0.000000e+00   8.690790e+05   0.000000e+00   0.000000e+00   0.000000e+00
      488000   4.879990e-06   3.681488e+00   4.050143e+00   7.856875e+00   7.339116e+05  -4.241226e+05  -1.918126e+05   0.000000e+00   0.000000e+00   0.000000e+00   8.690790e+05   0.000000e+00   0.000000e+00   0.000000e+00
      496000   4.959990e-06   3.740201e+00   4.016213e+00   7.841530e+00   7.339116e+05  -4.241226e+05  -1.918126e+05   0.000000e+00   0.000000e+00   0.000000e+00   8.690790e+05   0.000000e+00   0.000000e+00   0.000000e+00
      504000   5.039990e-06   3.798914e+00   3.982283e+00   7.826185e+00   7.339116e+05  -4.241226e+05  -1.918126e+05   0.000000e+00   0.000000e+00   0.000000e+00   8.690790e+05   0.000000e+00   0.000000e+00   0.000000e+00
      512000   5.119990e-06   3.857627e+00   3.948353e+00   7.810840e+00   7.339116e+05  -4.241226e+05  -1.918126e+05   0.000000e+00   0.000000e+00   0.000000e+00   8.690790e+05   0.000000e+00   0.000000e+00   0.000000e+00
      520000   5.199990e-06   3.916340e+00   3.914423e+00   7.795495e+00   7.339116e+05  -4.241226e+05  -1.918126e+05   0.000000e+00   0.000000e+00   0.000000e+00   8.690790e+05   0.000000e+00   0.000000e+00   0.000000e+00
      528000   5.279990e-06   3.975053e+00   3.880493e+00   7.780150e+00   7.339116e+05  -4.241226e+05  -1.918126e+05   0.000000e+00   0.000000e+00   0.000000e+00   8.690790e+05   0.000000e+00   0.000000e+00   0.000000e+00
      536000   5.359990e-06   4.033766e+00   3.846564e+00   7.764805e+00   7.339116e+05  -4.241226e+05  -1.918126e+05   0.000000e+00   0.000000e+00   0.000000e+00   8.690790e+05   0.000000e+00   0.000000e+00   0.000000e+00
      544000   5.439990e-06   4.092479e+00   3.812634e+00   7.749460e+00   7.339116e+05  -4.241226e+05  -1.918126e+05   0.000000e+00   0.000000e+00   0.000000e+00   8.690790e+05   0.000000e+00   0.000000e+00   0.000000e+00
      552000   5.519990e-06   4.151192e+00   3.778704e+00   7.734115e+00   7.339116e+05  -4.241226e+05  -1.918126e+05   0.000000e+00   0.000000e+00   0.000000e+00   8.690790e+05   0.000000e+00   0.000000e+00   0.000000e+00
      560000   5.599990e-06   4.209905e+00   3.744774e+00   7.718770e+00   7.339116e+05  -4.241226e+05  -1.918126e+05   0.000000e+00   0.000000e+00   0.000000e+00   8.690790e+05   0.000000e+00   0.000000e+00   0.000000e+00
      568000   5.679990e-06   4.268618e+00   3.710844e+00   7.703425e+00   7.339116e+05  -4.241226e+05  -1.918126e+05   0.000000e+00   0.000000e+00   0.000000e+00   8.690790e+05   0.000000e+00   0.000000e+00   0.000000e+00
      576000   5.759990e-06   4.327331e+00   3.676915e+00   7.688080e+00   7.339116e+05  -4.241226e+05  -1.918126e+05   0.000000e+00   0.000000e+00   0.000000e+00   8.690790e+05   0.000000e+00   0.000000e+00   0.000000e+00
      584000   5.839990e-06   4.386044e+00   3.642985e+00   7.672735e+00   7.339116e+05  -4.241226e+05  -1.918126e+05   0.000000e+00   0.000000e+00   0.000000e+00   8.690790e+05   0.000000e+00   0.000000e+00   0.000000e+00
      592000   5.919990e-06   4.444756e+00   3.609055e+00   7.657390e+00   7.339116e+05  -4.241226e+05  -1.918126e+05   0.000000e+00   0.000000e+00   0.000000e+00   8.690790e+05   0.000000e+00   0.000000e+00   0.000000e+00
      600000   5.999990e-06   4.503469e+00   3.575125e+00   7.642045e+00   7.339116e+05  -4.241226e+05  -1.918126e+05   0.000000e+00   0.000000e+00   0.000000e+00   8.690790e+05   0.000000e+00   0.000000e+00   0.000000e+00
      608000   6.079990e-06   4.562182e+00   3.541195e+00   7.626700e+00   7.339116e+05  -4.241226e+05  -1.918126e+05   0.000000e+00   0.000000e+00   0.000000e+00   8.690790e+05   0.000000e+00   0.000000e+00   0.000000e+00
      616000   6.159990e-06   4.620895e+00   3.507266e+00   7.611355e+00   7.339116e+05  -4.241226e+05  -1.918126e+05   0.000000e+00   0.000000e+00   0.000000e+00   8.690790e+05   0.000000e+00   0.000000e+00   0.000000e+00
      624000   6.239990e-06   4.679608e+00   3.473336e+00   7.596010e+00   7.339116e+05  -4.241226e+05  -1.918126e+05   0.000000e+00   0.000000e+00   0.000000e+00   8.690790e+05   0.000000e+00   0.000000e+00   0.000000e+00
      632000   6.319990e-06   4.738321e+00   3.439406e+00   7.580665e+00   7.339116e+05  -4.241226e+05  -1.918126e+05   0.000000e+00   0.000000e+00   0.000000e+00   8.690790e+05   0.000000e+00   0.000000e+00   0.000000e+00
      640000   6.399990e-06   4.797034e+00   3.405476e+00   7.565320e+00   7.339116e+05  -4.241226e+05  -1.918126e+05   0.000000e+00   0.000000e+00   0.000000e+00   8.690790e+05   0.000000e+00   0.000000e+00   0.000000e+00
      648000   6.479990e-06   4.855747e+00   3.371546e+00   7.549975e+00   7.339116e+05  -4.241226e+05  -1.918126e+05   0.000000e+00   0.000000e+00   0.000000e+00   8.690790e+05   0.000000e+00   0.000000e+00   0.000000e+00
      656000   6.559990e-06   4.914460e+00   3.337616e+00   7.534630e+00   7.339116e+05  -4.241226e+05  -1.918126e+05   0.000000e+00   0.000000e+00   0.000000e+00   8.690790e+05   0.000000e+00   0.000000e+00   0.000000e+00
      664000   6.639990e-06   4.973173e+00   3.303687e+00   7.519285e+00   7.339116e+05  -4.241226e+05  -1.918126e+05   0.000000e+00   0.000000e+00   0.000000e+00   8.690790e+05   0.000000e+00   0.000000e+00   0.000000e+00
      672000   6.719990e-06   5.031886e+00   3.269757e+00   7.503940e+00   7.339116e+05  -4.241226e+05  -1.918126e+05   0.000000e+00   0.000000e+00   0.000000e+00   8.690790e+05   0.000000e+00   0.000000e+00   0.000000e+00
      680000   6.799990e-06   5.090599e+00   3.235827e+00   7.488595e+00   7.339116e+05  -4.241226e+05  -1.918126e+05   0.000000e+00   0.000000e+00   0.000000e+00   8.690790e+05   0.000000e+00   0.000000e+00   0.000000e+00
      688000   6.879990e-06   5.149312e+00   3.201897e+00   7.473250e+00   7.339116e+05  -4.241226e+05  -1.918126e+05   0.000000e+00   0.000000e+00   0.000000e+00   8.690790e+05   0.000000e+00   0.000000e+00   0.000000e+00
      696000   6.959990e-06   5.208024e+00   3.167967e+00   7.457905e+00   7.339116e+05  -4.241226e+05  -1.918126e+05   0.000000e+00   0.000000e+00   0.000000e+00   8.690790e+05   0.000000e+00   0.000000e+00   0.000000e+00
      704000   7.039990e-06   5.266737e+00   3.134038e+00   7.442560e+00   7.339116e+05  -4.241226e+05  -1.918126e+05   0.000000e+00   0.000000e+00   0.000000e+00   8.690790e+05   0.000000e+00   0.000000e+00   0.000000e+00
      712000   7.119990e-06   5.325450e+00   3.100108e+00   7.427215e+00   7.339116e+05  -4.241226e+05  -1.918126e+05   0.000000e+00   0.000000e+00   0.000000e+00   8.690790e+05   0.000000e+00   0.000000e+00   0.000000e+00
      720000   7.199990e-06   5.384163e+00   3.066178e+00   7.411870e+00   7.339116e+05  -4.241226e+05  -1.918126e+05   0.000000e+00   0.000000e+00   0.000000e+00   8.690790e+05   0.000000e+00   0.000000e+00   0.000000e+00
      728000   7.279990e-06   5.442876e+00   3.032248e+00   7.396525e+00   7.339116e+05  -4.241226e+05  -1.918126e+05   0.000000e+00   0.000000e+00   0.000000e+00   8.690790e+05   0.000000e+00   0.000000e+00   0.000000e+00
      736000   7.359990e-06   5.501589e+00   2.998318e+00   7.381180e+00   7.339116e+05  -4.241226e+05  -1.918126e+05   0.000000e+00   0.000000e+00   0.000000e+00   8.690790e+05   0.000000e+00   0.000000e+00   0.000000e+00
      744000   7.439990e-06   5.560302e+00   2.964389e+00   7.365835e+00   7.339116e+05  -4.241226e+05  -1.918126e+05   0.000000e+00   0.000000e+00   0.000000e+00   8.690790e+05   0.000000e+00   0.000000e+00   0.000000e+00
      752000   7.519990e-06   5.619015e+00   2.930459e+00   7.350490e+00   7.339116e+05  -4.241226e+05  -1.918126e+05   0.000000e+00   0.000000e+00   0.000000e+00   8.690790e+05   0.000000e+00   0.000000e+00   0.000000e+00
      760000   7.599990e-06   5.677728e+00   2.896529e+00   7.335145e+00   7.339116e+05  -4.241226e+05  -1.918126e+05   0.000000e+00   0.000000e+00   0.000000e+00   8.690790e+05   0.000000e+00   0.000000e+00   0.000000e+00
      768000   7.679990e-06   5.736441e+00   2.862599e+00   7.319800e+00   7.339116e+05  -4.241226e+05  -1.918126e+05   0.000000e+00   0.000000e+00   0.000000e+00   8.690790e+05   0.000000e+00   0.000000e+00   0.000000e+00
      776000   7.759990e-06   5.795154e+00   2.828669e+00   7.304455e+00   7.339116e+05  -4.241226e+05  -1.918126e+05   0.000000e+00   0.000000e+00   0.000000e+00   8.690790e+05   0.000000e+00   0.000000e+00   0.000000e+00
      784000   7.839990e-06   5.853867e+00   2.794740e+00   7.289110e+00   7.339116e+05  -4.241226e+05  -1.918126e+05   0.000000e+00   0.000000e+00   0.000000e+00   8.690790e+05   0.000000e+00   0.000000e+00   0.000000e+00
      792000   7.919990e-06   5.912580e+00   2.760810e+00   7.273765e+00   7.339116e+05  -4.241226e+05  -1.918126e+05   0.000000e+00   0.000000e+00   0.000000e+00   8.690790e+05   0.000000e+00   0.000000e+00   0.000000e+00
      800000   7.999990e-06   5.971292e+00   2.726880e+00   7.258420e+00   7.339116e+05  -4.241226e+05  -1.918126e+05   0.000000e+00   0.000000e+00   0.000000e+00   8.690790e+05   0.000000e+00   0.000000e+00   0.000000e+00
      808000   8.079990e-06   6.030005e+00   2.692950e+00   7.243075e+00   7.339116e+05  -4.241226e+05  -1.918126e+05   0.000000e+00   0.000000e+00   0.000000e+00   8.690790e+05   0.000000e+00   0.000000e+00   0.000000e+00
      816000   8.159990e-06   6.088718e+00   2.659020e+00   7.227730e+00   7.339116e+05  -4.241226e+05  -1.918126e+05   0.000000e+00   0.000000e+00   0.000000e+00   8.690790e+05   0.000000e+00   0.000000e+00   0.000000e+00
      824000   8.239990e-06   6.147431e+00   2.625090e+00   7.212385e+00   7.339116e+05  -4.241226e+05  -1.918126e+05   0.000000e+00   0.000000e+00   0.000000e+00   8.690790e+05   0.000000e+00   0.000000e+00   0.000000e+00
      832000   8.319990e-06   6.206144e+00   2.591161e+00   7.197040e+00   7.339116e+05  -4.241226e+05  -1.918126e+05   0.000000e+00   0.000000e+00   0.000000e+00   8.690790e+05   0.000000e+00   0.000000e+00   0.000000e+00
      840000   8.399990e-06   6.264857e+00   2.557231e+00   7.181695e+00   7.339116e+05  -4.241226e+05  -1.918126e+05   0.000000e+00   0.000000e+00   0.000000e+00   8.690790e+05   0.000000e+00   0.000000e+00   0.000000e+00
      848000   8.479990e-06   6.323570e+00   2.523301e+00   7.166350e+00   7.339116e+05  -4.241226e+05  -1.918126e+05   0.000000e+00   0.000000e+00   0.000000e+00   8.690790e+05   0.000000e+00   0.000000e+00   0.000000e+00
      856000   8.559990e-06   6.382283e+00   2.489371e+00   7.151005e+00   7.339116e+05  -4.241226e+05  -1.918126e+05   0.000000e+00   0.000000e+00   0.000000e+00   8.690790e+05   0.000000e+00   0.000000e+00   0.000000e+00
      864000   8.639990e-06   6.440996e+00   2.455441e+00   7.135660e+00   7.339116e+05  -4.241226e+05  -1.918126e+05   0.000000e+00   0.000000e+00   0.000000e+00   8.690790e+05   0.000000e+00   0.000000e+00   0.000000e+00
      872000   8.719990e-06   6.499709e+00   2.421512e+00   7.120315e+00   7.339116e+05  -4.241226e+05  -1.918126e+05   0.000000e+00   0.000000e+00   0.000000e+00   8.690790e+05   0.000000e+00   0.000000e+00   0.000000e+00
      880000   8.799990e-06   6.558422e+00   2.387582e+00   7.104970e+00   7.339116e+05  -4.241226e+05  -1.918126e+05   0.000000e+00   0.000000e+00   0.000000e+00   8.690790e+05   0.000000e+00   0.000000e+00   0.000000e+00
      888000   8.879990e-06   6.617135e+00   2.353652e+00   7.089625e+00   7.339116e+05  -4.241226e+05  -1.918126e+05   0.000000e+00   0.000000e+00   0.000000e+00   8.690790e+05   0.000000e+00   0.000000e+00   0.000000e+00
      896000   8.959990e-06   6.675848e+00   2.319722e+00   7.074280e+00   7.339116e+05  -4.241226e+05  -1.918126e+05   0.000000e+00   0.000000e+00   0.000000e+00   8.690790e+05   0.000000e+00   0.000000e+00   0.000000e+00
      904000   9.039990e-06   6.734561e+00   2.285792e+00   7.058935e+00   7.339116e+05  -4.241226e+05  -1.918126e+05   0.000000e+00   0.000000e+00   0.000000e+00   8.690790e+05   0.000000e+00   0.000000e+00   0.000000e+00
      912000   9.119990e-06   6.793273e+00   2.251863e+00   7.043590e+00   7.339116e+05  -4.241226e+05  -1.918126e+05   0.000000e+00   0.000000e+00   0.000000e+00   8.690790e+05   0.000000e+00   0.000000e+00   0.000000e+00
      920000   9.199990e-06   6.851986e+00   2.217933e+00   7.028245e+00   7.339116e+05  -4.241226e+05  -1.918126e+05   0.000000e+00   0.000000e+00   0.000000e+00   8.690790e+05   0.000000e+00   0.000000e+00   0.000000e+00
      928000   9.279990e-06   6.910699e+00   2.184003e+00   7.012900e+00   7.339116e+05  -4.241226e+05  -1.918126e+05   0.000000e+00   0.000000e+00   0.000000e+00   8.690790e+05   0.000000e+00   0.000000e+00   0.000000e+00
      936000   9.359990e-06   6.969412e+00   2.150073e+00   6.997555e+00   7.339116e+05  -4.241226e+05  -1.918126e+05   0.000000e+00   0.000000e+00   0.000000e+00   8.690790e+05   0.000000e+00   0.000000e+00   0.000000e+00
      944000   9.439990e-06   7.028125e+00   2.116143e+00   6.982210e+00   7.339116e+05  -4.241226e+05  -1.918126e+05   0.000000e+00   0.000000e+00   0.000000e+00   8.690790e+05   0.000000e+00   0.000000e+00   0.000000e+00
      952000   9.519990e-06   7.086838e+00   2.082213e+00   6.966865e+00   7.339116e+05  -4.241226e+05  -1.918126e+05   0.000000e+00   0.000000e+00   0.000000e+00   8.690790e+05   0.000000e+00   0.000000e+00   0.000000e+00
      960000   9.599990e-06   7.145551e+00   2.048284e+00   6.951520e+00   7.339116e+05  -4.241226e+05  -1.918126e+05   0.000000e+00   0.000000e+00   0.000000e+00   8.690790e+05   0.000000e+00   0.000000e+00   0.000000e+00
      968000   9.679990e-06   7.204264e+00   2.014354e+00   6.936175e+00   7.339116e+05  -4.241226e+05  -1.918126e+05   0.000000e+00   0.000000e+00   0.000000e+00   8.690790e+05   0.000000e+00   0.000000e+00   0.000000e+00
      976000   9.759990e-06   7.262977e+00   1.980424e+00   6.920830e+00   7.339116e+05  -4.241226e+05  -1.918126e+05   0.000000e+00   0.000000e+00   0.000000e+00   8.690790e+05   0.000000e+00   0.000000e+00   0.000000e+00
      984000   9.839990e-06   7.321690e+00   1.946494e+00   6.905485e+00   7.339116e+05  -4.241226e+05  -1.918126e+05   0.000000e+00   0.000000e+00   0.000000e+00   8.690790e+05   0.000000e+00   0.000000e+00   0.000000e+00
      992000   9.919990e-06   7.380403e+00   1.912564e+00   6.890140e+00   7.339116e+05  -4.241226e+05  -1.918126e+05   0.000000e+00   0.000000e+00   0.000000e+00   8.690790e+05   0.000000e+00   0.000000e+00   0.000000e+00
     1000000   9.999990e-06   7.439116e+00   1.878635e+00   6.874795e+00   7.339116e+05  -4.241226e+05  -1.918126e+05   0.000000e+00   0.000000e+00   0.000000e+00   8.690790e+05   0.000000e+00   0.000000e+00   0.000000e+00
     1008000   1.007999e-05   7.497829e+00   1.844705e+00   6.859450e+00   7.339116e+05  -4.241226e+05  -1.918126e+05   0.000000e+00   0.000000e+00   0.000000e+00   8.690790e+05   0.000000e+00   0.000000e+00   0.000000e+00
     1016000   1.015999e-05   7.556541e+00   1.810775e+00   6.844105e+00   7.339116e+05  -4.241226e+05  -1.918126e+05   0.000000e+00   0.000000e+00   0.000000e+00   8.690790e+05   0.000000e+00   0.000000e+00   0.000000e+00
     1024000   1.023999e-05   7.615254e+00   1.776845e+00   6.828760e+00   7.339116e+05  -4.241226e+05  -1.918126e+05   0.000000e+00   0.000000e+00   0.000000e+00   8.690790e+05   0.000000e+00   0.000000e+00   0.000000e+00
     1032000   1.031999e-05   7.673967e+00   1.742915e+00   6.813415e+00   7.339116e+05  -4.241226e+05  -1.918126e+05   0.000000e+00   0.000000e+00   0.000000e+00   8.690790e+05   0.000000e+00   0.000000e+00   0.000000e+00
     1040000   1.039999e-05   7.732680e+00   1.708986e+00   6.798070e+00   7.339116e+05  -4.241226e+05  -1.918126e+05   0.000000e+00   0.000000e+00   0.000000e+00   8.690790e+05   0.000000e+00   0.000000e+00   0.000000e+00
     1048000   1.047999e-05   7.791393e+00   1.675056e+00   6.782725e+00   7.339116e+05  -4.241226e+05  -1.918126e+05   0.000000e+00   0.000000e+00   0.000000e+00   8.690790e+05   0.000000e+00   0.000000e+00   0.000000e+00
     1056000   1.055999e-05   7.850106e+00   1.641126e+00   6.767380e+00   7.339116e+05  -4.241226e+05  -1.918126e+05   0.000000e+00   0.000000e+00   0.000000e+00   8.690790e+05   0.000000e+00   0.000000e+00   0.000000e+00
     1064000   1.063999e-05   7.908819e+00   1.607196e+00   6.752035e+00   7.339116e+05  -4.241226e+05  -1.918126e+05   0.000000e+00   0.000000e+00   0.000000e+00   8.690790e+05   0.000000e+00   0.000000e+00   0.000000e+00
     1072000   1.071999e-05   7.967532e+00   1.573266e+00   6.736690e+00   7.339116e+05  -4.241226e+05  -1.918126e+05   0.000000e+00   0.000000e+00   0.000000e+00   8.690790e+05   0.000000e+00   0.000000e+00   0.000000e+00
     1080000   1.079999e-05   8.026245e+00   1.539336e+00   6.721345e+00   7.339116e+05  -4.241226e+05  -1.918126e+05   0.000000e+00   0.000000e+00   0.000000e+00   8.690790e+05   0.000000e+00   0.000000e+00   0.000000e+00
     1088000   1.087999e-05   8.084958e+00   1.505407e+00   6.706000e+00   7.339116e+05  -4.241226e+05  -1.918126e+05   0.000000e+00   0.000000e+00   0.000000e+00   8.690790e+05   0.000000e+00   0.000000e+00   0.000000e+00
     1096000   1.095999e-05   8.143671e+00   1.471477e+00   6.690655e+00   7.339116e+05  -4.241226e+05  -1.918126e+05   0.000000e+00   0.000000e+00   0.000000e+00   8.690790e+05   0.000000e+00   0.000000e+00   0.000000e+00
     1104000   1.103999e-05   8.202384e+00   1.437547e+00   6.675310e+00   7.339116e+05  -4.241226e+05  -1.918126e+05   0.000000e+00   0.000000e+00   0.000000e+00   8.690790e+05   0.000000e+00   0.000000e+00   0.000000e+00
     1112000   1.111999e-05   8.261097e+00   1.403617e+00   6.659965e+00   7.339116e+05  -4.241226e+05  -1.918126e+05   0.000000e+00   0.000000e+00   0.000000e+00   8.690790e+05   0.000000e+00   0.000000e+00   0.000000e+00
     1120000   1.119999e-05   8.319809e+00   1.369687e+00   6.644620e+00   7.339116e+05  -4.241226e+05  -1.918126e+05   0.000000e+00   0.000000e+00   0.000000e+00   8.690790e+05   0.000000e+00   0.000000e+00   0.000000e+00
     1128000   1.127999e-05   8.378522e+00   1.335758e+00   6.629275e+00   7.339116e+05  -4.241226e+05  -1.918126e+05   0.000000e+00   0.000000e+00   0.000000e+00   8.690790e+05   0.000000e+00   0.000000e+00   0.000000e+00
     1136000   1.135999e-05   8.437235e+00   1.301828e+00   6.613930e+00   7.339116e+05  -4.241226e+05  -1.918126e+05   0.000000e+00   0.000000e+00   0.000000e+00   8.690790e+05   0.000000e+00   0.000000e+00   0.000000e+00
     1144000   1.143999e-05   8.495948e+00   1.267898e+00   6.598585e+00   7.339116e+05  -4.241226e+05  -1.918126e+05   0.000000e+00   0.000000e+00   0.000000e+00   8.690790e+05   0.000000e+00   0.000000e+00   0.000000e+00
     1152000   1.151999e-05   8.554661e+00   1.233968e+00   6.583240e+00   7.339116e+05  -4.241226e+05  -1.918126e+05   0.000000e+00   0.000000e+00   0.000000e+00   8.690790e+05   0.000000e+00   0.000000e+00   0.000000e+00
     1160000   1.159999e-05   8.613374e+00   1.200038e+00   6.567895e+00   7.339116e+05  -4.241226e+05  -1.918126e+05   0.000000e+00   0.000000e+00   0.000000e+00   8.690790e+05   0.000000e+00   0.000000e+00   0.000000e+00
     1168000   1.167999e-05   8.672087e+00   1.166109e+00   6.552549e+00   7.339116e+05  -4.241226e+05  -1.918126e+05   0.000000e+00   0.000000e+00   0.000000e+00   8.690790e+05   0.000000e+00   0.000000e+00   0.000000e+00
     1176000   1.175999e-05   8.730800e+00   1.132179e+00   6.537204e+00   7.339116e+05  -4.241226e+05  -1.918126e+05   0.000000e+00   0.000000e+00   0.000000e+00   8.690790e+05   0.000000e+00   0.000000e+00   0.000000e+00
     1184000   1.183999e-05   8.789513e+00   1.098249e+00   6.521859e+00   7.339116e+05  -4.241226e+05  -1.918126e+05   0.000000e+00   0.000000e+00   0.000000e+00   8.690790e+05   0.000000e+00   0.000000e+00   0.000000e+00
     1192000   1.191999e-05   8.848226e+00   1.064319e+00   6.506514e+00   7.339116e+05  -4.241226e+05  -1.918126e+05   0.000000e+00   0.000000e+00   0.000000e+00   8.690790e+05   0.000000e+00   0.000000e+00   0.000000e+00
     1200000   1.199999e-05   8.906939e+00   1.030389e+00   6.491169e+00   7.339116e+05  -4.241226e+05  -1.918126e+05   0.000000e+00   0.000000e+00   0.000000e+00   8.690790e+05   0.000000e+00   0.000000e+00   0.000000e+00
     1208000   1.207999e-05   8.965652e+00   9.964595e-01   6.475824e+00   7.339116e+05  -4.241226e+05  -1.918126e+05   0.000000e+00   0.000000e+00   0.000000e+00   8.690790e+05   0.000000e+00   0.000000e+00   0.000000e+00
     1216000   1.215999e-05   9.024365e+00   9.625297e-01   6.460479e+00   7.339116e+05  -4.241226e+05  -1.918126e+05   0.000000e+00   0.000000e+00   0.000000e+00   8.690790e+05   0.000000e+00   0.000000e+00   0.000000e+00
     1224000   1.223999e-05   9.083078e+00   9.285999e-01   6.445134e+00   7.339116e+05  -4.241226e+05  -1.918126e+05   0.000000e+00   0.000000e+00   0.000000e+00   8.690790e+05   0.000000e+00   0.000000e+00   0.000000e+00
     1232000   1.231999e-05   9.141790e+00   8.946701e-01   6.429789e+00   7.339116e+05  -4.241226e+05  -1.918126e+05   0.000000e+00   0.000000e+00   0.000000e+00   8.690790e+05   0.000000e+00   0.000000e+00   0.000000e+00
     1240000   1.239999e-05   9.200503e+00   8.607403e-01   6.414444e+00   7.339116e+05  -4.241226e+05  -1.918126e+05   0.000000e+00   0.000000e+00   0.000000e+00   8.690790e+05   0.000000e+00   0.000000e+00   0.000000e+00
     1248000   1.247999e-05   9.259216e+00   8.268105e-01   6.399099e+00   7.339116e+05  -4.241226e+05  -1.918126e+05   0.000000e+00   0.000000e+00   0.000000e+00   8.690790e+05   0.000000e+00   0.000000e+00   0.000000e+00
     1256000   1.255999e-05   9.317929e+00   7.928807e-01   6.383754e+00   7.339116e+05  -4.241226e+05  -1.918126e+05   0.000000e+00   0.000000e+00   0.000000e+00   8.690790e+05   0.000000e+00   0.000000e+00   0.000000e+00
     1264000   1.263999e-05   9.376642e+00   7.589508e-01   6.368409e+00   7.339116e+05  -4.241226e+05  -1.918126e+05   0.000000e+00   0.000000e+00   0.000000e+00   8.690790e+05   0.000000e+00   0.000000e+00   0.000000e+00
     1272000   1.271999e-05   9.435355e+00   7.250210e-01   6.353064e+00   7.339116e+05  -4.241226e+05  -1.918126e+05   0.000000e+00   0.000000e+00   0.000000e+00   8.690790e+05   0.000000e+00   0.000000e+00   0.000000e+00
     1280000   1.279999e-05   9.494068e+00   6.910912e-01   6.337719e+00   7.339116e+05  -4.241226e+05  -1.918126e+05   0.000000e+00   0.000000e+00   0.000000e+00   8.690790e+05   0.000000e+00   0.000000e+00   0.000000e+00
     1288000   1.287999e-05   9.552781e+00   6.571614e-01   6.322374e+00   7.339116e+05  -4.241226e+05  -1.918126e+05   0.000000e+00   0.000000e+00   0.000000e+00   8.690790e+05   0.000000e+00   0.000000e+00   0.000000e+00
     1296000   1.295999e-05   9.611494e+00   6.232316e-01   6.307029e+00   7.339116e+05  -4.241226e+05  -1.918126e+05   0.000000e+00   0.000000e+00   0.000000e+00   8.690790e+05   0.000000e+00   0.000000e+00   0.000000e+00
     1304000   1.303999e-05   9.670207e+00   5.893018e-01   6.291684e+00   7.339116e+05  -4.241226e+05  -1.918126e+05   0.000000e+00   0.000000e+00   0.000000e+00   8.690790e+05   0.000000e+00   0.000000e+00   0.000000e+00
     1312000   1.311999e-05   9.728920e+00   5.553720e-01   6.276339e+00   7.339116e+05  -4.241226e+05  -1.918126e+05   0.000000e+00   0.000000e+00   0.000000e+00   8.690790e+05   0.000000e+00   0.000000e+00   0.000000e+00
     1320000   1.319999e-05   9.787633e+00   5.214422e-01   6.260994e+00   7.339116e+05  -4.241226e+05  -1.918126e+05   0.000000e+00   0.000000e+00   0.000000e+00   8.690790e+05   0.000000e+00   0.000000e+00   0.000000e+00
     1328000   1.327999e-05   9.846346e+00   4.875124e-01   6.245649e+00   7.339116e+05  -4.241226e+05  -1.918126e+05   0.000000e+00   0.000000e+00   0.000000e+00   8.690790e+05   0.000000e+00   0.000000e+00   0.000000e+00
     1336000   1.335999e-05   9.905058e+00   4.535825e-01   6.230304e+00   7.339116e+05  -4.241226e+05  -1.918126e+05   0.000000e+00   0.000000e+00   0.000000e+00   8.690790e+05   0.000000e+00   0.000000e+00   0.000000e+00
     1344000   1.343999e-05   9.963771e+00   4.196527e-01   6.214959e+00   7.339116e+05  -4.241226e+05  -1.918126e+05   0.000000e+00   0.000000e+00   0.000000e+00   8.690790e+05   0.000000e+00   0.000000e+00   0.000000e+00
     1352000   1.351999e-05   1.002248e+01   3.857229e-01   6.199614e+00   7.339116e+05  -4.241226e+05  -1.918126e+05   0.000000e+00   0.000000e+00   0.000000e+00   8.690790e+05   0.000000e+00   0.000000e+00   0.000000e+00
     1360000   1.359999e-05   1.008120e+01   3.517931e-01   6.184269e+00   7.339116e+05  -4.241226e+05  -1.918126e+05   0.000000e+00   0.000000e+00   0.000000e+00   8.690790e+05   0.000000e+00   0.000000e+00   0.000000e+00
     1368000   1.367999e-05   1.013991e+01   3.178633e-01   6.168924e+00   7.339116e+05  -4.241226e+05  -1.918126e+05   0.000000e+00   0.000000e+00   0.000000e+00   8.690790e+05   0.000000e+00   0.000000e+00   0.000000e+00
     1376000   1.375999e-05   1.019862e+01   2.839335e-01   6.153579e+00   7.339116e+05  -4.241226e+05  -1.918126e+05   0.000000e+00   0.000000e+00   0.000000e+00   8.690790e+05   0.000000e+00   0.000000e+00   0.000000e+00
     1384000   1.383999e-05   1.025734e+01   2.500037e-01   6.138234e+00   7.339116e+05  -4.241226e+05  -1.918126e+05   0.000000e+00   0.000000e+00   0.000000e+00   8.690790e+05   0.000000e+00   0.000000e+00   0.000000e+00
     1392000   1.391999e-05   1.031605e+01   2.160739e-01   6.122889e+00   7.339116e+05  -4.241226e+05  -1.918126e+05   0.000000e+00   0.000000e+00   0.000000e+00   8.690790e+05   0.000000e+00   0.000000e+00   0.000000e+00
     1400000   1.399999e-05   1.037476e+01   1.821441e-01   6.107544e+00   7.339116e+05  -4.241226e+05  -1.918126e+05   0.000000e+00   0.000000e+00   0.000000e+00   8.690790e+05   0.000000e+00   0.000000e+00   0.000000e+00
     1408000   1.407999e-05   1.043347e+01   1.482142e-01   6.092199e+00   7.339116e+05  -4.241226e+05  -1.918126e+05   0.000000e+00   0.000000e+00   0.000000e+00   8.690790e+05   0.000000e+00   0.000000e+00   0.000000e+00
     1416000   1.415999e-05   1.049219e+01   1.142844e-01   6.076854e+00   7.339116e+05  -4.241226e+05  -1.918126e+05   0.000000e+00   0.000000e+00   0.000000e+00   8.690790e+05   0.000000e+00   0.000000e+00   0.000000e+00
     1424000   1.423999e-05   1.055090e+01   8.035462e-02   6.061509e+00   7.339116e+05  -4.241226e+05  -1.918126e+05   0.000000e+00   0.000000e+00   0.000000e+00   8.690790e+05   0.000000e+00   0.000000e+00   0.000000e+00
     1432000   1.431999e-05   1.060961e+01   4.642481e-02   6.046164e+00   7.339116e+05  -4.241226e+05  -1.918126e+05   0.000000e+00   0.000000e+00   0.000000e+00   8.690790e+05   0.000000e+00   0.000000e+00   0.000000e+00
     1440000   1.439999e-05   1.066833e+01   1.249500e-02   6.030819e+00   7.339116e+05  -4.241226e+05  -1.918126e+05   0.000000e+00   0.000000e+00   0.000000e+00   8.690790e+05   0.000000e+00   0.000000e+00   0.000000e+00
