     timestep     time              x             y              z              vx             vy             vz             ax             ay             az         v_magnitude      ELoss        Electronic      Nuclear
           0   0.000000e+00   1.000000e-01   1.661690e+01   1.294758e+01   2.112784e+06   1.475852e+06   5.117301e+05   0.000000e+00   0.000000e+00   0.000000e+00   2.627521e+06   0.000000e+00   0.000000e+00   0.000000e+00
        8000   7.999000e-08   2.690227e-01   1.673497e+01   1.298852e+01   2.112784e+06   1.475852e+06   5.117301e+05   0.000000e+00   0.000000e+00   0.000000e+00   2.627521e+06   0.000000e+00   0.000000e+00   0.000000e+00
       16000   1.599900e-07   4.380455e-01   1.685304e+01   1.302945e+01   2.112784e+06   1.475852e+06   5.117301e+05   0.000000e+00   0.000000e+00   0.000000e+00   2.627521e+06   0.000000e+00   0.000000e+00   0.000000e+00
       24000   2.399900e-07   6.070682e-01   1.697110e+01   1.307039e+01   2.112784e+06   1.475852e+06   5.117301e+05   0.000000e+00   0.000000e+00   0.000000e+00   2.627521e+06   0.000000e+00   0.000000e+00   0.000000e+00
       32000   3.199900e-07   7.760910e-01   1.708917e+01   1.311133e+01   2.112784e+06   1.475852e+06   5.117301e+05   0.000000e+00   0.000000e+00   0.000000e+00   2.627521e+06   0.000000e+00   0.000000e+00   0.000000e+00
       40000   3.999900e-07   9.451137e-01   1.720724e+01   1.315227e+01   2.112784e+06   1.475852e+06   5.117301e+05   0.000000e+00   0.000000e+00   0.000000e+00   2.627521e+06   0.000000e+00   0.000000e+00   0.000000e+00
       48000   4.799900e-07   1.114136e+00   1.732531e+01   1.319321e+01   2.112784e+06   1.475852e+06   5.117301e+05   0.000000e+00   0.000000e+00   0.000000e+00   2.627521e+06   0.000000e+00   0.000000e+00   0.000000e+00
       56000   5.599900e-07   1.283159e+00   1.744338e+01   1.323415e+01   2.112784e+06   1.475852e+06   5.117301e+05   0.000000e+00   0.000000e+00   0.000000e+00   2.627521e+06   0.000000e+00   0.000000e+00   0.000000e+00
       64000   6.399900e-07   1.452182e+00   1.756145e+01   1.327509e+01   2.112784e+06   1.475852e+06   5.117301e+05   0.000000e+00   0.000000e+00   0.000000e+00   2.627521e+06   0.000000e+00   0.000000e+00   0.000000e+00
       72000   7.199900e-07   1.621205e+00   1.767951e+01   1.331602e+01   2.112784e+06   1.475852e+06   5.117301e+05   0.000000e+00   0.000000e+00   0.000000e+00   2.627521e+06   0.000000e+00   0.000000e+00   0.000000e+00
       80000   7.999900e-07   1.790227e+00   1.779758e+01   1.335696e+01   2.112784e+06   1.475852e+06   5.117301e+05   0.000000e+00   0.000000e+00   0.000000e+00   2.627521e+06   0.000000e+00   0.000000e+00   0.000000e+00
       88000   8.799900e-07   1.959250e+00   1.791565e+01   1.339790e+01   2.112784e+06   1.475852e+06   5.117301e+05   0.000000e+00   0.000000e+00   0.000000e+00   2.627521e+06   0.000000e+00   0.000000e+00   0.000000e+00
       96000   9.599900e-07   2.128273e+00   1.803372e+01   1.343884e+01   2.112784e+06   1.475852e+06   5.117301e+05   0.000000e+00   0.000000e+00   0.000000e+00   2.627521e+06   0.000000e+00   0.000000e+00   0.000000e+00
      104000   1.039990e-06   2.297296e+00   1.815179e+01   1.347978e+01   2.112784e+06   1.475852e+06   5.117301e+05   0.000000e+00   0.000000e+00   0.000000e+00   2.627521e+06   0.000000e+00   0.000000e+00   0.000000e+00
      112000   1.119990e-06   2.466318e+00   1.826985e+01   1.352072e+01   2.112784e+06   1.475852e+06   5.117301e+05   0.000000e+00   0.000000e+00   0.000000e+00   2.627521e+06   0.000000e+00   0.000000e+00   0.000000e+00
      120000   1.199990e-06   2.635341e+00   1.838792e+01   1.356165e+01   2.112784e+06   1.475852e+06   5.117301e+05   0.000000e+00   0.000000e+00   0.000000e+00   2.627521e+06   0.000000e+00   0.000000e+00   0.000000e+00
      128000   1.279990e-06   2.804364e+00   1.850599e+01   1.360259e+01   2.112784e+06   1.475852e+06   5.117301e+05   0.000000e+00   0.000000e+00   0.000000e+00   2.627521e+06   0.000000e+00   0.000000e+00   0.000000e+00
      136000   1.359990e-06   2.973387e+00   1.862406e+01   1.364353e+01   2.112784e+06   1.475852e+06   5.117301e+05   0.000000e+00   0.000000e+00   0.000000e+00   2.627521e+06   0.000000e+00   0.000000e+00   0.000000e+00
      144000   1.439990e-06   3.142409e+00   1.874213e+01   1.368447e+01   2.112784e+06   1.475852e+06   5.117301e+05   0.000000e+00   0.000000e+00   0.000000e+00   2.627521e+06   0.000000e+00   0.000000e+00   0.000000e+00
      152000   1.519990e-06   3.311432e+00   1.886020e+01   1.372541e+01   2.112784e+06   1.475852e+06   5.117301e+05   0.000000e+00   0.000000e+00   0.000000e+00   2.627521e+06   0.000000e+00   0.000000e+00   0.000000e+00
      160000   1.599990e-06   3.480455e+00   1.897826e+01   1.376635e+01   2.112784e+06   1.475852e+06   5.117301e+05   0.000000e+00   0.000000e+00   0.000000e+00   2.627521e+06   0.000000e+00   0.000000e+00   0.000000e+00
      168000   1.679990e-06   3.649478e+00   1.909633e+01   1.380728e+01   2.112784e+06   1.475852e+06   5.117301e+05   0.000000e+00   0.000000e+00   0.000000e+00   2.627521e+06   0.000000e+00   0.000000e+00   0.000000e+00
      176000   1.759990e-06   3.818500e+00   1.921440e+01   1.384822e+01   2.112784e+06   1.475852e+06   5.117301e+05   0.000000e+00   0.000000e+00   0.000000e+00   2.627521e+06   0.000000e+00   0.000000e+00   0.000000e+00
      184000   1.839990e-06   3.987523e+00   1.933247e+01   1.388916e+01   2.112784e+06   1.475852e+06   5.117301e+05   0.000000e+00   0.000000e+00   0.000000e+00   2.627521e+06   0.000000e+00   0.000000e+00   0.000000e+00
      192000   1.919990e-06   4.156546e+00   1.945054e+01   1.393010e+01   2.112784e+06   1.475852e+06   5.117301e+05   0.000000e+00   0.000000e+00   0.000000e+00   2.627521e+06   0.000000e+00   0.000000e+00   0.000000e+00
      200000   1.999990e-06   4.325569e+00   1.956860e+01   1.397104e+01   2.112784e+06   1.475852e+06   5.117301e+05   0.000000e+00   0.000000e+00   0.000000e+00   2.627521e+06   0.000000e+00   0.000000e+00   0.000000e+00
      208000   2.079990e-06   4.494591e+00   1.968667e+01   1.401198e+01   2.112784e+06   1.475852e+06   5.117301e+05   0.000000e+00   0.000000e+00   0.000000e+00   2.627521e+06   0.000000e+00   0.000000e+00   0.000000e+00
      216000   2.159990e-06   4.663614e+00   1.980474e+01   1.405291e+01   2.112784e+06   1.475852e+06   5.117301e+05   0.000000e+00   0.000000e+00   0.000000e+00   2.627521e+06   0.000000e+00   0.000000e+00   0.000000e+00
      224000   2.239990e-06   4.832637e+00   1.992281e+01   1.409385e+01   2.112784e+06   1.475852e+06   5.117301e+05   0.000000e+00   0.000000e+00   0.000000e+00   2.627521e+06   0.000000e+00   0.000000e+00   0.000000e+00
      232000   2.319990e-06   5.001659e+00   2.004088e+01   1.413479e+01   2.112784e+06   1.475852e+06   5.117301e+05   0.000000e+00   0.000000e+00   0.000000e+00   2.627521e+06   0.000000e+00   0.000000e+00   0.000000e+00
      240000   2.399990e-06   5.170682e+00   2.015894e+01   1.417573e+01   2.112784e+06   1.475852e+06   5.117301e+05   0.000000e+00   0.000000e+00   0.000000e+00   2.627521e+06   0.000000e+00   0.000000e+00   0.000000e+00
      248000   2.479990e-06   5.339705e+00   2.027701e+01   1.421667e+01   2.112784e+06   1.475852e+06   5.117301e+05   0.000000e+00   0.000000e+00   0.000000e+00   2.627521e+06   0.000000e+00   0.000000e+00   0.000000e+00
      256000   2.559990e-06   5.508728e+00   2.039508e+01   1.425761e+01   2.112784e+06   1.475852e+06   5.117301e+05   0.000000e+00   0.000000e+00   0.000000e+00   2.627521e+06   0.000000e+00   0.000000e+00   0.000000e+00
      264000   2.639990e-06   5.677750e+00   2.051315e+01   1.429855e+01   2.112784e+06   1.475852e+06   5.117301e+05   0.000000e+00   0.000000e+00   0.000000e+00   2.627521e+06   0.000000e+00   0.000000e+00   0.000000e+00
      272000   2.719990e-06   5.846773e+00   2.063122e+01   1.433948e+01   2.112784e+06   1.475852e+06   5.117301e+05   0.000000e+00   0.000000e+00   0.000000e+00   2.627521e+06   0.000000e+00   0.000000e+00   0.000000e+00
      280000   2.799990e-06   6.015796e+00   2.074929e+01   1.438042e+01   2.112784e+06   1.475852e+06   5.117301e+05   0.000000e+00   0.000000e+00   0.000000e+00   2.627521e+06   0.000000e+00   0.000000e+00   0.000000e+00
      288000   2.879990e-06   6.184819e+00   2.086735e+01   1.442136e+01   2.112784e+06   1.475852e+06   5.117301e+05   0.000000e+00   0.000000e+00   0.000000e+00   2.627521e+06   0.000000e+00   0.000000e+00   0.000000e+00
      296000   2.959990e-06   6.353841e+00   2.098542e+01   1.446230e+01   2.112784e+06   1.475852e+06   5.117301e+05   0.000000e+00   0.000000e+00   0.000000e+00   2.627521e+06   0.000000e+00   0.000000e+00   0.000000e+00
      304000   3.039990e-06   6.522864e+00   2.110349e+01   1.450324e+01   2.112784e+06   1.475852e+06   5.117301e+05   0.000000e+00   0.000000e+00   0.000000e+00   2.627521e+06   0.000000e+00   0.000000e+00   0.000000e+00
      312000   3.119990e-06   6.691887e+00   2.122156e+01   1.454418e+01   2.112784e+06   1.475852e+06   5.117301e+05   0.000000e+00   0.000000e+00   0.000000e+00   2.627521e+06   0.000000e+00   0.000000e+00   0.000000e+00
      320000   3.199990e-06   6.860910e+00   2.133963e+01   1.458511e+01   2.112784e+06   1.475852e+06   5.117301e+05   0.000000e+00   0.000000e+00   0.000000e+00   2.627521e+06   0.000000e+00   0.000000e+00   0.000000e+00
      328000   3.279990e-06   7.029932e+00   2.145769e+01   1.462605e+01   2.112784e+06   1.475852e+06   5.117301e+05   0.000000e+00   0.000000e+00   0.000000e+00   2.627521e+06   0.000000e+00   0.000000e+00   0.000000e+00
      336000   3.359990e-06   7.198955e+00   2.157576e+01   1.466699e+01   2.112784e+06   1.475852e+06   5.117301e+05   0.000000e+00   0.000000e+00   0.000000e+00   2.627521e+06   0.000000e+00   0.000000e+00   0.000000e+00
      344000   3.439990e-06   7.367978e+00   2.169383e+01   1.470793e+01   2.112784e+06   1.475852e+06   5.117301e+05   0.000000e+00   0.000000e+00   0.000000e+00   2.627521e+06   0.000000e+00   0.000000e+00   0.000000e+00
      352000   3.519990e-06   7.537001e+00   2.181190e+01   1.474887e+01   2.112784e+06   1.475852e+06   5.117301e+05   0.000000e+00   0.000000e+00   0.000000e+00   2.627521e+06   0.000000e+00   0.000000e+00   0.000000e+00
      360000   3.599990e-06   7.706023e+00   2.192997e+01   1.478981e+01   2.112784e+06   1.475852e+06   5.117301e+05   0.000000e+00   0.000000e+00   0.000000e+00   2.627521e+06   0.000000e+00   0.000000e+00   0.000000e+00
      368000   3.679990e-06   7.875046e+00   2.204804e+01   1.483074e+01   2.112784e+06   1.475852e+06   5.117301e+05   0.000000e+00   0.000000e+00   0.000000e+00   2.627521e+06   0.000000e+00   0.000000e+00   0.000000e+00
      376000   3.759990e-06   8.044069e+00   2.216610e+01   1.487168e+01   2.112784e+06   1.475852e+06   5.117301e+05   0.000000e+00   0.000000e+00   0.000000e+00   2.627521e+06   0.000000e+00   0.000000e+00   0.000000e+00
      384000   3.839990e-06   8.213092e+00   2.228417e+01   1.491262e+01   2.112784e+06   1.475852e+06   5.117301e+05   0.000000e+00   0.000000e+00   0.000000e+00   2.627521e+06   0.000000e+00   0.000000e+00   0.000000e+00
      392000   3.919990e-06   8.382114e+00   2.240224e+01   1.495356e+01   2.112784e+06   1.475852e+06   5.117301e+05   0.000000e+00   0.000000e+00   0.000000e+00   2.627521e+06   0.000000e+00   0.000000e+00   0.000000e+00
      400000   3.999990e-06   8.551137e+00   2.252031e+01   1.499450e+01   2.112784e+06   1.475852e+06   5.117301e+05   0.000000e+00   0.000000e+00   0.000000e+00   2.627521e+06   0.000000e+00   0.000000e+00   0.000000e+00
      408000   4.079990e-06   8.720160e+00   2.263838e+01   1.503544e+01   2.112784e+06   1.475852e+06   5.117301e+05   0.000000e+00   0.000000e+00   0.000000e+00   2.627521e+06   0.000000e+00   0.000000e+00   0.000000e+00
      416000   4.159990e-06   8.889183e+00   2.275644e+01   1.507638e+01   2.112784e+06   1.475852e+06   5.117301e+05   0.000000e+00   0.000000e+00   0.000000e+00   2.627521e+06   0.000000e+00   0.000000e+00   0.000000e+00
      424000   4.239990e-06   9.058205e+00   2.287451e+01   1.511731e+01   2.112784e+06   1.475852e+06   5.117301e+05   0.000000e+00   0.000000e+00   0.000000e+00   2.627521e+06   0.000000e+00   0.000000e+00   0.000000e+00
      432000   4.319990e-06   9.227228e+00   2.299258e+01   1.515825e+01   2.112784e+06   1.475852e+06   5.117301e+05   0.000000e+00   0.000000e+00   0.000000e+00   2.627521e+06   0.000000e+00   0.000000e+00   0.000000e+00
      440000   4.399990e-06   9.396251e+00   2.311065e+01   1.519919e+01   2.112784e+06   1.475852e+06   5.117301e+05   0.000000e+00   0.000000e+00   0.000000e+00   2.627521e+06   0.000000e+00   0.000000e+00   0.000000e+00
      448000   4.479990e-06   9.565273e+00   2.322872e+01   1.524013e+01   2.112784e+06   1.475852e+06   5.117301e+05   0.000000e+00   0.000000e+00   0.000000e+00   2.627521e+06   0.000000e+00   0.000000e+00   0.000000e+00
      456000   4.559990e-06   9.734296e+00   2.334679e+01   1.528107e+01   2.112784e+06   1.475852e+06   5.117301e+05   0.000000e+00   0.000000e+00   0.000000e+00   2.627521e+06   0.000000e+00   0.000000e+00   0.000000e+00
      464000   4.639990e-06   9.903319e+00   2.346485e+01   1.532201e+01   2.112784e+06   1.475852e+06   5.117301e+05   0.000000e+00   0.000000e+00   0.000000e+00   2.627521e+06   0.000000e+00   0.000000e+00   0.000000e+00
      472000   4.719990e-06   1.007234e+01   2.358292e+01   1.536294e+01   2.112784e+06   1.475852e+06   5.117301e+05   0.000000e+00   0.000000e+00   0.000000e+00   2.627521e+06   0.000000e+00   0.000000e+00   0.000000e+00
      480000   4.799990e-06   1.024136e+01   2.370099e+01   1.540388e+01   2.112784e+06   1.475852e+06   5.117301e+05   0.000000e+00   0.000000e+00   0.000000e+00   2.627521e+06   0.000000e+00   0.000000e+00   0.000000e+00
      488000   4.879990e-06   1.041039e+01   2.381906e+01   1.544482e+01   2.112784e+06   1.475852e+06   5.117301e+05   0.000000e+00   0.000000e+00   0.000000e+00   2.627521e+06   0.000000e+00   0.000000e+00   0.000000e+00
      496000   4.959990e-06   1.057941e+01   2.393713e+01   1.548576e+01   2.112784e+06   1.475852e+06   5.117301e+05   0.000000e+00   0.000000e+00   0.000000e+00   2.627521e+06   0.000000e+00   0.000000e+00   0.000000e+00
      504000   5.039990e-06   1.074843e+01   2.405519e+01   1.552670e+01   2.112784e+06   1.475852e+06   5.117301e+05   0.000000e+00   0.000000e+00   0.000000e+00   2.627521e+06   0.000000e+00   0.000000e+00   0.000000e+00
      512000   5.119990e-06   1.091746e+01   2.417326e+01   1.556764e+01   2.112784e+06   1.475852e+06   5.117301e+05   0.000000e+00   0.000000e+00   0.000000e+00   2.627521e+06   0.000000e+00   0.000000e+00   0.000000e+00
      520000   5.199990e-06   1.108648e+01   2.429133e+01   1.560857e+01   2.112784e+06   1.475852e+06   5.117301e+05   0.000000e+00   0.000000e+00   0.000000e+00   2.627521e+06   0.000000e+00   0.000000e+00   0.000000e+00
      528000   5.279990e-06   1.125550e+01   2.440940e+01   1.564951e+01   2.112784e+06   1.475852e+06   5.117301e+05   0.000000e+00   0.000000e+00   0.000000e+00   2.627521e+06   0.000000e+00   0.000000e+00   0.000000e+00
      536000   5.359990e-06   1.142452e+01   2.452747e+01   1.569045e+01   2.112784e+06   1.475852e+06   5.117301e+05   0.000000e+00   0.000000e+00   0.000000e+00   2.627521e+06   0.000000e+00   0.000000e+00   0.000000e+00
      544000   5.439990e-06   1.159355e+01   2.464554e+01   1.573139e+01   2.112784e+06   1.475852e+06   5.117301e+05   0.000000e+00   0.000000e+00   0.000000e+00   2.627521e+06   0.000000e+00   0.000000e+00   0.000000e+00
      552000   5.519990e-06   1.176257e+01   2.476360e+01   1.577233e+01   2.112784e+06   1.475852e+06   5.117301e+05   0.000000e+00   0.000000e+00   0.000000e+00   2.627521e+06   0.000000e+00   0.000000e+00   0.000000e+00
      560000   5.599990e-06   1.193159e+01   2.488167e+01   1.581327e+01   2.112784e+06   1.475852e+06   5.117301e+05   0.000000e+00   0.000000e+00   0.000000e+00   2.627521e+06   0.000000e+00   0.000000e+00   0.000000e+00
      568000   5.679990e-06   1.210061e+01   2.499974e+01   1.585420e+01   2.112784e+06   1.475852e+06   5.117301e+05   0.000000e+00   0.000000e+00   0.000000e+00   2.627521e+06   0.000000e+00   0.000000e+00   0.000000e+00
      576000   5.759990e-06   1.226964e+01   2.511781e+01   1.589514e+01   2.112784e+06   1.475852e+06   5.117301e+05   0.000000e+00   0.000000e+00   0.000000e+00   2.627521e+06   0.000000e+00   0.000000e+00   0.000000e+00
      584000   5.839990e-06   1.243866e+01   2.523588e+01   1.593608e+01   2.112784e+06   1.475852e+06   5.117301e+05   0.000000e+00   0.000000e+00   0.000000e+00   2.627521e+06   0.000000e+00   0.000000e+00   0.000000e+00
      592000   5.919990e-06   1.260768e+01   2.535394e+01   1.597702e+01   2.112784e+06   1.475852e+06   5.117301e+05   0.000000e+00   0.000000e+00   0.000000e+00   2.627521e+06   0.000000e+00   0.000000e+00   0.000000e+00
      600000   5.999990e-06   1.277671e+01   2.547201e+01   1.601796e+01   2.112784e+06   1.475852e+06   5.117301e+05   0.000000e+00   0.000000e+00   0.000000e+00   2.627521e+06   0.000000e+00   0.000000e+00   0.000000e+00
      608000   6.079990e-06   1.294573e+01   2.559008e+01   1.605890e+01   2.112784e+06   1.475852e+06   5.117301e+05   0.000000e+00   0.000000e+00   0.000000e+00   2.627521e+06   0.000000e+00   0.000000e+00   0.000000e+00
      616000   6.159990e-06   1.311475e+01   2.570815e+01   1.609984e+01   2.112784e+06   1.475852e+06   5.117301e+05   0.000000e+00   0.000000e+00   0.000000e+00   2.627521e+06   0.000000e+00   0.000000e+00   0.000000e+00
      624000   6.239990e-06   1.328377e+01   2.582622e+01   1.614077e+01   2.112784e+06   1.475852e+06   5.117301e+05   0.000000e+00   0.000000e+00   0.000000e+00   2.627521e+06   0.000000e+00   0.000000e+00   0.000000e+00
      632000   6.319990e-06   1.345280e+01   2.594428e+01   1.618171e+01   2.112784e+06   1.475852e+06   5.117301e+05   0.000000e+00   0.000000e+00   0.000000e+00   2.627521e+06   0.000000e+00   0.000000e+00   0.000000e+00
      640000   6.399990e-06   1.362182e+01   2.606235e+01   1.622265e+01   2.112784e+06   1.475852e+06   5.117301e+05   0.000000e+00   0.000000e+00   0.000000e+00   2.627521e+06   0.000000e+00   0.000000e+00   0.000000e+00
      648000   6.479990e-06   1.379084e+01   2.618042e+01   1.626359e+01   2.112784e+06   1.475852e+06   5.117301e+05   0.000000e+00   0.000000e+00   0.000000e+00   2.627521e+06   0.000000e+00   0.000000e+00   0.000000e+00
      656000   6.559990e-06   1.395986e+01   2.629849e+01   1.630453e+01   2.112784e+06   1.475852e+06   5.117301e+05   0.000000e+00   0.000000e+00   0.000000e+00   2.627521e+06   0.000000e+00   0.000000e+00   0.000000e+00
      664000   6.639990e-06   1.412889e+01   2.641656e+01   1.634547e+01   2.112784e+06   1.475852e+06   5.117301e+05   0.000000e+00   0.000000e+00   0.000000e+00   2.627521e+06   0.000000e+00   0.000000e+00   0.000000e+00
      672000   6.719990e-06   1.429791e+01   2.653463e+01   1.638640e+01   2.112784e+06   1.475852e+06   5.117301e+05   0.000000e+00   0.000000e+00   0.000000e+00   2.627521e+06   0.000000e+00   0.000000e+00   0.000000e+00
      680000   6.799990e-06   1.446693e+01   2.665269e+01   1.642734e+01   2.112784e+06   1.475852e+06   5.117301e+05   0.000000e+00   0.000000e+00   0.000000e+00   2.627521e+06   0.000000e+00   0.000000e+00   0.000000e+00
      688000   6.879990e-06   1.463596e+01   2.677076e+01   1.646828e+01   2.112784e+06   1.475852e+06   5.117301e+05   0.000000e+00   0.000000e+00   0.000000e+00   2.627521e+06   0.000000e+00   0.000000e+00   0.000000e+00
      696000   6.959990e-06   1.480498e+01   2.688883e+01   1.650922e+01   2.112784e+06   1.475852e+06   5.117301e+05   0.000000e+00   0.000000e+00   0.000000e+00   2.627521e+06   0.000000e+00   0.000000e+00   0.000000e+00
      704000   7.039990e-06   1.497400e+01   2.700690e+01   1.655016e+01   2.112784e+06   1.475852e+06   5.117301e+05   0.000000e+00   0.000000e+00   0.000000e+00   2.627521e+06   0.000000e+00   0.000000e+00   0.000000e+00
      712000   7.119990e-06   1.514302e+01   2.712497e+01   1.659110e+01   2.112784e+06   1.475852e+06   5.117301e+05   0.000000e+00   0.000000e+00   0.000000e+00   2.627521e+06   0.000000e+00   0.000000e+00   0.000000e+00
      720000   7.199990e-06   1.531205e+01   2.724303e+01   1.663203e+01   2.112784e+06   1.475852e+06   5.117301e+05   0.000000e+00   0.000000e+00   0.000000e+00   2.627521e+06   0.000000e+00   0.000000e+00   0.000000e+00
      728000   7.279990e-06   1.548107e+01   2.736110e+01   1.667297e+01   2.112784e+06   1.475852e+06   5.117301e+05   0.000000e+00   0.000000e+00   0.000000e+00   2.627521e+06   0.000000e+00   0.000000e+00   0.000000e+00
      736000   7.359990e-06   1.565009e+01   2.747917e+01   1.671391e+01   2.112784e+06   1.475852e+06   5.117301e+05   0.000000e+00   0.000000e+00   0.000000e+00   2.627521e+06   0.000000e+00   0.000000e+00   0.000000e+00
      744000   7.439990e-06   1.581911e+01   2.759724e+01   1.675485e+01   2.112784e+06   1.475852e+06   5.117301e+05   0.000000e+00   0.000000e+00   0.000000e+00   2.627521e+06   0.000000e+00   0.000000e+00   0.000000e+00
      752000   7.519990e-06   1.598814e+01   2.771531e+01   1.679579e+01   2.112784e+06   1.475852e+06   5.117301e+05   0.000000e+00   0.000000e+00   0.000000e+00   2.627521e+06   0.000000e+00   0.000000e+00   0.000000e+00
      760000   7.599990e-06   1.615716e+01   2.783338e+01   1.683673e+01   2.112784e+06   1.475852e+06   5.117301e+05   0.000000e+00   0.000000e+00   0.000000e+00   2.627521e+06   0.000000e+00   0.000000e+00   0.000000e+00
      768000   7.679990e-06   1.632618e+01   2.795144e+01   1.687766e+01   2.112784e+06   1.475852e+06   5.117301e+05   0.000000e+00   0.000000e+00   0.000000e+00   2.627521e+06   0.000000e+00   0.000000e+00   0.000000e+00
      776000   7.759990e-06   1.649521e+01   2.806951e+01   1.691860e+01   2.112784e+06   1.475852e+06   5.117301e+05   0.000000e+00   0.000000e+00   0.000000e+00   2.627521e+06   0.000000e+00   0.000000e+00   0.000000e+00
      784000   7.839990e-06   1.666423e+01   2.818758e+01   1.695954e+01   2.112784e+06   1.475852e+06   5.117301e+05   0.000000e+00   0.000000e+00   0.000000e+00   2.627521e+06   0.000000e+00   0.000000e+00   0.000000e+00
      792000   7.919990e-06   1.683325e+01   2.830565e+01   1.700048e+01   2.112784e+06   1.475852e+06   5.117301e+05   0.000000e+00   0.000000e+00   0.000000e+00   2.627521e+06   0.000000e+00   0.000000e+00   0.000000e+00
      800000   7.999990e-06   1.700227e+01   2.842372e+01   1.704142e+01   2.112784e+06   1.475852e+06   5.117301e+05   0.000000e+00   0.000000e+00   0.000000e+00   2.627521e+06   0.000000e+00   0.000000e+00   0.000000e+00
      808000   8.079990e-06   1.717130e+01   2.854178e+01   1.708236e+01   2.112784e+06   1.475852e+06   5.117301e+05   0.000000e+00   0.000000e+00   0.000000e+00   2.627521e+06   0.000000e+00   0.000000e+00   0.000000e+00
      816000   8.159990e-06   1.734032e+01   2.865985e+01   1.712330e+01   2.112784e+06   1.475852e+06   5.117301e+05   0.000000e+00   0.000000e+00   0.000000e+00   2.627521e+06   0.000000e+00   0.000000e+00   0.000000e+00
      824000   8.239990e-06   1.750934e+01   2.877792e+01   1.716423e+01   2.112784e+06   1.475852e+06   5.117301e+05   0.000000e+00   0.000000e+00   0.000000e+00   2.627521e+06   0.000000e+00   0.000000e+00   0.000000e+00
      832000   8.319990e-06   1.767837e+01   2.889599e+01   1.720517e+01   2.112784e+06   1.475852e+06   5.117301e+05   0.000000e+00   0.000000e+00   0.000000e+00   2.627521e+06   0.000000e+00   0.000000e+00   0.000000e+00
      840000   8.399990e-06   1.784739e+01   2.901406e+01   1.724611e+01   2.112784e+06   1.475852e+06   5.117301e+05   0.000000e+00   0.000000e+00   0.000000e+00   2.627521e+06   0.000000e+00   0.000000e+00   0.000000e+00
      848000   8.479990e-06   1.801641e+01   2.913213e+01   1.728705e+01   2.112784e+06   1.475852e+06   5.117301e+05   0.000000e+00   0.000000e+00   0.000000e+00   2.627521e+06   0.000000e+00   0.000000e+00   0.000000e+00
      856000   8.559990e-06   1.818543e+01   2.925019e+01   1.732799e+01   2.112784e+06   1.475852e+06   5.117301e+05   0.000000e+00   0.000000e+00   0.000000e+00   2.627521e+06   0.000000e+00   0.000000e+00   0.000000e+00
      864000   8.639990e-06   1.835446e+01   2.936826e+01   1.736893e+01   2.112784e+06   1.475852e+06   5.117301e+05   0.000000e+00   0.000000e+00   0.000000e+00   2.627521e+06   0.000000e+00   0.000000e+00   0.000000e+00
      872000   8.719990e-06   1.852348e+01   2.948633e+01   1.740986e+01   2.112784e+06   1.475852e+06   5.117301e+05   0.000000e+00   0.000000e+00   0.000000e+00   2.627521e+06   0.000000e+00   0.000000e+00   0.000000e+00
      880000   8.799990e-06   1.869250e+01   2.960440e+01   1.745080e+01   2.112784e+06   1.475852e+06   5.117301e+05   0.000000e+00   0.000000e+00   0.000000e+00   2.627521e+06   0.000000e+00   0.000000e+00   0.000000e+00
      888000   8.879990e-06   1.886152e+01   2.972247e+01   1.749174e+01   2.112784e+06   1.475852e+06   5.117301e+05   0.000000e+00   0.000000e+00   0.000000e+00   2.627521e+06   0.000000e+00   0.000000e+00   0.000000e+00
      896000   8.959990e-06   1.903055e+01   2.984053e+01   1.753268e+01   2.112784e+06   1.475852e+06   5.117301e+05   0.000000e+00   0.000000e+00   0.000000e+00   2.627521e+06   0.000000e+00   0.000000e+00   0.000000e+00
      904000   9.039990e-06   1.919957e+01   2.995860e+01   1.757362e+01   2.112784e+06   1.475852e+06   5.117301e+05   0.000000e+00   0.000000e+00   0.000000e+00   2.627521e+06   0.000000e+00   0.000000e+00   0.000000e+00
      912000   9.119990e-06   1.936859e+01   3.007667e+01   1.761456e+01   2.112784e+06   1.475852e+06   5.117301e+05   0.000000e+00   0.000000e+00   0.000000e+00   2.627521e+06   0.000000e+00   0.000000e+00   0.000000e+00
      920000   9.199990e-06   1.953762e+01   3.019474e+01   1.765549e+01   2.112784e+06   1.475852e+06   5.117301e+05   0.000000e+00   0.000000e+00   0.000000e+00   2.627521e+06   0.000000e+00   0.000000e+00   0.000000e+00
      928000   9.279990e-06   1.970664e+01   3.031281e+01   1.769643e+01   2.112784e+06   1.475852e+06   5.117301e+05   0.000000e+00   0.000000e+00   0.000000e+00   2.627521e+06   0.000000e+00   0.000000e+00   0.000000e+00
      936000   9.359990e-06   1.987566e+01   3.043088e+01   1.773737e+01   2.112784e+06   1.475852e+06   5.117301e+05   0.000000e+00   0.000000e+00   0.000000e+00   2.627521e+06   0.000000e+00   0.000000e+00   0.000000e+00
      944000   9.439990e-06   2.004468e+01   3.054894e+01   1.777831e+01   2.112784e+06   1.475852e+06   5.117301e+05   0.000000e+00   0.000000e+00   0.000000e+00   2.627521e+06   0.000000e+00   0.000000e+00   0.000000e+00
      952000   9.519990e-06   2.021371e+01   3.066701e+01   1.781925e+01   2.112784e+06   1.475852e+06   5.117301e+05   0.000000e+00   0.000000e+00   0.000000e+00   2.627521e+06   0.000000e+00   0.000000e+00   0.000000e+00
      960000   9.599990e-06   2.038273e+01   3.078508e+01   1.786019e+01   2.112784e+06   1.475852e+06   5.117301e+05   0.000000e+00   0.000000e+00   0.000000e+00   2.627521e+06   0.000000e+00   0.000000e+00   0.000000e+00
      968000   9.679990e-06   2.055175e+01   3.090315e+01   1.790113e+01   2.112784e+06   1.475852e+06   5.117301e+05   0.000000e+00   0.000000e+00   0.000000e+00   2.627521e+06   0.000000e+00   0.000000e+00   0.000000e+00
      976000   9.759990e-06   2.072077e+01   3.102122e+01   1.794206e+01   2.112784e+06   1.475852e+06   5.117301e+05   0.000000e+00   0.000000e+00   0.000000e+00   2.627521e+06   0.000000e+00   0.000000e+00   0.000000e+00
      984000   9.839990e-06   2.088980e+01   3.113928e+01   1.798300e+01   2.112784e+06   1.475852e+06   5.117301e+05   0.000000e+00   0.000000e+00   0.000000e+00   2.627521e+06   0.000000e+00   0.000000e+00   0.000000e+00
      992000   9.919990e-06   2.105882e+01   3.125735e+01   1.802394e+01   2.112784e+06   1.475852e+06   5.117301e+05   0.000000e+00   0.000000e+00   0.000000e+00   2.627521e+06   0.000000e+00   0.000000e+00   0.000000e+00
     1000000   9.999990e-06   2.122784e+01   3.137542e+01   1.806488e+01   2.112784e+06   1.475852e+06   5.117301e+05   0.000000e+00   0.000000e+00   0.000000e+00   2.627521e+06   0.000000e+00   0.000000e+00   0.000000e+00
     1008000   1.007999e-05   2.139687e+01   3.149349e+01   1.810582e+01   2.112784e+06   1.475852e+06   5.117301e+05   0.000000e+00   0.000000e+00   0.000000e+00   2.627521e+06   0.000000e+00   0.000000e+00   0.000000e+00
     1016000   1.015999e-05   2.156589e+01   3.161156e+01   1.814676e+01   2.112784e+06   1.475852e+06   5.117301e+05   0.000000e+00   0.000000e+00   0.000000e+00   2.627521e+06   0.000000e+00   0.000000e+00   0.000000e+00
     1024000   1.023999e-05   2.173491e+01   3.172963e+01   1.818769e+01   2.112784e+06   1.475852e+06   5.117301e+05   0.000000e+00   0.000000e+00   0.000000e+00   2.627521e+06   0.000000e+00   0.000000e+00   0.000000e+00
     1032000   1.031999e-05   2.190393e+01   3.184769e+01   1.822863e+01   2.112784e+06   1.475852e+06   5.117301e+05   0.000000e+00   0.000000e+00   0.000000e+00   2.627521e+06   0.000000e+00   0.000000e+00   0.000000e+00
     1040000   1.039999e-05   2.207296e+01   3.196576e+01   1.826957e+01   2.112784e+06   1.475852e+06   5.117301e+05   0.000000e+00   0.000000e+00   0.000000e+00   2.627521e+06   0.000000e+00   0.000000e+00   0.000000e+00
     1048000   1.047999e-05   2.224198e+01   3.208383e+01   1.831051e+01   2.112784e+06   1.475852e+06   5.117301e+05   0.000000e+00   0.000000e+00   0.000000e+00   2.627521e+06   0.000000e+00   0.000000e+00   0.000000e+00
     1056000   1.055999e-05   2.241100e+01   3.220190e+01   1.835145e+01   2.112784e+06   1.475852e+06   5.117301e+05   0.000000e+00   0.000000e+00   0.000000e+00   2.627521e+06   0.000000e+00   0.000000e+00   0.000000e+00
     1064000   1.063999e-05   2.258002e+01   3.231997e+01   1.839239e+01   2.112784e+06   1.475852e+06   5.117301e+05   0.000000e+00   0.000000e+00   0.000000e+00   2.627521e+06   0.000000e+00   0.000000e+00   0.000000e+00
     1072000   1.071999e-05   2.274905e+01   3.243803e+01   1.843332e+01   2.112784e+06   1.475852e+06   5.117301e+05   0.000000e+00   0.000000e+00   0.000000e+00   2.627521e+06   0.000000e+00   0.000000e+00   0.000000e+00
     1080000   1.079999e-05   2.291807e+01   3.255610e+01   1.847426e+01   2.112784e+06   1.475852e+06   5.117301e+05   0.000000e+00   0.000000e+00   0.000000e+00   2.627521e+06   0.000000e+00   0.000000e+00   0.000000e+00
     1088000   1.087999e-05   2.308709e+01   3.267417e+01   1.851520e+01   2.112784e+06   1.475852e+06   5.117301e+05   0.000000e+00   0.000000e+00   0.000000e+00   2.627521e+06   0.000000e+00   0.000000e+00   0.000000e+00
     1096000   1.095999e-05   2.325612e+01   3.279224e+01   1.855614e+01   2.112784e+06   1.475852e+06   5.117301e+05   0.000000e+00   0.000000e+00   0.000000e+00   2.627521e+06   0.000000e+00   0.000000e+00   0.000000e+00
     1104000   1.103999e-05   2.342514e+01   3.291031e+01   1.859708e+01   2.112784e+06   1.475852e+06   5.117301e+05   0.000000e+00   0.000000e+00   0.000000e+00   2.627521e+06   0.000000e+00   0.000000e+00   0.000000e+00
     1112000   1.111999e-05   2.359416e+01   3.302837e+01   1.863802e+01   2.112784e+06   1.475852e+06   5.117301e+05   0.000000e+00   0.000000e+00   0.000000e+00   2.627521e+06   0.000000e+00   0.000000e+00   0.000000e+00
     1120000   1.119999e-05   2.376318e+01   3.314644e+01   1.867895e+01   2.112784e+06   1.475852e+06   5.117301e+05   0.000000e+00   0.000000e+00   0.000000e+00   2.627521e+06   0.000000e+00   0.000000e+00   0.000000e+00
     1128000   1.127999e-05   2.393221e+01   3.326451e+01   1.871989e+01   2.112784e+06   1.475852e+06   5.117301e+05   0.000000e+00   0.000000e+00   0.000000e+00   2.627521e+06   0.000000e+00   0.000000e+00   0.000000e+00
     1136000   1.135999e-05   2.410123e+01   3.338258e+01   1.876083e+01   2.112784e+06   1.475852e+06   5.117301e+05   0.000000e+00   0.000000e+00   0.000000e+00   2.627521e+06   0.000000e+00   0.000000e+00   0.000000e+00
     1144000   1.143999e-05   2.427025e+01   3.350065e+01   1.880177e+01   2.112784e+06   1.475852e+06   5.117301e+05   0.000000e+00   0.000000e+00   0.000000e+00   2.627521e+06   0.000000e+00   0.000000e+00   0.000000e+00
     1152000   1.151999e-05   2.443927e+01   3.361872e+01   1.884271e+01   2.112784e+06   1.475852e+06   5.117301e+05   0.000000e+00   0.000000e+00   0.000000e+00   2.627521e+06   0.000000e+00   0.000000e+00   0.000000e+00
     1160000   1.159999e-05   2.460830e+01   3.373678e+01   1.888365e+01   2.112784e+06   1.475852e+06   5.117301e+05   0.000000e+00   0.000000e+00   0.000000e+00   2.627521e+06   0.000000e+00   0.000000e+00   0.000000e+00
     1168000   1.167999e-05   2.477732e+01   3.385485e+01   1.892459e+01   2.112784e+06   1.475852e+06   5.117301e+05   0.000000e+00   0.000000e+00   0.000000e+00   2.627521e+06   0.000000e+00   0.000000e+00   0.000000e+00
     1176000   1.175999e-05   2.494634e+01   3.397292e+01   1.896552e+01   2.112784e+06   1.475852e+06   5.117301e+05   0.000000e+00   0.000000e+00   0.000000e+00   2.627521e+06   0.000000e+00   0.000000e+00   0.000000e+00
     1184000   1.183999e-05   2.511537e+01   3.409099e+01   1.900646e+01   2.112784e+06   1.475852e+06   5.117301e+05   0.000000e+00   0.000000e+00   0.000000e+00   2.627521e+06   0.000000e+00   0.000000e+00   0.000000e+00
     1192000   1.191999e-05   2.528439e+01   3.420906e+01   1.904740e+01   2.112784e+06   1.475852e+06   5.117301e+05   0.000000e+00   0.000000e+00   0.000000e+00   2.627521e+06   0.000000e+00   0.000000e+00   0.000000e+00
     1200000   1.199999e-05   2.545341e+01   3.432712e+01   1.908834e+01   2.112784e+06   1.475852e+06   5.117301e+05   0.000000e+00   0.000000e+00   0.000000e+00   2.627521e+06   0.000000e+00   0.000000e+00   0.000000e+00
     1208000   1.207999e-05   2.562243e+01   3.444519e+01   1.912928e+01   2.112784e+06   1.475852e+06   5.117301e+05   0.000000e+00   0.000000e+00   0.000000e+00   2.627521e+06   0.000000e+00   0.000000e+00   0.000000e+00
     1216000   1.215999e-05   2.579146e+01   3.456326e+01   1.917022e+01   2.112784e+06   1.475852e+06   5.117301e+05   0.000000e+00   0.000000e+00   0.000000e+00   2.627521e+06   0.000000e+00   0.000000e+00   0.000000e+00
     1224000   1.223999e-05   2.596048e+01   3.468133e+01   1.921115e+01   2.112784e+06   1.475852e+06   5.117301e+05   0.000000e+00   0.000000e+00   0.000000e+00   2.627521e+06   0.000000e+00   0.000000e+00   0.000000e+00
     1232000   1.231999e-05   2.612950e+01   3.479940e+01   1.925209e+01   2.112784e+06   1.475852e+06   5.117301e+05   0.000000e+00   0.000000e+00   0.000000e+00   2.627521e+06   0.000000e+00   0.000000e+00   0.000000e+00
     1240000   1.239999e-05   2.629852e+01   3.491747e+01   1.929303e+01   2.112784e+06   1.475852e+06   5.117301e+05   0.000000e+00   0.000000e+00   0.000000e+00   2.627521e+06   0.000000e+00   0.000000e+00   0.000000e+00
     1248000   1.247999e-05   2.646755e+01   3.503553e+01   1.933397e+01   2.112784e+06   1.475852e+06   5.117301e+05   0.000000e+00   0.000000e+00   0.000000e+00   2.627521e+06   0.000000e+00   0.000000e+00   0.000000e+00
     1256000   1.255999e-05   2.663657e+01   3.515360e+01   1.937491e+01   2.112784e+06   1.475852e+06   5.117301e+05   0.000000e+00   0.000000e+00   0.000000e+00   2.627521e+06   0.000000e+00   0.000000e+00   0.000000e+00
     1264000   1.263999e-05   2.680559e+01   3.527167e+01   1.941585e+01   2.112784e+06   1.475852e+06   5.117301e+05   0.000000e+00   0.000000e+00   0.000000e+00   2.627521e+06   0.000000e+00   0.000000e+00   0.000000e+00
     1272000   1.271999e-05   2.697462e+01   3.538974e+01   1.945678e+01   2.112784e+06   1.475852e+06   5.117301e+05   0.000000e+00   0.000000e+00   0.000000e+00   2.627521e+06   0.000000e+00   0.000000e+00   0.000000e+00
     1280000   1.279999e-05   2.714364e+01   3.550781e+01   1.949772e+01   2.112784e+06   1.475852e+06   5.117301e+05   0.000000e+00   0.000000e+00   0.000000e+00   2.627521e+06   0.000000e+00   0.000000e+00   0.000000e+00
     1288000   1.287999e-05   2.731266e+01   3.562587e+01   1.953866e+01   2.112785e+06   1.475852e+06   5.117291e+05   1.076429e+07  -2.414420e+06  -3.747938e+07   2.627521e+06   2.538006e-26   0.000000e+00   0.000000e+00
     1296000   1.295999e-05   2.748168e+01   3.574394e+01   1.957960e+01   2.112786e+06   1.475852e+06   5.117251e+05   2.189042e+07  -5.067226e+06  -7.576585e+07   2.627521e+06   1.038575e-25   0.000000e+00   0.000000e+00
     1304000   1.303999e-05   2.765071e+01   3.586201e+01   1.962054e+01   2.112787e+06   1.475851e+06   5.117203e+05   6.926993e+07  -1.724636e+07  -2.362610e+08   2.627521e+06   1.012558e-24   0.000000e+00   0.000000e+00
     1312000   1.311999e-05   2.781973e+01   3.598008e+01   1.966147e+01   2.112794e+06   1.475850e+06   5.116954e+05   3.307125e+07  -8.718784e+06  -1.114044e+08   2.627521e+06   2.259634e-25   0.000000e+00   0.000000e+00
     1320000   1.319999e-05   2.798875e+01   3.609815e+01   1.970241e+01   2.112802e+06   1.475848e+06   5.116706e+05   2.767451e+08  -7.582973e+07  -9.240211e+08   2.627521e+06   1.556492e-23   0.000000e+00   0.000000e+00
     1328000   1.327999e-05   2.815778e+01   3.621621e+01   1.974334e+01   2.112815e+06   1.475844e+06   5.116261e+05   2.091111e+08  -6.006036e+07  -6.902958e+08   2.627521e+06   8.708848e-24   0.000000e+00   0.000000e+00
     1336000   1.335999e-05   2.832680e+01   3.633428e+01   1.978427e+01   2.112829e+06   1.475840e+06   5.115807e+05   1.595562e+08  -4.769752e+07  -5.213665e+08   2.627521e+06   4.984255e-24   0.000000e+00   0.000000e+00
     1344000   1.343999e-05   2.849583e+01   3.645235e+01   1.982519e+01   2.112842e+06   1.475836e+06   5.115401e+05   1.443115e+08  -4.531967e+07  -4.653064e+08   2.627521e+06   3.982502e-24   0.000000e+00   0.000000e+00
     1352000   1.351999e-05   2.866486e+01   3.657042e+01   1.986611e+01   2.112856e+06   1.475831e+06   5.114936e+05   1.972100e+08  -6.371843e+07  -6.307773e+08   2.627521e+06   7.331397e-24   0.000000e+00   0.000000e+00
     1360000   1.359999e-05   2.883389e+01   3.668848e+01   1.990703e+01   2.112869e+06   1.475827e+06   5.114515e+05   1.634651e+08  -5.454624e+07  -5.178976e+08   2.627521e+06   4.952927e-24   0.000000e+00   0.000000e+00
     1368000   1.367999e-05   2.900292e+01   3.680655e+01   1.994795e+01   2.112878e+06   1.475824e+06   5.114253e+05   3.440500e+07  -1.186148e+07  -1.079104e+08   2.627521e+06   2.153125e-25   0.000000e+00   0.000000e+00
     1376000   1.375999e-05   2.917195e+01   3.692461e+01   1.998886e+01   2.112882e+06   1.475822e+06   5.114101e+05   9.431021e+07  -3.375207e+07  -2.922397e+08   2.627521e+06   1.586266e-24   0.000000e+00   0.000000e+00
     1384000   1.383999e-05   2.934098e+01   3.704268e+01   2.002977e+01   2.112883e+06   1.475822e+06   5.114067e+05  -1.927660e+02   2.871568e+02  -3.226462e+01   2.627521e+06   2.006830e-36   0.000000e+00   0.000000e+00
     1392000   1.391999e-05   2.951001e+01   3.716075e+01   2.007069e+01   2.112883e+06   1.475822e+06   5.114067e+05  -1.708753e+02   2.377143e+02   1.997551e+01   2.627521e+06   1.432324e-36   0.000000e+00   0.000000e+00
     1400000   1.399999e-05   2.967904e+01   3.727881e+01   2.011160e+01   2.112883e+06   1.475822e+06   5.114067e+05  -4.944728e+01   7.071654e+01   2.176573e-01   2.627521e+06   1.239592e-37   0.000000e+00   0.000000e+00
     1408000   1.407999e-05   2.984807e+01   3.739688e+01   2.015251e+01   2.112883e+06   1.475822e+06   5.114067e+05  -3.098319e+01   4.351866e+01   2.420900e+00   2.627521e+06   4.760597e-38   0.000000e+00   0.000000e+00
     1416000   1.415999e-05   3.001710e+01   3.751494e+01   2.019342e+01   2.112883e+06   1.475822e+06   5.114067e+05  -4.036932e+01   5.566366e+01   6.151676e+00   2.627521e+06   7.936420e-38   0.000000e+00   0.000000e+00
     1424000   1.423999e-05   3.018613e+01   3.763301e+01   2.023434e+01   2.112883e+06   1.475822e+06   5.114067e+05  -3.014078e+01   4.315152e+01  -5.252486e-20   2.627521e+06   4.602099e-38   0.000000e+00   0.000000e+00
     1432000   1.431999e-05   3.035516e+01   3.775107e+01   2.027525e+01   2.112883e+06   1.475822e+06   5.114067e+05   8.954953e+01  -1.282050e+02   1.492982e-19   2.627521e+06   4.066902e-37   0.000000e+00   0.000000e+00
     1440000   1.439999e-05   3.052419e+01   3.786914e+01   2.031616e+01   2.112883e+06   1.475822e+06   5.114067e+05   6.461124e+01  -9.250169e+01   2.193627e-19   2.627521e+06   2.118595e-37   0.000000e+00   0.000000e+00
     1448000   1.447999e-05   3.069322e+01   3.798721e+01   2.035707e+01   2.112883e+06   1.475822e+06   5.114067e+05   5.829549e+01  -8.345964e+01  -2.454211e-20   2.627521e+06   1.723984e-37   0.000000e+00   0.000000e+00
     1456000   1.455999e-05   3.086226e+01   3.810527e+01   2.039799e+01   2.112883e+06   1.475822e+06   5.114067e+05   1.854485e+02  -2.655002e+02  -5.099520e-20   2.627521e+06   1.744369e-36   0.000000e+00   0.000000e+00
     1464000   1.463999e-05   3.103129e+01   3.822334e+01   2.043890e+01   2.112883e+06   1.475822e+06   5.114067e+05   1.224387e+02  -1.752912e+02   2.014238e-19   2.627521e+06   7.604496e-37   0.000000e+00   0.000000e+00
     1472000   1.471999e-05   3.120032e+01   3.834140e+01   2.047981e+01   2.112883e+06   1.475822e+06   5.114067e+05   1.365996e+02  -1.955649e+02   7.800001e-20   2.627521e+06   9.466223e-37   0.000000e+00   0.000000e+00
     1480000   1.479999e-05   3.136935e+01   3.845947e+01   2.052072e+01   2.112883e+06   1.475822e+06   5.114067e+05   8.614448e+01  -1.233301e+02   1.610062e-19   2.627521e+06   3.764652e-37   0.000000e+00   0.000000e+00
     1488000   1.487999e-05   3.153838e+01   3.857753e+01   2.056164e+01   2.112883e+06   1.475822e+06   5.114067e+05   1.358374e+02  -1.944737e+02  -6.199450e-20   2.627521e+06   9.358915e-37   0.000000e+00   0.000000e+00
     1496000   1.495999e-05   3.170741e+01   3.869560e+01   2.060255e+01   2.112883e+06   1.475822e+06   5.114067e+05   1.491631e+02  -2.135517e+02   2.973223e-19   2.627521e+06   1.128037e-36   0.000000e+00   0.000000e+00
     1504000   1.503999e-05   3.187644e+01   3.881367e+01   2.064346e+01   2.112883e+06   1.475822e+06   5.114067e+05   1.550737e+02  -2.220136e+02   6.639061e-20   2.627521e+06   1.219446e-36   0.000000e+00   0.000000e+00
     1512000   1.511999e-05   3.204547e+01   3.893173e+01   2.068437e+01   2.112883e+06   1.475822e+06   5.114067e+05   1.843032e+02  -2.638605e+02  -5.061837e-19   2.627521e+06   1.722416e-36   0.000000e+00   0.000000e+00
     1520000   1.519999e-05   3.221450e+01   3.904980e+01   2.072529e+01   2.112883e+06   1.475822e+06   5.114067e+05   1.813791e+02  -2.596742e+02  -2.151415e-19   2.627521e+06   1.668290e-36   0.000000e+00   0.000000e+00
     1528000   1.527999e-05   3.238353e+01   3.916786e+01   2.076620e+01   2.112883e+06   1.475822e+06   5.114067e+05   1.358002e+02  -1.944205e+02  -3.113182e-19   2.627521e+06   9.355448e-37   0.000000e+00   0.000000e+00
     1536000   1.535999e-05   3.255256e+01   3.928593e+01   2.080711e+01   2.112883e+06   1.475822e+06   5.114067e+05   1.892058e+02  -2.708795e+02   5.111002e-19   2.627521e+06   1.815866e-36   0.000000e+00   0.000000e+00
     1544000   1.543999e-05   3.272159e+01   3.940399e+01   2.084802e+01   2.112883e+06   1.475822e+06   5.114067e+05   1.851840e+02  -2.651216e+02  -4.519587e-19   2.627521e+06   1.739399e-36   0.000000e+00   0.000000e+00
     1552000   1.551999e-05   3.289062e+01   3.952206e+01   2.088894e+01   2.112883e+06   1.475822e+06   5.114067e+05   1.518624e+02  -2.174161e+02   3.739406e-20   2.627521e+06   1.170125e-36   0.000000e+00   0.000000e+00
     1560000   1.559999e-05   3.305965e+01   3.964013e+01   2.092985e+01   2.112883e+06   1.475822e+06   5.114067e+05   1.527342e+02  -2.186642e+02   3.542028e-20   2.627521e+06   1.183499e-36   0.000000e+00   0.000000e+00
     1568000   1.567999e-05   3.322868e+01   3.975819e+01   2.097076e+01   2.112883e+06   1.475822e+06   5.114067e+05   2.310886e+02  -3.308415e+02   2.768130e-19   2.627521e+06   2.708121e-36   0.000000e+00   0.000000e+00
     1576000   1.575999e-05   3.339772e+01   3.987626e+01   2.101167e+01   2.112883e+06   1.475822e+06   5.114067e+05   1.336216e+02  -1.913014e+02  -9.850945e-21   2.627521e+06   9.057345e-37   0.000000e+00   0.000000e+00
     1584000   1.583999e-05   3.356675e+01   3.999432e+01   2.105259e+01   2.112883e+06   1.475822e+06   5.114067e+05   1.573987e+02  -2.253423e+02  -7.178962e-23   2.627521e+06   1.256773e-36   0.000000e+00   0.000000e+00
     1592000   1.591999e-05   3.373578e+01   4.011239e+01   2.109350e+01   2.112883e+06   1.475822e+06   5.114067e+05   1.593022e+02  -2.280674e+02  -2.188738e-19   2.627521e+06   1.286860e-36   0.000000e+00   0.000000e+00
     1600000   1.599999e-05   3.390481e+01   4.023046e+01   2.113441e+01   2.112883e+06   1.475822e+06   5.114067e+05   1.362011e+02  -1.949945e+02  -1.979159e-19   2.627521e+06   9.409066e-37   0.000000e+00   0.000000e+00
     1608000   1.607999e-05   3.407384e+01   4.034852e+01   2.117532e+01   2.112883e+06   1.475822e+06   5.114067e+05   2.128807e+02  -3.047739e+02  -4.050188e-19   2.627521e+06   2.298470e-36   0.000000e+00   0.000000e+00
     1616000   1.615999e-05   3.424287e+01   4.046659e+01   2.121624e+01   2.112883e+06   1.475822e+06   5.114067e+05   2.240783e+02  -3.208052e+02   4.665467e-19   2.627521e+06   2.546397e-36   0.000000e+00   0.000000e+00
     1624000   1.623999e-05   3.441190e+01   4.058465e+01   2.125715e+01   2.112883e+06   1.475822e+06   5.114067e+05   1.778864e+02  -2.546738e+02  -5.435062e-20   2.627521e+06   1.604717e-36   0.000000e+00   0.000000e+00
     1632000   1.631999e-05   3.458093e+01   4.070272e+01   2.129806e+01   2.112883e+06   1.475822e+06   5.114067e+05   1.388640e+02  -1.988068e+02   8.883783e-20   2.627521e+06   9.780529e-37   0.000000e+00   0.000000e+00
     1640000   1.639999e-05   3.474996e+01   4.082078e+01   2.133897e+01   2.112883e+06   1.475822e+06   5.114067e+05   1.560030e+02  -2.233441e+02   1.478178e-19   2.627521e+06   1.234332e-36   0.000000e+00   0.000000e+00
     1648000   1.647999e-05   3.491899e+01   4.093885e+01   2.137989e+01   2.112883e+06   1.475822e+06   5.114067e+05   1.689865e+02  -2.419321e+02  -1.089704e-19   2.627521e+06   1.448453e-36   0.000000e+00   0.000000e+00
     1656000   1.655999e-05   3.508802e+01   4.105692e+01   2.142080e+01   2.112883e+06   1.475822e+06   5.114067e+05   1.083146e+02  -1.550703e+02   1.386936e-19   2.627521e+06   5.952196e-37   0.000000e+00   0.000000e+00
     1664000   1.663999e-05   3.525705e+01   4.117498e+01   2.146171e+01   2.112883e+06   1.475822e+06   5.114067e+05   1.228970e+02  -1.759474e+02   2.111670e-19   2.627521e+06   7.661725e-37   0.000000e+00   0.000000e+00
     1672000   1.671999e-05   3.542608e+01   4.129305e+01   2.150263e+01   2.112883e+06   1.475822e+06   5.114067e+05   1.352240e+02  -1.935955e+02   1.244375e-20   2.627521e+06   9.276856e-37   0.000000e+00   0.000000e+00
     1680000   1.679999e-05   3.559511e+01   4.141111e+01   2.154354e+01   2.112883e+06   1.475822e+06   5.114067e+05   2.009062e+02  -2.876304e+02  -1.339655e-19   2.627521e+06   2.047095e-36   0.000000e+00   0.000000e+00
     1688000   1.687999e-05   3.576415e+01   4.152918e+01   2.158445e+01   2.112883e+06   1.475822e+06   5.114067e+05   1.564727e+02  -2.240165e+02   7.895100e-20   2.627521e+06   1.241767e-36   0.000000e+00   0.000000e+00
     1696000   1.695999e-05   3.593318e+01   4.164724e+01   2.162536e+01   2.112883e+06   1.475822e+06   5.114067e+05   1.034830e+02  -1.481531e+02  -1.272367e-19   2.627521e+06   5.432953e-37   0.000000e+00   0.000000e+00
     1704000   1.703999e-05   3.610221e+01   4.176531e+01   2.166628e+01   2.112883e+06   1.475822e+06   5.114067e+05   9.421397e+01  -1.348829e+02  -2.391947e-19   2.627521e+06   4.503517e-37   0.000000e+00   0.000000e+00
     1712000   1.711999e-05   3.627124e+01   4.188338e+01   2.170719e+01   2.112883e+06   1.475822e+06   5.114067e+05   1.684654e+02  -2.411861e+02  -3.833969e-19   2.627521e+06   1.439419e-36   0.000000e+00   0.000000e+00
     1720000   1.719999e-05   3.644027e+01   4.200144e+01   2.174810e+01   2.112883e+06   1.475822e+06   5.114067e+05   1.255207e+02  -1.797037e+02  -1.319290e-19   2.627521e+06   7.991885e-37   0.000000e+00   0.000000e+00
     1728000   1.727999e-05   3.660930e+01   4.211951e+01   2.178901e+01   2.112883e+06   1.475822e+06   5.114067e+05   1.155816e+02  -1.654742e+02   6.510767e-20   2.627521e+06   6.776470e-37   0.000000e+00   0.000000e+00
     1736000   1.735999e-05   3.677833e+01   4.223757e+01   2.182993e+01   2.112883e+06   1.475822e+06   5.114067e+05   1.046176e+02  -1.497774e+02   1.610960e-19   2.627521e+06   5.553165e-37   0.000000e+00   0.000000e+00
     1744000   1.743999e-05   3.694736e+01   4.235564e+01   2.187084e+01   2.112883e+06   1.475822e+06   5.114067e+05   1.091165e+02  -1.562184e+02  -3.024003e-19   2.627521e+06   6.040542e-37   0.000000e+00   0.000000e+00
     1752000   1.751999e-05   3.711639e+01   4.247370e+01   2.191175e+01   2.112883e+06   1.475822e+06   5.114067e+05   1.062418e+02  -1.521028e+02   2.643961e-20   2.627521e+06   5.725583e-37   0.000000e+00   0.000000e+00
     1760000   1.759999e-05   3.728542e+01   4.259177e+01   2.195266e+01   2.112883e+06   1.475822e+06   5.114067e+05   1.126308e+02  -1.612496e+02  -3.794136e-20   2.627521e+06   6.434472e-37   0.000000e+00   0.000000e+00
     1768000   1.767999e-05   3.745445e+01   4.270984e+01   2.199358e+01   2.112883e+06   1.475822e+06   5.114067e+05   1.014915e+02  -1.453018e+02  -1.673403e-19   2.627521e+06   5.224302e-37   0.000000e+00   0.000000e+00
     1776000   1.775999e-05   3.762348e+01   4.282790e+01   2.203449e+01   2.112883e+06   1.475822e+06   5.114067e+05   9.129885e+01  -1.307094e+02   3.347343e-20   2.627521e+06   4.228398e-37   0.000000e+00   0.000000e+00
     1784000   1.783999e-05   3.779251e+01   4.294597e+01   2.207540e+01   2.112883e+06   1.475822e+06   5.114067e+05   1.024889e+02  -1.467298e+02   3.457157e-19   2.627521e+06   5.328448e-37   0.000000e+00   0.000000e+00
     1792000   1.791999e-05   3.796154e+01   4.306403e+01   2.211631e+01   2.112883e+06   1.475822e+06   5.114067e+05   6.511762e+01  -9.322665e+01  -2.770015e-20   2.627521e+06   2.151979e-37   0.000000e+00   0.000000e+00
     1800000   1.799999e-05   3.813057e+01   4.318210e+01   2.215723e+01   2.112883e+06   1.475822e+06   5.114067e+05   8.231288e+01  -1.178445e+02   1.563589e-19   2.627521e+06   3.437415e-37   0.000000e+00   0.000000e+00
     1808000   1.807999e-05   3.829961e+01   4.330016e+01   2.219814e+01   2.112883e+06   1.475822e+06   5.114067e+05   9.205045e+01  -1.317855e+02  -1.525280e-19   2.627521e+06   4.297114e-37   0.000000e+00   0.000000e+00
     1816000   1.815999e-05   3.846864e+01   4.341823e+01   2.223905e+01   2.112883e+06   1.475822e+06   5.114067e+05   8.427323e+01  -1.206511e+02  -7.456386e-20   2.627521e+06   3.603632e-37   0.000000e+00   0.000000e+00
     1824000   1.823999e-05   3.863767e+01   4.353630e+01   2.227996e+01   2.112883e+06   1.475822e+06   5.114067e+05   8.525171e+01  -1.220519e+02  -3.373272e-19   2.627521e+06   3.686265e-37   0.000000e+00   0.000000e+00
     1832000   1.831999e-05   3.880670e+01   4.365436e+01   2.232088e+01   2.112883e+06   1.475822e+06   5.114067e+05   8.292937e+01  -1.187271e+02  -1.421926e-19   2.627521e+06   3.488745e-37   0.000000e+00   0.000000e+00
     1840000   1.839999e-05   3.897573e+01   4.377243e+01   2.236179e+01   2.112883e+06   1.475822e+06   5.114067e+05   9.994419e+01  -1.430867e+02   1.986067e-19   2.627521e+06   5.066053e-37   0.000000e+00   0.000000e+00
     1848000   1.847999e-05   3.914476e+01   4.389049e+01   2.240270e+01   2.112883e+06   1.475822e+06   5.114067e+05   1.284970e+02  -1.839648e+02   2.313713e-19   2.627521e+06   8.372168e-37   0.000000e+00   0.000000e+00
     1856000   1.855999e-05   3.931379e+01   4.400856e+01   2.244361e+01   2.112883e+06   1.475822e+06   5.114067e+05   8.678232e+01  -1.242432e+02   1.213244e-19   2.627521e+06   3.820499e-37   0.000000e+00   0.000000e+00
     1864000   1.863999e-05   3.948282e+01   4.412663e+01   2.248453e+01   2.112883e+06   1.475822e+06   5.114067e+05   9.431122e+01  -1.350221e+02   3.013776e-19   2.627521e+06   4.511216e-37   0.000000e+00   0.000000e+00
     1872000   1.871999e-05   3.965185e+01   4.424469e+01   2.252544e+01   2.112883e+06   1.475822e+06   5.114067e+05   6.286608e+01  -9.000320e+01  -1.719786e-19   2.627521e+06   2.005537e-37   0.000000e+00   0.000000e+00
     1880000   1.879999e-05   3.982088e+01   4.436276e+01   2.256635e+01   2.112883e+06   1.475822e+06   5.114067e+05   9.548948e+01  -1.367090e+02   2.321698e-19   2.627521e+06   4.624619e-37   0.000000e+00   0.000000e+00
     1888000   1.887999e-05   3.998991e+01   4.448082e+01   2.260726e+01   2.112883e+06   1.475822e+06   5.114067e+05   9.021922e+01  -1.291637e+02  -4.345895e-20   2.627521e+06   4.127960e-37   0.000000e+00   0.000000e+00
     1896000   1.895999e-05   4.015894e+01   4.459889e+01   2.264818e+01   2.112883e+06   1.475822e+06   5.114067e+05   8.583014e+01  -1.228801e+02  -1.523844e-19   2.627521e+06   3.736105e-37   0.000000e+00   0.000000e+00
     1904000   1.903999e-05   4.032797e+01   4.471695e+01   2.268909e+01   2.112883e+06   1.475822e+06   5.114067e+05   8.151632e+01  -1.167041e+02   2.055956e-19   2.627521e+06   3.370837e-37   0.000000e+00   0.000000e+00
     1912000   1.911999e-05   4.049700e+01   4.483502e+01   2.273000e+01   2.112883e+06   1.475822e+06   5.114067e+05   7.841366e+01  -1.122621e+02   1.968303e-19   2.627521e+06   3.118508e-37   0.000000e+00   0.000000e+00
     1920000   1.919999e-05   4.066603e+01   4.495309e+01   2.277091e+01   2.112883e+06   1.475822e+06   5.114067e+05   8.813959e+01  -1.261864e+02   1.858937e-20   2.627521e+06   3.940085e-37   0.000000e+00   0.000000e+00
     1928000   1.927999e-05   4.083507e+01   4.507115e+01   2.281183e+01   2.112883e+06   1.475822e+06   5.114067e+05   3.556503e+01  -5.091722e+01   6.816254e-20   2.627521e+06   6.422280e-38   0.000000e+00   0.000000e+00
     1936000   1.935999e-05   4.100410e+01   4.518922e+01   2.285274e+01   2.112883e+06   1.475822e+06   5.114067e+05   5.842569e+01  -8.364604e+01   1.037264e-19   2.627521e+06   1.731644e-37   0.000000e+00   0.000000e+00
     1944000   1.943999e-05   4.117313e+01   4.530728e+01   2.289365e+01   2.112883e+06   1.475822e+06   5.114067e+05   8.678952e+01  -1.242536e+02   2.410967e-19   2.627521e+06   3.819650e-37   0.000000e+00   0.000000e+00
     1952000   1.951999e-05   4.134216e+01   4.542535e+01   2.293456e+01   2.112883e+06   1.475822e+06   5.114067e+05   8.548289e+01  -1.223829e+02   5.377640e-20   2.627521e+06   3.707012e-37   0.000000e+00   0.000000e+00
     1960000   1.959999e-05   4.151119e+01   4.554341e+01   2.297548e+01   2.112883e+06   1.475822e+06   5.114067e+05   8.100135e+01  -1.159668e+02   1.066646e-19   2.627521e+06   3.327162e-37   0.000000e+00   0.000000e+00
     1968000   1.967999e-05   4.168022e+01   4.566148e+01   2.301639e+01   2.112883e+06   1.475822e+06   5.114067e+05   1.251331e+02  -1.791487e+02  -2.203003e-19   2.627521e+06   7.939023e-37   0.000000e+00   0.000000e+00
     1976000   1.975999e-05   4.184925e+01   4.577955e+01   2.305730e+01   2.112883e+06   1.475822e+06   5.114067e+05   9.357318e+01  -1.339655e+02  -8.445068e-20   2.627521e+06   4.440007e-37   0.000000e+00   0.000000e+00
     1984000   1.983999e-05   4.201828e+01   4.589761e+01   2.309821e+01   2.112883e+06   1.475822e+06   5.114067e+05   5.127570e+01  -7.340966e+01   7.886579e-20   2.627521e+06   1.334129e-37   0.000000e+00   0.000000e+00
     1992000   1.991999e-05   4.218731e+01   4.601568e+01   2.313913e+01   2.112883e+06   1.475822e+06   5.114067e+05   5.121901e+01  -7.332849e+01  -3.660458e-21   2.627521e+06   1.330775e-37   0.000000e+00   0.000000e+00
     2000000   1.999999e-05   4.235634e+01   4.613374e+01   2.318004e+01   2.112883e+06   1.475822e+06   5.114067e+05   4.966577e+01  -7.110477e+01  -1.317899e-19   2.627521e+06   1.251316e-37   0.000000e+00   0.000000e+00
     2008000   2.007999e-05   4.252537e+01   4.625181e+01   2.322095e+01   2.112883e+06   1.475822e+06   5.114067e+05   3.820925e+01  -5.470287e+01  -6.441686e-21   2.627521e+06   7.407196e-38   0.000000e+00   0.000000e+00
     2016000   2.015999e-05   4.269440e+01   4.636987e+01   2.326186e+01   2.112883e+06   1.475822e+06   5.114067e+05   1.717055e+01  -2.458249e+01  -2.660111e-20   2.627521e+06   1.497977e-38   0.000000e+00   0.000000e+00
     2024000   2.023999e-05   4.286343e+01   4.648794e+01   2.330278e+01   2.112883e+06   1.475822e+06   5.114067e+05   5.007351e+01  -7.168851e+01   1.069876e-20   2.627521e+06   1.271586e-37   0.000000e+00   0.000000e+00
     2032000   2.031999e-05   4.303246e+01   4.660601e+01   2.334369e+01   2.112883e+06   1.475822e+06   5.114067e+05   3.250877e+01  -4.654168e+01  -1.483651e-19   2.627521e+06   5.363222e-38   0.000000e+00   0.000000e+00
     2040000   2.039999e-05   4.320149e+01   4.672407e+01   2.338460e+01   2.112883e+06   1.475822e+06   5.114067e+05   5.823251e+01  -8.336948e+01  -2.327709e-20   2.627521e+06   1.720286e-37   0.000000e+00   0.000000e+00
     2048000   2.047999e-05   4.337053e+01   4.684214e+01   2.342551e+01   2.112883e+06   1.475822e+06   5.114067e+05   4.794924e+01  -6.864727e+01  -8.755489e-20   2.627521e+06   1.165882e-37   0.000000e+00   0.000000e+00
     2056000   2.055999e-05   4.353956e+01   4.696020e+01   2.346643e+01   2.112883e+06   1.475822e+06   5.114067e+05   3.669299e+01  -5.253209e+01  -2.855246e-20   2.627521e+06   6.832480e-38   0.000000e+00   0.000000e+00
     2064000   2.063999e-05   4.370859e+01   4.707827e+01   2.350734e+01   2.112883e+06   1.475822e+06   5.114067e+05   5.840004e+01  -8.360931e+01  -6.267634e-20   2.627521e+06   1.729941e-37   0.000000e+00   0.000000e+00
     2072000   2.071999e-05   4.387762e+01   4.719634e+01   2.354825e+01   2.112883e+06   1.475822e+06   5.114067e+05   1.271298e+02  -1.820073e+02   2.386653e-19   2.627521e+06   8.194439e-37   0.000000e+00   0.000000e+00
     2080000   2.079999e-05   4.404665e+01   4.731440e+01   2.358916e+01   2.112883e+06   1.475822e+06   5.114067e+05   7.628854e+01  -1.092197e+02  -4.207734e-21   2.627521e+06   2.952145e-37   0.000000e+00   0.000000e+00
     2088000   2.087999e-05   4.421568e+01   4.743247e+01   2.363008e+01   2.112883e+06   1.475822e+06   5.114067e+05   4.557905e+01  -6.525396e+01   3.758696e-20   2.627521e+06   1.053529e-37   0.000000e+00   0.000000e+00
     2096000   2.095999e-05   4.438471e+01   4.755053e+01   2.367099e+01   2.112883e+06   1.475822e+06   5.114067e+05   2.746868e+00  -3.932596e+00  -1.968449e-21   2.627521e+06   3.856553e-40   0.000000e+00   0.000000e+00
     2104000   2.103999e-05   4.455374e+01   4.766860e+01   2.371190e+01   2.112883e+06   1.475822e+06   5.114067e+05   2.019357e+01  -2.891044e+01  -8.167169e-20   2.627521e+06   2.069853e-38   0.000000e+00   0.000000e+00
     2112000   2.111999e-05   4.472277e+01   4.778666e+01   2.375281e+01   2.112883e+06   1.475822e+06   5.114067e+05   1.191188e+01  -1.705383e+01   7.002417e-21   2.627521e+06   7.214209e-39   0.000000e+00   0.000000e+00
     2120000   2.119999e-05   4.489180e+01   4.790473e+01   2.379373e+01   2.112883e+06   1.475822e+06   5.114067e+05   2.408262e+01  -3.447825e+01   5.239701e-20   2.627521e+06   2.941180e-38   0.000000e+00   0.000000e+00
     2128000   2.127999e-05   4.506083e+01   4.802280e+01   2.383464e+01   2.112883e+06   1.475822e+06   5.114067e+05   4.612739e+01  -6.603899e+01  -7.805398e-22   2.627521e+06   1.079054e-37   0.000000e+00   0.000000e+00
     2136000   2.135999e-05   4.522986e+01   4.814086e+01   2.387555e+01   2.112883e+06   1.475822e+06   5.114067e+05   2.939160e+01  -4.207894e+01  -2.543703e-20   2.627521e+06   4.378660e-38   0.000000e+00   0.000000e+00
     2144000   2.143999e-05   4.539889e+01   4.825893e+01   2.391646e+01   2.112883e+06   1.475822e+06   5.114067e+05  -2.075303e+01   2.971140e+01   4.896533e-20   2.627521e+06   2.182128e-38   0.000000e+00   0.000000e+00
     2152000   2.151999e-05   4.556792e+01   4.837699e+01   2.395738e+01   2.112883e+06   1.475822e+06   5.114067e+05   1.712780e+01  -2.452127e+01   1.003934e-20   2.627521e+06   1.488904e-38   0.000000e+00   0.000000e+00
     2160000   2.159999e-05   4.573696e+01   4.849506e+01   2.399829e+01   2.112883e+06   1.475822e+06   5.114067e+05   5.613946e+01  -8.037293e+01  -9.868898e-22   2.627521e+06   1.598182e-37   0.000000e+00   0.000000e+00
     2168000   2.167999e-05   4.590599e+01   4.861312e+01   2.403920e+01   2.112883e+06   1.475822e+06   5.114067e+05   2.641938e+01  -3.782371e+01   2.892927e-20   2.627521e+06   3.537051e-38   0.000000e+00   0.000000e+00
     2176000   2.175999e-05   4.607502e+01   4.873119e+01   2.408012e+01   2.112883e+06   1.475822e+06   5.114067e+05   1.177009e+00  -1.685083e+00  -1.080810e-21   2.627521e+06   7.144308e-41   0.000000e+00   0.000000e+00
     2184000   2.183999e-05   4.624405e+01   4.884926e+01   2.412103e+01   2.112883e+06   1.475822e+06   5.114067e+05   2.899583e+01  -4.151232e+01  -2.155901e-20   2.627521e+06   4.260405e-38   0.000000e+00   0.000000e+00
     2192000   2.191999e-05   4.641308e+01   4.896732e+01   2.416194e+01   2.112883e+06   1.475822e+06   5.114067e+05   5.399068e+00  -7.729660e+00   1.456276e-20   2.627521e+06   1.481527e-39   0.000000e+00   0.000000e+00
     2200000   2.199999e-05   4.658211e+01   4.908539e+01   2.420285e+01   2.112883e+06   1.475822e+06   5.114067e+05  -7.745031e+00   1.108829e+01  -9.053013e-21   2.627521e+06   3.032970e-39   0.000000e+00   0.000000e+00
     2208000   2.207999e-05   4.675114e+01   4.920345e+01   2.424377e+01   2.112883e+06   1.475822e+06   5.114067e+05   2.148929e+01  -3.076548e+01   3.289028e-20   2.627521e+06   2.347605e-38   0.000000e+00   0.000000e+00
     2216000   2.215999e-05   4.692017e+01   4.932152e+01   2.428468e+01   2.112883e+06   1.475822e+06   5.114067e+05   4.398569e+01  -6.297279e+01   5.990857e-20   2.627521e+06   9.818175e-38   0.000000e+00   0.000000e+00
     2224000   2.223999e-05   4.708920e+01   4.943958e+01   2.432559e+01   2.112883e+06   1.475822e+06   5.114067e+05   5.166214e+01  -7.396291e+01  -7.602176e-20   2.627521e+06   1.353126e-37   0.000000e+00   0.000000e+00
     2232000   2.231999e-05   4.725823e+01   4.955765e+01   2.436650e+01   2.112883e+06   1.475822e+06   5.114067e+05  -1.158743e+07   1.658933e+07  -1.679186e-14   2.627521e+06   6.806793e-27   0.000000e+00   0.000000e+00
     2240000   2.239999e-05   4.742726e+01   4.967572e+01   2.440742e+01   2.112879e+06   1.475828e+06   5.114067e+05  -1.128832e+08   1.616099e+08  -4.415731e-13   2.627521e+06   6.460204e-25   0.000000e+00   0.000000e+00
     2248000   2.247999e-05   4.759629e+01   4.979378e+01   2.444833e+01   2.112867e+06   1.475845e+06   5.114067e+05  -2.693946e+08   3.856739e+08   1.505665e-13   2.627521e+06   3.679930e-24   0.000000e+00   0.000000e+00
     2256000   2.255999e-05   4.776532e+01   4.991185e+01   2.448924e+01   2.112861e+06   1.475854e+06   5.114067e+05   0.000000e+00   0.000000e+00   0.000000e+00   2.627521e+06   0.000000e+00   0.000000e+00   0.000000e+00
