     timestep     time              x             y              z              vx             vy             vz             ax             ay             az         v_magnitude      ELoss        Electronic      Nuclear
           0   0.000000e+00   1.000000e-01   2.062837e+01   8.546670e+00   1.330395e+05   1.134115e+06  -2.889750e+05   0.000000e+00   0.000000e+00   0.000000e+00   1.177889e+06   0.000000e+00   0.000000e+00   0.000000e+00
        8000   7.999000e-08   1.106432e-01   2.071910e+01   8.523552e+00   1.330395e+05   1.134115e+06  -2.889750e+05   0.000000e+00   0.000000e+00   0.000000e+00   1.177889e+06   0.000000e+00   0.000000e+00   0.000000e+00
       16000   1.599900e-07   1.212863e-01   2.080983e+01   8.500434e+00   1.330395e+05   1.134115e+06  -2.889750e+05   0.000000e+00   0.000000e+00   0.000000e+00   1.177889e+06   0.000000e+00   0.000000e+00   0.000000e+00
       24000   2.399900e-07   1.319295e-01   2.090056e+01   8.477316e+00   1.330395e+05   1.134115e+06  -2.889750e+05   0.000000e+00   0.000000e+00   0.000000e+00   1.177889e+06   0.000000e+00   0.000000e+00   0.000000e+00
       32000   3.199900e-07   1.425726e-01   2.099128e+01   8.454198e+00   1.330395e+05   1.134115e+06  -2.889750e+05   0.000000e+00   0.000000e+00   0.000000e+00   1.177889e+06   0.000000e+00   0.000000e+00   0.000000e+00
       40000   3.999900e-07   1.532158e-01   2.108201e+01   8.431080e+00   1.330395e+05   1.134115e+06  -2.889750e+05   0.000000e+00   0.000000e+00   0.000000e+00   1.177889e+06   0.000000e+00   0.000000e+00   0.000000e+00
       48000   4.799900e-07   1.638590e-01   2.117274e+01   8.407962e+00   1.330395e+05   1.134115e+06  -2.889750e+05   0.000000e+00   0.000000e+00   0.000000e+00   1.177889e+06   0.000000e+00   0.000000e+00   0.000000e+00
       56000   5.599900e-07   1.745021e-01   2.126347e+01   8.384844e+00   1.330395e+05   1.134115e+06  -2.889750e+05   0.000000e+00   0.000000e+00   0.000000e+00   1.177889e+06   0.000000e+00   0.000000e+00   0.000000e+00
       64000   6.399900e-07   1.851453e-01   2.135420e+01   8.361726e+00   1.330395e+05   1.134115e+06  -2.889750e+05   0.000000e+00   0.000000e+00   0.000000e+00   1.177889e+06   0.000000e+00   0.000000e+00   0.000000e+00
       72000   7.199900e-07   1.957884e-01   2.144493e+01   8.338608e+00   1.330395e+05   1.134115e+06  -2.889750e+05   0.000000e+00   0.000000e+00   0.000000e+00   1.177889e+06   0.000000e+00   0.000000e+00   0.000000e+00
       80000   7.999900e-07   2.064316e-01   2.153566e+01   8.315490e+00   1.330395e+05   1.134115e+06  -2.889750e+05   0.000000e+00   0.000000e+00   0.000000e+00   1.177889e+06   0.000000e+00   0.000000e+00   0.000000e+00
       88000   8.799900e-07   2.170747e-01   2.162639e+01   8.292372e+00   1.330395e+05   1.134115e+06  -2.889750e+05   0.000000e+00   0.000000e+00   0.000000e+00   1.177889e+06   0.000000e+00   0.000000e+00   0.000000e+00
       96000   9.599900e-07   2.277179e-01   2.171712e+01   8.269254e+00   1.330395e+05   1.134115e+06  -2.889750e+05   0.000000e+00   0.000000e+00   0.000000e+00   1.177889e+06   0.000000e+00   0.000000e+00   0.000000e+00
      104000   1.039990e-06   2.383611e-01   2.180785e+01   8.246136e+00   1.330395e+05   1.134115e+06  -2.889750e+05   0.000000e+00   0.000000e+00   0.000000e+00   1.177889e+06   0.000000e+00   0.000000e+00   0.000000e+00
      112000   1.119990e-06   2.490042e-01   2.189858e+01   8.223018e+00   1.330395e+05   1.134115e+06  -2.889750e+05   0.000000e+00   0.000000e+00   0.000000e+00   1.177889e+06   0.000000e+00   0.000000e+00   0.000000e+00
      120000   1.199990e-06   2.596474e-01   2.198931e+01   8.199900e+00   1.330395e+05   1.134115e+06  -2.889750e+05   0.000000e+00   0.000000e+00   0.000000e+00   1.177889e+06   0.000000e+00   0.000000e+00   0.000000e+00
      128000   1.279990e-06   2.702905e-01   2.208004e+01   8.176782e+00   1.330395e+05   1.134115e+06  -2.889750e+05   0.000000e+00   0.000000e+00   0.000000e+00   1.177889e+06   0.000000e+00   0.000000e+00   0.000000e+00
      136000   1.359990e-06   2.809337e-01   2.217076e+01   8.153664e+00   1.330395e+05   1.134115e+06  -2.889750e+05   0.000000e+00   0.000000e+00   0.000000e+00   1.177889e+06   0.000000e+00   0.000000e+00   0.000000e+00
      144000   1.439990e-06   2.915769e-01   2.226149e+01   8.130546e+00   1.330395e+05   1.134115e+06  -2.889750e+05   0.000000e+00   0.000000e+00   0.000000e+00   1.177889e+06   0.000000e+00   0.000000e+00   0.000000e+00
      152000   1.519990e-06   3.022200e-01   2.235222e+01   8.107428e+00   1.330395e+05   1.134115e+06  -2.889750e+05   0.000000e+00   0.000000e+00   0.000000e+00   1.177889e+06   0.000000e+00   0.000000e+00   0.000000e+00
      160000   1.599990e-06   3.128632e-01   2.244295e+01   8.084310e+00   1.330395e+05   1.134115e+06  -2.889750e+05   0.000000e+00   0.000000e+00   0.000000e+00   1.177889e+06   0.000000e+00   0.000000e+00   0.000000e+00
      168000   1.679990e-06   3.235063e-01   2.253368e+01   8.061192e+00   1.330395e+05   1.134115e+06  -2.889750e+05   0.000000e+00   0.000000e+00   0.000000e+00   1.177889e+06   0.000000e+00   0.000000e+00   0.000000e+00
      176000   1.759990e-06   3.341495e-01   2.262441e+01   8.038074e+00   1.330395e+05   1.134115e+06  -2.889750e+05   0.000000e+00   0.000000e+00   0.000000e+00   1.177889e+06   0.000000e+00   0.000000e+00   0.000000e+00
      184000   1.839990e-06   3.447927e-01   2.271514e+01   8.014956e+00   1.330395e+05   1.134115e+06  -2.889750e+05   0.000000e+00   0.000000e+00   0.000000e+00   1.177889e+06   0.000000e+00   0.000000e+00   0.000000e+00
      192000   1.919990e-06   3.554358e-01   2.280587e+01   7.991838e+00   1.330395e+05   1.134115e+06  -2.889750e+05   0.000000e+00   0.000000e+00   0.000000e+00   1.177889e+06   0.000000e+00   0.000000e+00   0.000000e+00
      200000   1.999990e-06   3.660790e-01   2.289660e+01   7.968720e+00   1.330395e+05   1.134115e+06  -2.889750e+05   0.000000e+00   0.000000e+00   0.000000e+00   1.177889e+06   0.000000e+00   0.000000e+00   0.000000e+00
      208000   2.079990e-06   3.767221e-01   2.298733e+01   7.945602e+00   1.330395e+05   1.134115e+06  -2.889750e+05   0.000000e+00   0.000000e+00   0.000000e+00   1.177889e+06   0.000000e+00   0.000000e+00   0.000000e+00
      216000   2.159990e-06   3.873653e-01   2.307806e+01   7.922484e+00   1.330395e+05   1.134115e+06  -2.889750e+05   0.000000e+00   0.000000e+00   0.000000e+00   1.177889e+06   0.000000e+00   0.000000e+00   0.000000e+00
      224000   2.239990e-06   3.980084e-01   2.316879e+01   7.899366e+00   1.330395e+05   1.134115e+06  -2.889750e+05   0.000000e+00   0.000000e+00   0.000000e+00   1.177889e+06   0.000000e+00   0.000000e+00   0.000000e+00
      232000   2.319990e-06   4.086516e-01   2.325951e+01   7.876248e+00   1.330395e+05   1.134115e+06  -2.889750e+05   0.000000e+00   0.000000e+00   0.000000e+00   1.177889e+06   0.000000e+00   0.000000e+00   0.000000e+00
      240000   2.399990e-06   4.192948e-01   2.335024e+01   7.853130e+00   1.330395e+05   1.134115e+06  -2.889750e+05   0.000000e+00   0.000000e+00   0.000000e+00   1.177889e+06   0.000000e+00   0.000000e+00   0.000000e+00
      248000   2.479990e-06   4.299379e-01   2.344097e+01   7.830012e+00   1.330395e+05   1.134115e+06  -2.889750e+05   0.000000e+00   0.000000e+00   0.000000e+00   1.177889e+06   0.000000e+00   0.000000e+00   0.000000e+00
      256000   2.559990e-06   4.405811e-01   2.353170e+01   7.806894e+00   1.330395e+05   1.134115e+06  -2.889750e+05   0.000000e+00   0.000000e+00   0.000000e+00   1.177889e+06   0.000000e+00   0.000000e+00   0.000000e+00
      264000   2.639990e-06   4.512242e-01   2.362243e+01   7.783776e+00   1.330395e+05   1.134115e+06  -2.889750e+05   0.000000e+00   0.000000e+00   0.000000e+00   1.177889e+06   0.000000e+00   0.000000e+00   0.000000e+00
      272000   2.719990e-06   4.618674e-01   2.371316e+01   7.760658e+00   1.330395e+05   1.134115e+06  -2.889750e+05   0.000000e+00   0.000000e+00   0.000000e+00   1.177889e+06   0.000000e+00   0.000000e+00   0.000000e+00
      280000   2.799990e-06   4.725106e-01   2.380389e+01   7.737540e+00   1.330395e+05   1.134115e+06  -2.889750e+05   0.000000e+00   0.000000e+00   0.000000e+00   1.177889e+06   0.000000e+00   0.000000e+00   0.000000e+00
      288000   2.879990e-06   4.831537e-01   2.389462e+01   7.714422e+00   1.330395e+05   1.134115e+06  -2.889750e+05   0.000000e+00   0.000000e+00   0.000000e+00   1.177889e+06   0.000000e+00   0.000000e+00   0.000000e+00
      296000   2.959990e-06   4.937969e-01   2.398535e+01   7.691304e+00   1.330395e+05   1.134115e+06  -2.889750e+05   0.000000e+00   0.000000e+00   0.000000e+00   1.177889e+06   0.000000e+00   0.000000e+00   0.000000e+00
      304000   3.039990e-06   5.044400e-01   2.407608e+01   7.668186e+00   1.330395e+05   1.134115e+06  -2.889750e+05   0.000000e+00   0.000000e+00   0.000000e+00   1.177889e+06   0.000000e+00   0.000000e+00   0.000000e+00
      312000   3.119990e-06   5.150832e-01   2.416681e+01   7.645068e+00   1.330395e+05   1.134115e+06  -2.889750e+05   0.000000e+00   0.000000e+00   0.000000e+00   1.177889e+06   0.000000e+00   0.000000e+00   0.000000e+00
      320000   3.199990e-06   5.257264e-01   2.425754e+01   7.621950e+00   1.330395e+05   1.134115e+06  -2.889750e+05   0.000000e+00   0.000000e+00   0.000000e+00   1.177889e+06   0.000000e+00   0.000000e+00   0.000000e+00
      328000   3.279990e-06   5.363695e-01   2.434827e+01   7.598832e+00   1.330395e+05   1.134115e+06  -2.889750e+05   0.000000e+00   0.000000e+00   0.000000e+00   1.177889e+06   0.000000e+00   0.000000e+00   0.000000e+00
      336000   3.359990e-06   5.470127e-01   2.443899e+01   7.575714e+00   1.330395e+05   1.134115e+06  -2.889750e+05   0.000000e+00   0.000000e+00   0.000000e+00   1.177889e+06   0.000000e+00   0.000000e+00   0.000000e+00
      344000   3.439990e-06   5.576558e-01   2.452972e+01   7.552596e+00   1.330395e+05   1.134115e+06  -2.889750e+05   0.000000e+00   0.000000e+00   0.000000e+00   1.177889e+06   0.000000e+00   0.000000e+00   0.000000e+00
      352000   3.519990e-06   5.682990e-01   2.462045e+01   7.529478e+00   1.330395e+05   1.134115e+06  -2.889750e+05   0.000000e+00   0.000000e+00   0.000000e+00   1.177889e+06   0.000000e+00   0.000000e+00   0.000000e+00
      360000   3.599990e-06   5.789421e-01   2.471118e+01   7.506360e+00   1.330395e+05   1.134115e+06  -2.889750e+05   0.000000e+00   0.000000e+00   0.000000e+00   1.177889e+06   0.000000e+00   0.000000e+00   0.000000e+00
      368000   3.679990e-06   5.895853e-01   2.480191e+01   7.483242e+00   1.330395e+05   1.134115e+06  -2.889750e+05   0.000000e+00   0.000000e+00   0.000000e+00   1.177889e+06   0.000000e+00   0.000000e+00   0.000000e+00
      376000   3.759990e-06   6.002285e-01   2.489264e+01   7.460124e+00   1.330395e+05   1.134115e+06  -2.889750e+05   0.000000e+00   0.000000e+00   0.000000e+00   1.177889e+06   0.000000e+00   0.000000e+00   0.000000e+00
      384000   3.839990e-06   6.108716e-01   2.498337e+01   7.437006e+00   1.330395e+05   1.134115e+06  -2.889750e+05   0.000000e+00   0.000000e+00   0.000000e+00   1.177889e+06   0.000000e+00   0.000000e+00   0.000000e+00
      392000   3.919990e-06   6.215148e-01   2.507410e+01   7.413888e+00   1.330395e+05   1.134115e+06  -2.889750e+05   0.000000e+00   0.000000e+00   0.000000e+00   1.177889e+06   0.000000e+00   0.000000e+00   0.000000e+00
      400000   3.999990e-06   6.321579e-01   2.516483e+01   7.390770e+00   1.330395e+05   1.134115e+06  -2.889750e+05   0.000000e+00   0.000000e+00   0.000000e+00   1.177889e+06   0.000000e+00   0.000000e+00   0.000000e+00
      408000   4.079990e-06   6.428011e-01   2.525556e+01   7.367652e+00   1.330395e+05   1.134115e+06  -2.889750e+05   0.000000e+00   0.000000e+00   0.000000e+00   1.177889e+06   0.000000e+00   0.000000e+00   0.000000e+00
      416000   4.159990e-06   6.534443e-01   2.534629e+01   7.344534e+00   1.330395e+05   1.134115e+06  -2.889750e+05   0.000000e+00   0.000000e+00   0.000000e+00   1.177889e+06   0.000000e+00   0.000000e+00   0.000000e+00
      424000   4.239990e-06   6.640874e-01   2.543702e+01   7.321416e+00   1.330395e+05   1.134115e+06  -2.889750e+05   0.000000e+00   0.000000e+00   0.000000e+00   1.177889e+06   0.000000e+00   0.000000e+00   0.000000e+00
      432000   4.319990e-06   6.747306e-01   2.552774e+01   7.298298e+00   1.330395e+05   1.134115e+06  -2.889750e+05   0.000000e+00   0.000000e+00   0.000000e+00   1.177889e+06   0.000000e+00   0.000000e+00   0.000000e+00
      440000   4.399990e-06   6.853737e-01   2.561847e+01   7.275180e+00   1.330395e+05   1.134115e+06  -2.889750e+05   0.000000e+00   0.000000e+00   0.000000e+00   1.177889e+06   0.000000e+00   0.000000e+00   0.000000e+00
      448000   4.479990e-06   6.960169e-01   2.570920e+01   7.252062e+00   1.330395e+05   1.134115e+06  -2.889750e+05   0.000000e+00   0.000000e+00   0.000000e+00   1.177889e+06   0.000000e+00   0.000000e+00   0.000000e+00
      456000   4.559990e-06   7.066600e-01   2.579993e+01   7.228944e+00   1.330395e+05   1.134115e+06  -2.889750e+05   0.000000e+00   0.000000e+00   0.000000e+00   1.177889e+06   0.000000e+00   0.000000e+00   0.000000e+00
      464000   4.639990e-06   7.173032e-01   2.589066e+01   7.205826e+00   1.330395e+05   1.134115e+06  -2.889750e+05   0.000000e+00   0.000000e+00   0.000000e+00   1.177889e+06   0.000000e+00   0.000000e+00   0.000000e+00
      472000   4.719990e-06   7.279464e-01   2.598139e+01   7.182708e+00   1.330395e+05   1.134115e+06  -2.889750e+05   0.000000e+00   0.000000e+00   0.000000e+00   1.177889e+06   0.000000e+00   0.000000e+00   0.000000e+00
      480000   4.799990e-06   7.385895e-01   2.607212e+01   7.159590e+00   1.330395e+05   1.134115e+06  -2.889750e+05   0.000000e+00   0.000000e+00   0.000000e+00   1.177889e+06   0.000000e+00   0.000000e+00   0.000000e+00
      488000   4.879990e-06   7.492327e-01   2.616285e+01   7.136472e+00   1.330395e+05   1.134115e+06  -2.889750e+05   0.000000e+00   0.000000e+00   0.000000e+00   1.177889e+06   0.000000e+00   0.000000e+00   0.000000e+00
      496000   4.959990e-06   7.598758e-01   2.625358e+01   7.113354e+00   1.330395e+05   1.134115e+06  -2.889750e+05   0.000000e+00   0.000000e+00   0.000000e+00   1.177889e+06   0.000000e+00   0.000000e+00   0.000000e+00
      504000   5.039990e-06   7.705190e-01   2.634431e+01   7.090236e+00   1.330395e+05   1.134115e+06  -2.889750e+05   0.000000e+00   0.000000e+00   0.000000e+00   1.177889e+06   0.000000e+00   0.000000e+00   0.000000e+00
      512000   5.119990e-06   7.811622e-01   2.643504e+01   7.067118e+00   1.330395e+05   1.134115e+06  -2.889750e+05   0.000000e+00   0.000000e+00   0.000000e+00   1.177889e+06   0.000000e+00   0.000000e+00   0.000000e+00
      520000   5.199990e-06   7.918053e-01   2.652577e+01   7.044000e+00   1.330395e+05   1.134115e+06  -2.889750e+05   0.000000e+00   0.000000e+00   0.000000e+00   1.177889e+06   0.000000e+00   0.000000e+00   0.000000e+00
      528000   5.279990e-06   8.024485e-01   2.661650e+01   7.020882e+00   1.330395e+05   1.134115e+06  -2.889750e+05   0.000000e+00   0.000000e+00   0.000000e+00   1.177889e+06   0.000000e+00   0.000000e+00   0.000000e+00
      536000   5.359990e-06   8.130916e-01   2.670722e+01   6.997764e+00   1.330395e+05   1.134115e+06  -2.889750e+05   0.000000e+00   0.000000e+00   0.000000e+00   1.177889e+06   0.000000e+00   0.000000e+00   0.000000e+00
      544000   5.439990e-06   8.237348e-01   2.679795e+01   6.974646e+00   1.330395e+05   1.134115e+06  -2.889750e+05   0.000000e+00   0.000000e+00   0.000000e+00   1.177889e+06   0.000000e+00   0.000000e+00   0.000000e+00
      552000   5.519990e-06   8.343780e-01   2.688868e+01   6.951528e+00   1.330395e+05   1.134115e+06  -2.889750e+05   0.000000e+00   0.000000e+00   0.000000e+00   1.177889e+06   0.000000e+00   0.000000e+00   0.000000e+00
      560000   5.599990e-06   8.450211e-01   2.697941e+01   6.928410e+00   1.330395e+05   1.134115e+06  -2.889750e+05   0.000000e+00   0.000000e+00   0.000000e+00   1.177889e+06   0.000000e+00   0.000000e+00   0.000000e+00
      568000   5.679990e-06   8.556643e-01   2.707014e+01   6.905292e+00   1.330395e+05   1.134115e+06  -2.889750e+05   0.000000e+00   0.000000e+00   0.000000e+00   1.177889e+06   0.000000e+00   0.000000e+00   0.000000e+00
      576000   5.759990e-06   8.663074e-01   2.716087e+01   6.882174e+00   1.330395e+05   1.134115e+06  -2.889750e+05   0.000000e+00   0.000000e+00   0.000000e+00   1.177889e+06   0.000000e+00   0.000000e+00   0.000000e+00
      584000   5.839990e-06   8.769506e-01   2.725160e+01   6.859056e+00   1.330395e+05   1.134115e+06  -2.889750e+05   0.000000e+00   0.000000e+00   0.000000e+00   1.177889e+06   0.000000e+00   0.000000e+00   0.000000e+00
      592000   5.919990e-06   8.875937e-01   2.734233e+01   6.835938e+00   1.330395e+05   1.134115e+06  -2.889750e+05   0.000000e+00   0.000000e+00   0.000000e+00   1.177889e+06   0.000000e+00   0.000000e+00   0.000000e+00
      600000   5.999990e-06   8.982369e-01   2.743306e+01   6.812820e+00   1.330395e+05   1.134115e+06  -2.889750e+05   0.000000e+00   0.000000e+00   0.000000e+00   1.177889e+06   0.000000e+00   0.000000e+00   0.000000e+00
      608000   6.079990e-06   9.088801e-01   2.752379e+01   6.789702e+00   1.330395e+05   1.134115e+06  -2.889750e+05   0.000000e+00   0.000000e+00   0.000000e+00   1.177889e+06   0.000000e+00   0.000000e+00   0.000000e+00
      616000   6.159990e-06   9.195232e-01   2.761452e+01   6.766584e+00   1.330395e+05   1.134115e+06  -2.889750e+05   0.000000e+00   0.000000e+00   0.000000e+00   1.177889e+06   0.000000e+00   0.000000e+00   0.000000e+00
      624000   6.239990e-06   9.301664e-01   2.770525e+01   6.743466e+00   1.330395e+05   1.134115e+06  -2.889750e+05   0.000000e+00   0.000000e+00   0.000000e+00   1.177889e+06   0.000000e+00   0.000000e+00   0.000000e+00
      632000   6.319990e-06   9.408095e-01   2.779597e+01   6.720348e+00   1.330395e+05   1.134115e+06  -2.889750e+05   0.000000e+00   0.000000e+00   0.000000e+00   1.177889e+06   0.000000e+00   0.000000e+00   0.000000e+00
      640000   6.399990e-06   9.514527e-01   2.788670e+01   6.697230e+00   1.330395e+05   1.134115e+06  -2.889750e+05   0.000000e+00   0.000000e+00   0.000000e+00   1.177889e+06   0.000000e+00   0.000000e+00   0.000000e+00
      648000   6.479990e-06   9.620959e-01   2.797743e+01   6.674112e+00   1.330395e+05   1.134115e+06  -2.889750e+05   0.000000e+00   0.000000e+00   0.000000e+00   1.177889e+06   0.000000e+00   0.000000e+00   0.000000e+00
      656000   6.559990e-06   9.727390e-01   2.806816e+01   6.650994e+00   1.330395e+05   1.134115e+06  -2.889750e+05   0.000000e+00   0.000000e+00   0.000000e+00   1.177889e+06   0.000000e+00   0.000000e+00   0.000000e+00
      664000   6.639990e-06   9.833822e-01   2.815889e+01   6.627876e+00   1.330395e+05   1.134115e+06  -2.889750e+05   0.000000e+00   0.000000e+00   0.000000e+00   1.177889e+06   0.000000e+00   0.000000e+00   0.000000e+00
      672000   6.719990e-06   9.940253e-01   2.824962e+01   6.604758e+00   1.330395e+05   1.134115e+06  -2.889750e+05   0.000000e+00   0.000000e+00   0.000000e+00   1.177889e+06   0.000000e+00   0.000000e+00   0.000000e+00
      680000   6.799990e-06   1.004668e+00   2.834035e+01   6.581640e+00   1.330395e+05   1.134115e+06  -2.889750e+05   0.000000e+00   0.000000e+00   0.000000e+00   1.177889e+06   0.000000e+00   0.000000e+00   0.000000e+00
      688000   6.879990e-06   1.015312e+00   2.843108e+01   6.558522e+00   1.330395e+05   1.134115e+06  -2.889750e+05   0.000000e+00   0.000000e+00   0.000000e+00   1.177889e+06   0.000000e+00   0.000000e+00   0.000000e+00
      696000   6.959990e-06   1.025955e+00   2.852181e+01   6.535404e+00   1.330395e+05   1.134115e+06  -2.889750e+05   0.000000e+00   0.000000e+00   0.000000e+00   1.177889e+06   0.000000e+00   0.000000e+00   0.000000e+00
      704000   7.039990e-06   1.036598e+00   2.861254e+01   6.512286e+00   1.330395e+05   1.134115e+06  -2.889750e+05   0.000000e+00   0.000000e+00   0.000000e+00   1.177889e+06   0.000000e+00   0.000000e+00   0.000000e+00
      712000   7.119990e-06   1.047241e+00   2.870327e+01   6.489168e+00   1.330395e+05   1.134115e+06  -2.889750e+05   0.000000e+00   0.000000e+00   0.000000e+00   1.177889e+06   0.000000e+00   0.000000e+00   0.000000e+00
      720000   7.199990e-06   1.057884e+00   2.879400e+01   6.466050e+00   1.330395e+05   1.134115e+06  -2.889750e+05   0.000000e+00   0.000000e+00   0.000000e+00   1.177889e+06   0.000000e+00   0.000000e+00   0.000000e+00
      728000   7.279990e-06   1.068527e+00   2.888473e+01   6.442932e+00   1.330395e+05   1.134115e+06  -2.889750e+05   0.000000e+00   0.000000e+00   0.000000e+00   1.177889e+06   0.000000e+00   0.000000e+00   0.000000e+00
      736000   7.359990e-06   1.079171e+00   2.897545e+01   6.419814e+00   1.330395e+05   1.134115e+06  -2.889750e+05   0.000000e+00   0.000000e+00   0.000000e+00   1.177889e+06   0.000000e+00   0.000000e+00   0.000000e+00
      744000   7.439990e-06   1.089814e+00   2.906618e+01   6.396696e+00   1.330395e+05   1.134115e+06  -2.889750e+05   0.000000e+00   0.000000e+00   0.000000e+00   1.177889e+06   0.000000e+00   0.000000e+00   0.000000e+00
      752000   7.519990e-06   1.100457e+00   2.915691e+01   6.373578e+00   1.330395e+05   1.134115e+06  -2.889750e+05   0.000000e+00   0.000000e+00   0.000000e+00   1.177889e+06   0.000000e+00   0.000000e+00   0.000000e+00
      760000   7.599990e-06   1.111100e+00   2.924764e+01   6.350460e+00   1.330395e+05   1.134115e+06  -2.889750e+05   0.000000e+00   0.000000e+00   0.000000e+00   1.177889e+06   0.000000e+00   0.000000e+00   0.000000e+00
      768000   7.679990e-06   1.121743e+00   2.933837e+01   6.327342e+00   1.330395e+05   1.134115e+06  -2.889750e+05   0.000000e+00   0.000000e+00   0.000000e+00   1.177889e+06   0.000000e+00   0.000000e+00   0.000000e+00
      776000   7.759990e-06   1.132386e+00   2.942910e+01   6.304224e+00   1.330395e+05   1.134115e+06  -2.889750e+05   0.000000e+00   0.000000e+00   0.000000e+00   1.177889e+06   0.000000e+00   0.000000e+00   0.000000e+00
      784000   7.839990e-06   1.143030e+00   2.951983e+01   6.281106e+00   1.330395e+05   1.134115e+06  -2.889750e+05   0.000000e+00   0.000000e+00   0.000000e+00   1.177889e+06   0.000000e+00   0.000000e+00   0.000000e+00
      792000   7.919990e-06   1.153673e+00   2.961056e+01   6.257988e+00   1.330395e+05   1.134115e+06  -2.889750e+05   0.000000e+00   0.000000e+00   0.000000e+00   1.177889e+06   0.000000e+00   0.000000e+00   0.000000e+00
      800000   7.999990e-06   1.164316e+00   2.970129e+01   6.234870e+00   1.330395e+05   1.134115e+06  -2.889750e+05   0.000000e+00   0.000000e+00   0.000000e+00   1.177889e+06   0.000000e+00   0.000000e+00   0.000000e+00
      808000   8.079990e-06   1.174959e+00   2.979202e+01   6.211752e+00   1.330395e+05   1.134115e+06  -2.889750e+05   0.000000e+00   0.000000e+00   0.000000e+00   1.177889e+06   0.000000e+00   0.000000e+00   0.000000e+00
      816000   8.159990e-06   1.185602e+00   2.988275e+01   6.188634e+00   1.330395e+05   1.134115e+06  -2.889750e+05   0.000000e+00   0.000000e+00   0.000000e+00   1.177889e+06   0.000000e+00   0.000000e+00   0.000000e+00
      824000   8.239990e-06   1.196245e+00   2.997348e+01   6.165516e+00   1.330395e+05   1.134115e+06  -2.889750e+05   0.000000e+00   0.000000e+00   0.000000e+00   1.177889e+06   0.000000e+00   0.000000e+00   0.000000e+00
      832000   8.319990e-06   1.206889e+00   3.006420e+01   6.142398e+00   1.330395e+05   1.134115e+06  -2.889750e+05   0.000000e+00   0.000000e+00   0.000000e+00   1.177889e+06   0.000000e+00   0.000000e+00   0.000000e+00
      840000   8.399990e-06   1.217532e+00   3.015493e+01   6.119280e+00   1.330395e+05   1.134115e+06  -2.889750e+05   0.000000e+00   0.000000e+00   0.000000e+00   1.177889e+06   0.000000e+00   0.000000e+00   0.000000e+00
      848000   8.479990e-06   1.228175e+00   3.024566e+01   6.096162e+00   1.330395e+05   1.134115e+06  -2.889750e+05   0.000000e+00   0.000000e+00   0.000000e+00   1.177889e+06   0.000000e+00   0.000000e+00   0.000000e+00
      856000   8.559990e-06   1.238818e+00   3.033639e+01   6.073044e+00   1.330395e+05   1.134115e+06  -2.889750e+05   0.000000e+00   0.000000e+00   0.000000e+00   1.177889e+06   0.000000e+00   0.000000e+00   0.000000e+00
      864000   8.639990e-06   1.249461e+00   3.042712e+01   6.049926e+00   1.330395e+05   1.134115e+06  -2.889750e+05   0.000000e+00   0.000000e+00   0.000000e+00   1.177889e+06   0.000000e+00   0.000000e+00   0.000000e+00
      872000   8.719990e-06   1.260104e+00   3.051785e+01   6.026808e+00   1.330395e+05   1.134115e+06  -2.889750e+05   0.000000e+00   0.000000e+00   0.000000e+00   1.177889e+06   0.000000e+00   0.000000e+00   0.000000e+00
      880000   8.799990e-06   1.270747e+00   3.060858e+01   6.003690e+00   1.330395e+05   1.134115e+06  -2.889750e+05   0.000000e+00   0.000000e+00   0.000000e+00   1.177889e+06   0.000000e+00   0.000000e+00   0.000000e+00
      888000   8.879990e-06   1.281391e+00   3.069931e+01   5.980572e+00   1.330395e+05   1.134115e+06  -2.889750e+05   0.000000e+00   0.000000e+00   0.000000e+00   1.177889e+06   0.000000e+00   0.000000e+00   0.000000e+00
      896000   8.959990e-06   1.292034e+00   3.079004e+01   5.957454e+00   1.330395e+05   1.134115e+06  -2.889750e+05   0.000000e+00   0.000000e+00   0.000000e+00   1.177889e+06   0.000000e+00   0.000000e+00   0.000000e+00
      904000   9.039990e-06   1.302677e+00   3.088077e+01   5.934336e+00   1.330395e+05   1.134115e+06  -2.889750e+05   0.000000e+00   0.000000e+00   0.000000e+00   1.177889e+06   0.000000e+00   0.000000e+00   0.000000e+00
      912000   9.119990e-06   1.313320e+00   3.097150e+01   5.911218e+00   1.330395e+05   1.134115e+06  -2.889750e+05   0.000000e+00   0.000000e+00   0.000000e+00   1.177889e+06   0.000000e+00   0.000000e+00   0.000000e+00
      920000   9.199990e-06   1.323963e+00   3.106223e+01   5.888100e+00   1.330395e+05   1.134115e+06  -2.889750e+05   0.000000e+00   0.000000e+00   0.000000e+00   1.177889e+06   0.000000e+00   0.000000e+00   0.000000e+00
      928000   9.279990e-06   1.334606e+00   3.115296e+01   5.864982e+00   1.330395e+05   1.134115e+06  -2.889750e+05   0.000000e+00   0.000000e+00   0.000000e+00   1.177889e+06   0.000000e+00   0.000000e+00   0.000000e+00
      936000   9.359990e-06   1.345250e+00   3.124368e+01   5.841864e+00   1.330395e+05   1.134115e+06  -2.889750e+05   0.000000e+00   0.000000e+00   0.000000e+00   1.177889e+06   0.000000e+00   0.000000e+00   0.000000e+00
      944000   9.439990e-06   1.355893e+00   3.133441e+01   5.818746e+00   1.330395e+05   1.134115e+06  -2.889750e+05   0.000000e+00   0.000000e+00   0.000000e+00   1.177889e+06   0.000000e+00   0.000000e+00   0.000000e+00
      952000   9.519990e-06   1.366536e+00   3.142514e+01   5.795628e+00   1.330395e+05   1.134115e+06  -2.889750e+05   0.000000e+00   0.000000e+00   0.000000e+00   1.177889e+06   0.000000e+00   0.000000e+00   0.000000e+00
      960000   9.599990e-06   1.377179e+00   3.151587e+01   5.772510e+00   1.330395e+05   1.134115e+06  -2.889750e+05   0.000000e+00   0.000000e+00   0.000000e+00   1.177889e+06   0.000000e+00   0.000000e+00   0.000000e+00
      968000   9.679990e-06   1.387822e+00   3.160660e+01   5.749392e+00   1.330395e+05   1.134115e+06  -2.889750e+05   0.000000e+00   0.000000e+00   0.000000e+00   1.177889e+06   0.000000e+00   0.000000e+00   0.000000e+00
      976000   9.759990e-06   1.398465e+00   3.169733e+01   5.726274e+00   1.330395e+05   1.134115e+06  -2.889750e+05   0.000000e+00   0.000000e+00   0.000000e+00   1.177889e+06   0.000000e+00   0.000000e+00   0.000000e+00
      984000   9.839990e-06   1.409109e+00   3.178806e+01   5.703156e+00   1.330395e+05   1.134115e+06  -2.889750e+05   0.000000e+00   0.000000e+00   0.000000e+00   1.177889e+06   0.000000e+00   0.000000e+00   0.000000e+00
      992000   9.919990e-06   1.419752e+00   3.187879e+01   5.680038e+00   1.330395e+05   1.134115e+06  -2.889750e+05   0.000000e+00   0.000000e+00   0.000000e+00   1.177889e+06   0.000000e+00   0.000000e+00   0.000000e+00
     1000000   9.999990e-06   1.430395e+00   3.196952e+01   5.656920e+00   1.330395e+05   1.134115e+06  -2.889750e+05   0.000000e+00   0.000000e+00   0.000000e+00   1.177889e+06   0.000000e+00   0.000000e+00   0.000000e+00
     1008000   1.007999e-05   1.441038e+00   3.206025e+01   5.633802e+00   1.330395e+05   1.134115e+06  -2.889750e+05   0.000000e+00   0.000000e+00   0.000000e+00   1.177889e+06   0.000000e+00   0.000000e+00   0.000000e+00
     1016000   1.015999e-05   1.451681e+00   3.215098e+01   5.610684e+00   1.330395e+05   1.134115e+06  -2.889750e+05   0.000000e+00   0.000000e+00   0.000000e+00   1.177889e+06   0.000000e+00   0.000000e+00   0.000000e+00
     1024000   1.023999e-05   1.462324e+00   3.224171e+01   5.587566e+00   1.330395e+05   1.134115e+06  -2.889750e+05   0.000000e+00   0.000000e+00   0.000000e+00   1.177889e+06   0.000000e+00   0.000000e+00   0.000000e+00
     1032000   1.031999e-05   1.472967e+00   3.233243e+01   5.564448e+00   1.330395e+05   1.134115e+06  -2.889750e+05   0.000000e+00   0.000000e+00   0.000000e+00   1.177889e+06   0.000000e+00   0.000000e+00   0.000000e+00
     1040000   1.039999e-05   1.483611e+00   3.242316e+01   5.541330e+00   1.330395e+05   1.134115e+06  -2.889750e+05   0.000000e+00   0.000000e+00   0.000000e+00   1.177889e+06   0.000000e+00   0.000000e+00   0.000000e+00
     1048000   1.047999e-05   1.494254e+00   3.251389e+01   5.518212e+00   1.330395e+05   1.134115e+06  -2.889750e+05   0.000000e+00   0.000000e+00   0.000000e+00   1.177889e+06   0.000000e+00   0.000000e+00   0.000000e+00
     1056000   1.055999e-05   1.504897e+00   3.260462e+01   5.495094e+00   1.330395e+05   1.134115e+06  -2.889750e+05   0.000000e+00   0.000000e+00   0.000000e+00   1.177889e+06   0.000000e+00   0.000000e+00   0.000000e+00
     1064000   1.063999e-05   1.515540e+00   3.269535e+01   5.471976e+00   1.330395e+05   1.134115e+06  -2.889750e+05   0.000000e+00   0.000000e+00   0.000000e+00   1.177889e+06   0.000000e+00   0.000000e+00   0.000000e+00
     1072000   1.071999e-05   1.526183e+00   3.278608e+01   5.448858e+00   1.330395e+05   1.134115e+06  -2.889750e+05   0.000000e+00   0.000000e+00   0.000000e+00   1.177889e+06   0.000000e+00   0.000000e+00   0.000000e+00
     1080000   1.079999e-05   1.536826e+00   3.287681e+01   5.425740e+00   1.330395e+05   1.134115e+06  -2.889750e+05   0.000000e+00   0.000000e+00   0.000000e+00   1.177889e+06   0.000000e+00   0.000000e+00   0.000000e+00
     1088000   1.087999e-05   1.547470e+00   3.296754e+01   5.402622e+00   1.330395e+05   1.134115e+06  -2.889750e+05   0.000000e+00   0.000000e+00   0.000000e+00   1.177889e+06   0.000000e+00   0.000000e+00   0.000000e+00
     1096000   1.095999e-05   1.558113e+00   3.305827e+01   5.379504e+00   1.330395e+05   1.134115e+06  -2.889750e+05   0.000000e+00   0.000000e+00   0.000000e+00   1.177889e+06   0.000000e+00   0.000000e+00   0.000000e+00
     1104000   1.103999e-05   1.568756e+00   3.314900e+01   5.356386e+00   1.330395e+05   1.134115e+06  -2.889750e+05   0.000000e+00   0.000000e+00   0.000000e+00   1.177889e+06   0.000000e+00   0.000000e+00   0.000000e+00
     1112000   1.111999e-05   1.579399e+00   3.323973e+01   5.333268e+00   1.330395e+05   1.134115e+06  -2.889750e+05   0.000000e+00   0.000000e+00   0.000000e+00   1.177889e+06   0.000000e+00   0.000000e+00   0.000000e+00
     1120000   1.119999e-05   1.590042e+00   3.333046e+01   5.310149e+00   1.330395e+05   1.134115e+06  -2.889750e+05   0.000000e+00   0.000000e+00   0.000000e+00   1.177889e+06   0.000000e+00   0.000000e+00   0.000000e+00
     1128000   1.127999e-05   1.600685e+00   3.342119e+01   5.287031e+00   1.330395e+05   1.134115e+06  -2.889750e+05   0.000000e+00   0.000000e+00   0.000000e+00   1.177889e+06   0.000000e+00   0.000000e+00   0.000000e+00
     1136000   1.135999e-05   1.611329e+00   3.351191e+01   5.263913e+00   1.330395e+05   1.134115e+06  -2.889750e+05   0.000000e+00   0.000000e+00   0.000000e+00   1.177889e+06   0.000000e+00   0.000000e+00   0.000000e+00
     1144000   1.143999e-05   1.621972e+00   3.360264e+01   5.240795e+00   1.330395e+05   1.134115e+06  -2.889750e+05   0.000000e+00   0.000000e+00   0.000000e+00   1.177889e+06   0.000000e+00   0.000000e+00   0.000000e+00
     1152000   1.151999e-05   1.632615e+00   3.369337e+01   5.217677e+00   1.330395e+05   1.134115e+06  -2.889750e+05   0.000000e+00   0.000000e+00   0.000000e+00   1.177889e+06   0.000000e+00   0.000000e+00   0.000000e+00
     1160000   1.159999e-05   1.643258e+00   3.378410e+01   5.194559e+00   1.330395e+05   1.134115e+06  -2.889750e+05   0.000000e+00   0.000000e+00   0.000000e+00   1.177889e+06   0.000000e+00   0.000000e+00   0.000000e+00
     1168000   1.167999e-05   1.653901e+00   3.387483e+01   5.171441e+00   1.330395e+05   1.134115e+06  -2.889750e+05   0.000000e+00   0.000000e+00   0.000000e+00   1.177889e+06   0.000000e+00   0.000000e+00   0.000000e+00
     1176000   1.175999e-05   1.664544e+00   3.396556e+01   5.148323e+00   1.330395e+05   1.134115e+06  -2.889750e+05   0.000000e+00   0.000000e+00   0.000000e+00   1.177889e+06   0.000000e+00   0.000000e+00   0.000000e+00
     1184000   1.183999e-05   1.675187e+00   3.405629e+01   5.125205e+00   1.330395e+05   1.134115e+06  -2.889750e+05   0.000000e+00   0.000000e+00   0.000000e+00   1.177889e+06   0.000000e+00   0.000000e+00   0.000000e+00
     1192000   1.191999e-05   1.685831e+00   3.414702e+01   5.102087e+00   1.330395e+05   1.134115e+06  -2.889750e+05   0.000000e+00   0.000000e+00   0.000000e+00   1.177889e+06   0.000000e+00   0.000000e+00   0.000000e+00
     1200000   1.199999e-05   1.696474e+00   3.423775e+01   5.078969e+00   1.330395e+05   1.134115e+06  -2.889750e+05   0.000000e+00   0.000000e+00   0.000000e+00   1.177889e+06   0.000000e+00   0.000000e+00   0.000000e+00
     1208000   1.207999e-05   1.707117e+00   3.432848e+01   5.055851e+00   1.330395e+05   1.134115e+06  -2.889750e+05   0.000000e+00   0.000000e+00   0.000000e+00   1.177889e+06   0.000000e+00   0.000000e+00   0.000000e+00
     1216000   1.215999e-05   1.717760e+00   3.441921e+01   5.032733e+00   1.330395e+05   1.134115e+06  -2.889750e+05   0.000000e+00   0.000000e+00   0.000000e+00   1.177889e+06   0.000000e+00   0.000000e+00   0.000000e+00
     1224000   1.223999e-05   1.728403e+00   3.450994e+01   5.009615e+00   1.330395e+05   1.134115e+06  -2.889750e+05   0.000000e+00   0.000000e+00   0.000000e+00   1.177889e+06   0.000000e+00   0.000000e+00   0.000000e+00
     1232000   1.231999e-05   1.739046e+00   3.460066e+01   4.986497e+00   1.330395e+05   1.134115e+06  -2.889750e+05   0.000000e+00   0.000000e+00   0.000000e+00   1.177889e+06   0.000000e+00   0.000000e+00   0.000000e+00
     1240000   1.239999e-05   1.749690e+00   3.469139e+01   4.963379e+00   1.330395e+05   1.134115e+06  -2.889750e+05   0.000000e+00   0.000000e+00   0.000000e+00   1.177889e+06   0.000000e+00   0.000000e+00   0.000000e+00
     1248000   1.247999e-05   1.760333e+00   3.478212e+01   4.940261e+00   1.330395e+05   1.134115e+06  -2.889750e+05   0.000000e+00   0.000000e+00   0.000000e+00   1.177889e+06   0.000000e+00   0.000000e+00   0.000000e+00
     1256000   1.255999e-05   1.770976e+00   3.487285e+01   4.917143e+00   1.330395e+05   1.134115e+06  -2.889750e+05   0.000000e+00   0.000000e+00   0.000000e+00   1.177889e+06   0.000000e+00   0.000000e+00   0.000000e+00
     1264000   1.263999e-05   1.781619e+00   3.496358e+01   4.894025e+00   1.330395e+05   1.134115e+06  -2.889750e+05   0.000000e+00   0.000000e+00   0.000000e+00   1.177889e+06   0.000000e+00   0.000000e+00   0.000000e+00
     1272000   1.271999e-05   1.792262e+00   3.505431e+01   4.870907e+00   1.330395e+05   1.134115e+06  -2.889750e+05   0.000000e+00   0.000000e+00   0.000000e+00   1.177889e+06   0.000000e+00   0.000000e+00   0.000000e+00
     1280000   1.279999e-05   1.802905e+00   3.514504e+01   4.847789e+00   1.330395e+05   1.134115e+06  -2.889750e+05   0.000000e+00   0.000000e+00   0.000000e+00   1.177889e+06   0.000000e+00   0.000000e+00   0.000000e+00
     1288000   1.287999e-05   1.813549e+00   3.523577e+01   4.824671e+00   1.330395e+05   1.134115e+06  -2.889750e+05   0.000000e+00   0.000000e+00   0.000000e+00   1.177889e+06   0.000000e+00   0.000000e+00   0.000000e+00
     1296000   1.295999e-05   1.824192e+00   3.532650e+01   4.801553e+00   1.330395e+05   1.134115e+06  -2.889750e+05   0.000000e+00   0.000000e+00   0.000000e+00   1.177889e+06   0.000000e+00   0.000000e+00   0.000000e+00
     1304000   1.303999e-05   1.834835e+00   3.541723e+01   4.778435e+00   1.330395e+05   1.134115e+06  -2.889750e+05   0.000000e+00   0.000000e+00   0.000000e+00   1.177889e+06   0.000000e+00   0.000000e+00   0.000000e+00
     1312000   1.311999e-05   1.845478e+00   3.550796e+01   4.755317e+00   1.330395e+05   1.134115e+06  -2.889750e+05   0.000000e+00   0.000000e+00   0.000000e+00   1.177889e+06   0.000000e+00   0.000000e+00   0.000000e+00
     1320000   1.319999e-05   1.856121e+00   3.559869e+01   4.732199e+00   1.330395e+05   1.134115e+06  -2.889750e+05   0.000000e+00   0.000000e+00   0.000000e+00   1.177889e+06   0.000000e+00   0.000000e+00   0.000000e+00
     1328000   1.327999e-05   1.866764e+00   3.568942e+01   4.709081e+00   1.330395e+05   1.134115e+06  -2.889750e+05   0.000000e+00   0.000000e+00   0.000000e+00   1.177889e+06   0.000000e+00   0.000000e+00   0.000000e+00
     1336000   1.335999e-05   1.877408e+00   3.578014e+01   4.685963e+00   1.330395e+05   1.134115e+06  -2.889750e+05   0.000000e+00   0.000000e+00   0.000000e+00   1.177889e+06   0.000000e+00   0.000000e+00   0.000000e+00
     1344000   1.343999e-05   1.888051e+00   3.587087e+01   4.662845e+00   1.330395e+05   1.134115e+06  -2.889750e+05   0.000000e+00   0.000000e+00   0.000000e+00   1.177889e+06   0.000000e+00   0.000000e+00   0.000000e+00
     1352000   1.351999e-05   1.898694e+00   3.596160e+01   4.639727e+00   1.330395e+05   1.134115e+06  -2.889750e+05   0.000000e+00   0.000000e+00   0.000000e+00   1.177889e+06   0.000000e+00   0.000000e+00   0.000000e+00
     1360000   1.359999e-05   1.909337e+00   3.605233e+01   4.616609e+00   1.330395e+05   1.134115e+06  -2.889750e+05   0.000000e+00   0.000000e+00   0.000000e+00   1.177889e+06   0.000000e+00   0.000000e+00   0.000000e+00
     1368000   1.367999e-05   1.919980e+00   3.614306e+01   4.593491e+00   1.330395e+05   1.134115e+06  -2.889750e+05   0.000000e+00   0.000000e+00   0.000000e+00   1.177889e+06   0.000000e+00   0.000000e+00   0.000000e+00
     1376000   1.375999e-05   1.930623e+00   3.623379e+01   4.570373e+00   1.330395e+05   1.134115e+06  -2.889750e+05   0.000000e+00   0.000000e+00   0.000000e+00   1.177889e+06   0.000000e+00   0.000000e+00   0.000000e+00
     1384000   1.383999e-05   1.941266e+00   3.632452e+01   4.547255e+00   1.330395e+05   1.134115e+06  -2.889750e+05   0.000000e+00   0.000000e+00   0.000000e+00   1.177889e+06   0.000000e+00   0.000000e+00   0.000000e+00
     1392000   1.391999e-05   1.951910e+00   3.641525e+01   4.524137e+00   1.330395e+05   1.134115e+06  -2.889750e+05   0.000000e+00   0.000000e+00   0.000000e+00   1.177889e+06   0.000000e+00   0.000000e+00   0.000000e+00
     1400000   1.399999e-05   1.962553e+00   3.650598e+01   4.501019e+00   1.330395e+05   1.134115e+06  -2.889750e+05   0.000000e+00   0.000000e+00   0.000000e+00   1.177889e+06   0.000000e+00   0.000000e+00   0.000000e+00
     1408000   1.407999e-05   1.973196e+00   3.659671e+01   4.477901e+00   1.330395e+05   1.134115e+06  -2.889750e+05   0.000000e+00   0.000000e+00   0.000000e+00   1.177889e+06   0.000000e+00   0.000000e+00   0.000000e+00
     1416000   1.415999e-05   1.983839e+00   3.668744e+01   4.454783e+00   1.330395e+05   1.134115e+06  -2.889750e+05   0.000000e+00   0.000000e+00   0.000000e+00   1.177889e+06   0.000000e+00   0.000000e+00   0.000000e+00
     1424000   1.423999e-05   1.994482e+00   3.677817e+01   4.431665e+00   1.330395e+05   1.134115e+06  -2.889750e+05   0.000000e+00   0.000000e+00   0.000000e+00   1.177889e+06   0.000000e+00   0.000000e+00   0.000000e+00
     1432000   1.431999e-05   2.005125e+00   3.686890e+01   4.408547e+00   1.330395e+05   1.134115e+06  -2.889750e+05   0.000000e+00   0.000000e+00   0.000000e+00   1.177889e+06   0.000000e+00   0.000000e+00   0.000000e+00
     1440000   1.439999e-05   2.015769e+00   3.695962e+01   4.385429e+00   1.330395e+05   1.134115e+06  -2.889750e+05   0.000000e+00   0.000000e+00   0.000000e+00   1.177889e+06   0.000000e+00   0.000000e+00   0.000000e+00
     1448000   1.447999e-05   2.026412e+00   3.705035e+01   4.362311e+00   1.330395e+05   1.134115e+06  -2.889750e+05   0.000000e+00   0.000000e+00   0.000000e+00   1.177889e+06   0.000000e+00   0.000000e+00   0.000000e+00
     1456000   1.455999e-05   2.037055e+00   3.714108e+01   4.339193e+00   1.330395e+05   1.134115e+06  -2.889750e+05   0.000000e+00   0.000000e+00   0.000000e+00   1.177889e+06   0.000000e+00   0.000000e+00   0.000000e+00
     1464000   1.463999e-05   2.047698e+00   3.723181e+01   4.316075e+00   1.330395e+05   1.134115e+06  -2.889750e+05   0.000000e+00   0.000000e+00   0.000000e+00   1.177889e+06   0.000000e+00   0.000000e+00   0.000000e+00
     1472000   1.471999e-05   2.058341e+00   3.732254e+01   4.292957e+00   1.330395e+05   1.134115e+06  -2.889750e+05   0.000000e+00   0.000000e+00   0.000000e+00   1.177889e+06   0.000000e+00   0.000000e+00   0.000000e+00
     1480000   1.479999e-05   2.068984e+00   3.741327e+01   4.269839e+00   1.330395e+05   1.134115e+06  -2.889750e+05   0.000000e+00   0.000000e+00   0.000000e+00   1.177889e+06   0.000000e+00   0.000000e+00   0.000000e+00
     1488000   1.487999e-05   2.079628e+00   3.750400e+01   4.246721e+00   1.330395e+05   1.134115e+06  -2.889750e+05   0.000000e+00   0.000000e+00   0.000000e+00   1.177889e+06   0.000000e+00   0.000000e+00   0.000000e+00
     1496000   1.495999e-05   2.090271e+00   3.759473e+01   4.223603e+00   1.330395e+05   1.134115e+06  -2.889750e+05   0.000000e+00   0.000000e+00   0.000000e+00   1.177889e+06   0.000000e+00   0.000000e+00   0.000000e+00
     1504000   1.503999e-05   2.100914e+00   3.768546e+01   4.200485e+00   1.330395e+05   1.134115e+06  -2.889750e+05   0.000000e+00   0.000000e+00   0.000000e+00   1.177889e+06   0.000000e+00   0.000000e+00   0.000000e+00
     1512000   1.511999e-05   2.111557e+00   3.777619e+01   4.177367e+00   1.330395e+05   1.134115e+06  -2.889750e+05   0.000000e+00   0.000000e+00   0.000000e+00   1.177889e+06   0.000000e+00   0.000000e+00   0.000000e+00
     1520000   1.519999e-05   2.122200e+00   3.786692e+01   4.154249e+00   1.330395e+05   1.134115e+06  -2.889750e+05   0.000000e+00   0.000000e+00   0.000000e+00   1.177889e+06   0.000000e+00   0.000000e+00   0.000000e+00
     1528000   1.527999e-05   2.132843e+00   3.795765e+01   4.131131e+00   1.330395e+05   1.134115e+06  -2.889750e+05   0.000000e+00   0.000000e+00   0.000000e+00   1.177889e+06   0.000000e+00   0.000000e+00   0.000000e+00
     1536000   1.535999e-05   2.143486e+00   3.804837e+01   4.108013e+00   1.330395e+05   1.134115e+06  -2.889750e+05   0.000000e+00   0.000000e+00   0.000000e+00   1.177889e+06   0.000000e+00   0.000000e+00   0.000000e+00
     1544000   1.543999e-05   2.154130e+00   3.813910e+01   4.084895e+00   1.330395e+05   1.134115e+06  -2.889750e+05   0.000000e+00   0.000000e+00   0.000000e+00   1.177889e+06   0.000000e+00   0.000000e+00   0.000000e+00
     1552000   1.551999e-05   2.164773e+00   3.822983e+01   4.061777e+00   1.330395e+05   1.134115e+06  -2.889750e+05   0.000000e+00   0.000000e+00   0.000000e+00   1.177889e+06   0.000000e+00   0.000000e+00   0.000000e+00
     1560000   1.559999e-05   2.175416e+00   3.832056e+01   4.038659e+00   1.330395e+05   1.134115e+06  -2.889750e+05   0.000000e+00   0.000000e+00   0.000000e+00   1.177889e+06   0.000000e+00   0.000000e+00   0.000000e+00
     1568000   1.567999e-05   2.186059e+00   3.841129e+01   4.015541e+00   1.330395e+05   1.134115e+06  -2.889750e+05   0.000000e+00   0.000000e+00   0.000000e+00   1.177889e+06   0.000000e+00   0.000000e+00   0.000000e+00
     1576000   1.575999e-05   2.196702e+00   3.850202e+01   3.992423e+00   1.330395e+05   1.134115e+06  -2.889750e+05   0.000000e+00   0.000000e+00   0.000000e+00   1.177889e+06   0.000000e+00   0.000000e+00   0.000000e+00
     1584000   1.583999e-05   2.207345e+00   3.859275e+01   3.969305e+00   1.330395e+05   1.134115e+06  -2.889750e+05   0.000000e+00   0.000000e+00   0.000000e+00   1.177889e+06   0.000000e+00   0.000000e+00   0.000000e+00
     1592000   1.591999e-05   2.217989e+00   3.868348e+01   3.946187e+00   1.330395e+05   1.134115e+06  -2.889750e+05   0.000000e+00   0.000000e+00   0.000000e+00   1.177889e+06   0.000000e+00   0.000000e+00   0.000000e+00
     1600000   1.599999e-05   2.228632e+00   3.877421e+01   3.923069e+00   1.330395e+05   1.134115e+06  -2.889750e+05   0.000000e+00   0.000000e+00   0.000000e+00   1.177889e+06   0.000000e+00   0.000000e+00   0.000000e+00
     1608000   1.607999e-05   2.239275e+00   3.886494e+01   3.899951e+00   1.330395e+05   1.134115e+06  -2.889750e+05   0.000000e+00   0.000000e+00   0.000000e+00   1.177889e+06   0.000000e+00   0.000000e+00   0.000000e+00
     1616000   1.615999e-05   2.249918e+00   3.895567e+01   3.876833e+00   1.330395e+05   1.134115e+06  -2.889750e+05   0.000000e+00   0.000000e+00   0.000000e+00   1.177889e+06   0.000000e+00   0.000000e+00   0.000000e+00
     1624000   1.623999e-05   2.260561e+00   3.904640e+01   3.853715e+00   1.330395e+05   1.134115e+06  -2.889750e+05   0.000000e+00   0.000000e+00   0.000000e+00   1.177889e+06   0.000000e+00   0.000000e+00   0.000000e+00
     1632000   1.631999e-05   2.271204e+00   3.913713e+01   3.830597e+00   1.330395e+05   1.134115e+06  -2.889750e+05   0.000000e+00   0.000000e+00   0.000000e+00   1.177889e+06   0.000000e+00   0.000000e+00   0.000000e+00
     1640000   1.639999e-05   2.281848e+00   3.922785e+01   3.807479e+00   1.330395e+05   1.134115e+06  -2.889750e+05   0.000000e+00   0.000000e+00   0.000000e+00   1.177889e+06   0.000000e+00   0.000000e+00   0.000000e+00
     1648000   1.647999e-05   2.292491e+00   3.931858e+01   3.784361e+00   1.330395e+05   1.134115e+06  -2.889750e+05   0.000000e+00   0.000000e+00   0.000000e+00   1.177889e+06   0.000000e+00   0.000000e+00   0.000000e+00
     1656000   1.655999e-05   2.303134e+00   3.940931e+01   3.761243e+00   1.330395e+05   1.134115e+06  -2.889750e+05   0.000000e+00   0.000000e+00   0.000000e+00   1.177889e+06   0.000000e+00   0.000000e+00   0.000000e+00
     1664000   1.663999e-05   2.313777e+00   3.950004e+01   3.738125e+00   1.330395e+05   1.134115e+06  -2.889750e+05   0.000000e+00   0.000000e+00   0.000000e+00   1.177889e+06   0.000000e+00   0.000000e+00   0.000000e+00
     1672000   1.671999e-05   2.324420e+00   3.959077e+01   3.715007e+00   1.330395e+05   1.134115e+06  -2.889750e+05   0.000000e+00   0.000000e+00   0.000000e+00   1.177889e+06   0.000000e+00   0.000000e+00   0.000000e+00
     1680000   1.679999e-05   2.335063e+00   3.968150e+01   3.691889e+00   1.330395e+05   1.134115e+06  -2.889750e+05   0.000000e+00   0.000000e+00   0.000000e+00   1.177889e+06   0.000000e+00   0.000000e+00   0.000000e+00
     1688000   1.687999e-05   2.345706e+00   3.977223e+01   3.668771e+00   1.330395e+05   1.134115e+06  -2.889750e+05   0.000000e+00   0.000000e+00   0.000000e+00   1.177889e+06   0.000000e+00   0.000000e+00   0.000000e+00
     1696000   1.695999e-05   2.356350e+00   3.986296e+01   3.645653e+00   1.330395e+05   1.134115e+06  -2.889750e+05   0.000000e+00   0.000000e+00   0.000000e+00   1.177889e+06   0.000000e+00   0.000000e+00   0.000000e+00
     1704000   1.703999e-05   2.366993e+00   3.995369e+01   3.622535e+00   1.330395e+05   1.134115e+06  -2.889750e+05   0.000000e+00   0.000000e+00   0.000000e+00   1.177889e+06   0.000000e+00   0.000000e+00   0.000000e+00
     1712000   1.711999e-05   2.377636e+00   4.004442e+01   3.599417e+00   1.330395e+05   1.134115e+06  -2.889750e+05   0.000000e+00   0.000000e+00   0.000000e+00   1.177889e+06   0.000000e+00   0.000000e+00   0.000000e+00
     1720000   1.719999e-05   2.388279e+00   4.013515e+01   3.576299e+00   1.330395e+05   1.134115e+06  -2.889750e+05   0.000000e+00   0.000000e+00   0.000000e+00   1.177889e+06   0.000000e+00   0.000000e+00   0.000000e+00
     1728000   1.727999e-05   2.398922e+00   4.022588e+01   3.553181e+00   1.330395e+05   1.134115e+06  -2.889750e+05   0.000000e+00   0.000000e+00   0.000000e+00   1.177889e+06   0.000000e+00   0.000000e+00   0.000000e+00
     1736000   1.735999e-05   2.409565e+00   4.031660e+01   3.530063e+00   1.330395e+05   1.134115e+06  -2.889750e+05   0.000000e+00   0.000000e+00   0.000000e+00   1.177889e+06   0.000000e+00   0.000000e+00   0.000000e+00
     1744000   1.743999e-05   2.420209e+00   4.040733e+01   3.506945e+00   1.330395e+05   1.134115e+06  -2.889750e+05   0.000000e+00   0.000000e+00   0.000000e+00   1.177889e+06   0.000000e+00   0.000000e+00   0.000000e+00
     1752000   1.751999e-05   2.430852e+00   4.049806e+01   3.483827e+00   1.330395e+05   1.134115e+06  -2.889750e+05   0.000000e+00   0.000000e+00   0.000000e+00   1.177889e+06   0.000000e+00   0.000000e+00   0.000000e+00
     1760000   1.759999e-05   2.441495e+00   4.058879e+01   3.460709e+00   1.330395e+05   1.134115e+06  -2.889750e+05   0.000000e+00   0.000000e+00   0.000000e+00   1.177889e+06   0.000000e+00   0.000000e+00   0.000000e+00
     1768000   1.767999e-05   2.452138e+00   4.067952e+01   3.437591e+00   1.330395e+05   1.134115e+06  -2.889750e+05   0.000000e+00   0.000000e+00   0.000000e+00   1.177889e+06   0.000000e+00   0.000000e+00   0.000000e+00
     1776000   1.775999e-05   2.462781e+00   4.077025e+01   3.414473e+00   1.330395e+05   1.134115e+06  -2.889750e+05   0.000000e+00   0.000000e+00   0.000000e+00   1.177889e+06   0.000000e+00   0.000000e+00   0.000000e+00
     1784000   1.783999e-05   2.473424e+00   4.086098e+01   3.391355e+00   1.330395e+05   1.134115e+06  -2.889750e+05   0.000000e+00   0.000000e+00   0.000000e+00   1.177889e+06   0.000000e+00   0.000000e+00   0.000000e+00
     1792000   1.791999e-05   2.484068e+00   4.095171e+01   3.368237e+00   1.330395e+05   1.134115e+06  -2.889750e+05   0.000000e+00   0.000000e+00   0.000000e+00   1.177889e+06   0.000000e+00   0.000000e+00   0.000000e+00
     1800000   1.799999e-05   2.494711e+00   4.104244e+01   3.345119e+00   1.330395e+05   1.134115e+06  -2.889750e+05   0.000000e+00   0.000000e+00   0.000000e+00   1.177889e+06   0.000000e+00   0.000000e+00   0.000000e+00
     1808000   1.807999e-05   2.505354e+00   4.113317e+01   3.322001e+00   1.330395e+05   1.134115e+06  -2.889750e+05   0.000000e+00   0.000000e+00   0.000000e+00   1.177889e+06   0.000000e+00   0.000000e+00   0.000000e+00
     1816000   1.815999e-05   2.515997e+00   4.122390e+01   3.298883e+00   1.330395e+05   1.134115e+06  -2.889750e+05   0.000000e+00   0.000000e+00   0.000000e+00   1.177889e+06   0.000000e+00   0.000000e+00   0.000000e+00
     1824000   1.823999e-05   2.526640e+00   4.131463e+01   3.275765e+00   1.330395e+05   1.134115e+06  -2.889750e+05   0.000000e+00   0.000000e+00   0.000000e+00   1.177889e+06   0.000000e+00   0.000000e+00   0.000000e+00
     1832000   1.831999e-05   2.537283e+00   4.140536e+01   3.252647e+00   1.330395e+05   1.134115e+06  -2.889750e+05   0.000000e+00   0.000000e+00   0.000000e+00   1.177889e+06   0.000000e+00   0.000000e+00   0.000000e+00
     1840000   1.839999e-05   2.547927e+00   4.149608e+01   3.229529e+00   1.330395e+05   1.134115e+06  -2.889750e+05   0.000000e+00   0.000000e+00   0.000000e+00   1.177889e+06   0.000000e+00   0.000000e+00   0.000000e+00
     1848000   1.847999e-05   2.558570e+00   4.158681e+01   3.206411e+00   1.330395e+05   1.134115e+06  -2.889750e+05   0.000000e+00   0.000000e+00   0.000000e+00   1.177889e+06   0.000000e+00   0.000000e+00   0.000000e+00
     1856000   1.855999e-05   2.569213e+00   4.167754e+01   3.183293e+00   1.330395e+05   1.134115e+06  -2.889750e+05   0.000000e+00   0.000000e+00   0.000000e+00   1.177889e+06   0.000000e+00   0.000000e+00   0.000000e+00
     1864000   1.863999e-05   2.579856e+00   4.176827e+01   3.160175e+00   1.330395e+05   1.134115e+06  -2.889750e+05   0.000000e+00   0.000000e+00   0.000000e+00   1.177889e+06   0.000000e+00   0.000000e+00   0.000000e+00
     1872000   1.871999e-05   2.590499e+00   4.185900e+01   3.137057e+00   1.330395e+05   1.134115e+06  -2.889750e+05   0.000000e+00   0.000000e+00   0.000000e+00   1.177889e+06   0.000000e+00   0.000000e+00   0.000000e+00
     1880000   1.879999e-05   2.601142e+00   4.194973e+01   3.113939e+00   1.330395e+05   1.134115e+06  -2.889750e+05   0.000000e+00   0.000000e+00   0.000000e+00   1.177889e+06   0.000000e+00   0.000000e+00   0.000000e+00
     1888000   1.887999e-05   2.611785e+00   4.204046e+01   3.090821e+00   1.330395e+05   1.134115e+06  -2.889750e+05   0.000000e+00   0.000000e+00   0.000000e+00   1.177889e+06   0.000000e+00   0.000000e+00   0.000000e+00
     1896000   1.895999e-05   2.622429e+00   4.213119e+01   3.067703e+00   1.330395e+05   1.134115e+06  -2.889750e+05   0.000000e+00   0.000000e+00   0.000000e+00   1.177889e+06   0.000000e+00   0.000000e+00   0.000000e+00
     1904000   1.903999e-05   2.633072e+00   4.222192e+01   3.044585e+00   1.330395e+05   1.134115e+06  -2.889750e+05   0.000000e+00   0.000000e+00   0.000000e+00   1.177889e+06   0.000000e+00   0.000000e+00   0.000000e+00
     1912000   1.911999e-05   2.643715e+00   4.231265e+01   3.021467e+00   1.330395e+05   1.134115e+06  -2.889750e+05   0.000000e+00   0.000000e+00   0.000000e+00   1.177889e+06   0.000000e+00   0.000000e+00   0.000000e+00
     1920000   1.919999e-05   2.654358e+00   4.240338e+01   2.998349e+00   1.330395e+05   1.134115e+06  -2.889750e+05   0.000000e+00   0.000000e+00   0.000000e+00   1.177889e+06   0.000000e+00   0.000000e+00   0.000000e+00
     1928000   1.927999e-05   2.665001e+00   4.249411e+01   2.975231e+00   1.330395e+05   1.134115e+06  -2.889750e+05   0.000000e+00   0.000000e+00   0.000000e+00   1.177889e+06   0.000000e+00   0.000000e+00   0.000000e+00
     1936000   1.935999e-05   2.675644e+00   4.258483e+01   2.952113e+00   1.330395e+05   1.134115e+06  -2.889750e+05   0.000000e+00   0.000000e+00   0.000000e+00   1.177889e+06   0.000000e+00   0.000000e+00   0.000000e+00
     1944000   1.943999e-05   2.686288e+00   4.267556e+01   2.928995e+00   1.330395e+05   1.134115e+06  -2.889750e+05   0.000000e+00   0.000000e+00   0.000000e+00   1.177889e+06   0.000000e+00   0.000000e+00   0.000000e+00
     1952000   1.951999e-05   2.696931e+00   4.276629e+01   2.905877e+00   1.330395e+05   1.134115e+06  -2.889750e+05   0.000000e+00   0.000000e+00   0.000000e+00   1.177889e+06   0.000000e+00   0.000000e+00   0.000000e+00
     1960000   1.959999e-05   2.707574e+00   4.285702e+01   2.882759e+00   1.330395e+05   1.134115e+06  -2.889750e+05   0.000000e+00   0.000000e+00   0.000000e+00   1.177889e+06   0.000000e+00   0.000000e+00   0.000000e+00
     1968000   1.967999e-05   2.718217e+00   4.294775e+01   2.859641e+00   1.330395e+05   1.134115e+06  -2.889750e+05   0.000000e+00   0.000000e+00   0.000000e+00   1.177889e+06   0.000000e+00   0.000000e+00   0.000000e+00
     1976000   1.975999e-05   2.728860e+00   4.303848e+01   2.836523e+00   1.330395e+05   1.134115e+06  -2.889750e+05   0.000000e+00   0.000000e+00   0.000000e+00   1.177889e+06   0.000000e+00   0.000000e+00   0.000000e+00
     1984000   1.983999e-05   2.739503e+00   4.312921e+01   2.813405e+00   1.330395e+05   1.134115e+06  -2.889750e+05   0.000000e+00   0.000000e+00   0.000000e+00   1.177889e+06   0.000000e+00   0.000000e+00   0.000000e+00
     1992000   1.991999e-05   2.750147e+00   4.321994e+01   2.790287e+00   1.330395e+05   1.134115e+06  -2.889750e+05   0.000000e+00   0.000000e+00   0.000000e+00   1.177889e+06   0.000000e+00   0.000000e+00   0.000000e+00
     2000000   1.999999e-05   2.760790e+00   4.331067e+01   2.767169e+00   1.330395e+05   1.134115e+06  -2.889750e+05   0.000000e+00   0.000000e+00   0.000000e+00   1.177889e+06   0.000000e+00   0.000000e+00   0.000000e+00
     2008000   2.007999e-05   2.771433e+00   4.340140e+01   2.744051e+00   1.330395e+05   1.134115e+06  -2.889750e+05   0.000000e+00   0.000000e+00   0.000000e+00   1.177889e+06   0.000000e+00   0.000000e+00   0.000000e+00
     2016000   2.015999e-05   2.782076e+00   4.349213e+01   2.720933e+00   1.330395e+05   1.134115e+06  -2.889750e+05   0.000000e+00   0.000000e+00   0.000000e+00   1.177889e+06   0.000000e+00   0.000000e+00   0.000000e+00
     2024000   2.023999e-05   2.792719e+00   4.358286e+01   2.697815e+00   1.330395e+05   1.134115e+06  -2.889750e+05   0.000000e+00   0.000000e+00   0.000000e+00   1.177889e+06   0.000000e+00   0.000000e+00   0.000000e+00
     2032000   2.031999e-05   2.803362e+00   4.367359e+01   2.674697e+00   1.330395e+05   1.134115e+06  -2.889750e+05   0.000000e+00   0.000000e+00   0.000000e+00   1.177889e+06   0.000000e+00   0.000000e+00   0.000000e+00
     2040000   2.039999e-05   2.814005e+00   4.376431e+01   2.651579e+00   1.330395e+05   1.134115e+06  -2.889750e+05   0.000000e+00   0.000000e+00   0.000000e+00   1.177889e+06   0.000000e+00   0.000000e+00   0.000000e+00
     2048000   2.047999e-05   2.824649e+00   4.385504e+01   2.628461e+00   1.330395e+05   1.134115e+06  -2.889750e+05   0.000000e+00   0.000000e+00   0.000000e+00   1.177889e+06   0.000000e+00   0.000000e+00   0.000000e+00
     2056000   2.055999e-05   2.835292e+00   4.394577e+01   2.605343e+00   1.330395e+05   1.134115e+06  -2.889750e+05   0.000000e+00   0.000000e+00   0.000000e+00   1.177889e+06   0.000000e+00   0.000000e+00   0.000000e+00
     2064000   2.063999e-05   2.845935e+00   4.403650e+01   2.582225e+00   1.330395e+05   1.134115e+06  -2.889750e+05   0.000000e+00   0.000000e+00   0.000000e+00   1.177889e+06   0.000000e+00   0.000000e+00   0.000000e+00
     2072000   2.071999e-05   2.856578e+00   4.412723e+01   2.559107e+00   1.330395e+05   1.134115e+06  -2.889750e+05   0.000000e+00   0.000000e+00   0.000000e+00   1.177889e+06   0.000000e+00   0.000000e+00   0.000000e+00
     2080000   2.079999e-05   2.867221e+00   4.421796e+01   2.535989e+00   1.330395e+05   1.134115e+06  -2.889750e+05   0.000000e+00   0.000000e+00   0.000000e+00   1.177889e+06   0.000000e+00   0.000000e+00   0.000000e+00
     2088000   2.087999e-05   2.877864e+00   4.430869e+01   2.512871e+00   1.330395e+05   1.134115e+06  -2.889750e+05   0.000000e+00   0.000000e+00   0.000000e+00   1.177889e+06   0.000000e+00   0.000000e+00   0.000000e+00
     2096000   2.095999e-05   2.888508e+00   4.439942e+01   2.489753e+00   1.330395e+05   1.134115e+06  -2.889750e+05   0.000000e+00   0.000000e+00   0.000000e+00   1.177889e+06   0.000000e+00   0.000000e+00   0.000000e+00
     2104000   2.103999e-05   2.899151e+00   4.449015e+01   2.466635e+00   1.330395e+05   1.134115e+06  -2.889750e+05   0.000000e+00   0.000000e+00   0.000000e+00   1.177889e+06   0.000000e+00   0.000000e+00   0.000000e+00
     2112000   2.111999e-05   2.909794e+00   4.458088e+01   2.443517e+00   1.330395e+05   1.134115e+06  -2.889750e+05   0.000000e+00   0.000000e+00   0.000000e+00   1.177889e+06   0.000000e+00   0.000000e+00   0.000000e+00
     2120000   2.119999e-05   2.920437e+00   4.467161e+01   2.420399e+00   1.330395e+05   1.134115e+06  -2.889750e+05   0.000000e+00   0.000000e+00   0.000000e+00   1.177889e+06   0.000000e+00   0.000000e+00   0.000000e+00
     2128000   2.127999e-05   2.931080e+00   4.476234e+01   2.397281e+00   1.330395e+05   1.134115e+06  -2.889750e+05   0.000000e+00   0.000000e+00   0.000000e+00   1.177889e+06   0.000000e+00   0.000000e+00   0.000000e+00
     2136000   2.135999e-05   2.941723e+00   4.485306e+01   2.374163e+00   1.330395e+05   1.134115e+06  -2.889750e+05   0.000000e+00   0.000000e+00   0.000000e+00   1.177889e+06   0.000000e+00   0.000000e+00   0.000000e+00
     2144000   2.143999e-05   2.952367e+00   4.494379e+01   2.351045e+00   1.330395e+05   1.134115e+06  -2.889750e+05   0.000000e+00   0.000000e+00   0.000000e+00   1.177889e+06   0.000000e+00   0.000000e+00   0.000000e+00
     2152000   2.151999e-05   2.963010e+00   4.503452e+01   2.327927e+00   1.330395e+05   1.134115e+06  -2.889750e+05   0.000000e+00   0.000000e+00   0.000000e+00   1.177889e+06   0.000000e+00   0.000000e+00   0.000000e+00
     2160000   2.159999e-05   2.973653e+00   4.512525e+01   2.304809e+00   1.330395e+05   1.134115e+06  -2.889750e+05   0.000000e+00   0.000000e+00   0.000000e+00   1.177889e+06   0.000000e+00   0.000000e+00   0.000000e+00
     2168000   2.167999e-05   2.984296e+00   4.521598e+01   2.281691e+00   1.330395e+05   1.134115e+06  -2.889750e+05   0.000000e+00   0.000000e+00   0.000000e+00   1.177889e+06   0.000000e+00   0.000000e+00   0.000000e+00
     2176000   2.175999e-05   2.994939e+00   4.530671e+01   2.258573e+00   1.330395e+05   1.134115e+06  -2.889750e+05   0.000000e+00   0.000000e+00   0.000000e+00   1.177889e+06   0.000000e+00   0.000000e+00   0.000000e+00
     2184000   2.183999e-05   3.005582e+00   4.539744e+01   2.235455e+00   1.330395e+05   1.134115e+06  -2.889750e+05   0.000000e+00   0.000000e+00   0.000000e+00   1.177889e+06   0.000000e+00   0.000000e+00   0.000000e+00
     2192000   2.191999e-05   3.016226e+00   4.548817e+01   2.212337e+00   1.330395e+05   1.134115e+06  -2.889750e+05   0.000000e+00   0.000000e+00   0.000000e+00   1.177889e+06   0.000000e+00   0.000000e+00   0.000000e+00
     2200000   2.199999e-05   3.026869e+00   4.557890e+01   2.189219e+00   1.330395e+05   1.134115e+06  -2.889750e+05   0.000000e+00   0.000000e+00   0.000000e+00   1.177889e+06   0.000000e+00   0.000000e+00   0.000000e+00
     2208000   2.207999e-05   3.037512e+00   4.566963e+01   2.166101e+00   1.330395e+05   1.134115e+06  -2.889750e+05   0.000000e+00   0.000000e+00   0.000000e+00   1.177889e+06   0.000000e+00   0.000000e+00   0.000000e+00
     2216000   2.215999e-05   3.048155e+00   4.576036e+01   2.142983e+00   1.330395e+05   1.134115e+06  -2.889750e+05   0.000000e+00   0.000000e+00   0.000000e+00   1.177889e+06   0.000000e+00   0.000000e+00   0.000000e+00
     2224000   2.223999e-05   3.058798e+00   4.585109e+01   2.119865e+00   1.330395e+05   1.134115e+06  -2.889750e+05   0.000000e+00   0.000000e+00   0.000000e+00   1.177889e+06   0.000000e+00   0.000000e+00   0.000000e+00
     2232000   2.231999e-05   3.069441e+00   4.594182e+01   2.096747e+00   1.330395e+05   1.134115e+06  -2.889750e+05   0.000000e+00   0.000000e+00   0.000000e+00   1.177889e+06   0.000000e+00   0.000000e+00   0.000000e+00
     2240000   2.239999e-05   3.080084e+00   4.603254e+01   2.073629e+00   1.330395e+05   1.134115e+06  -2.889750e+05   0.000000e+00   0.000000e+00   0.000000e+00   1.177889e+06   0.000000e+00   0.000000e+00   0.000000e+00
     2248000   2.247999e-05   3.090728e+00   4.612327e+01   2.050511e+00   1.330395e+05   1.134115e+06  -2.889750e+05   0.000000e+00   0.000000e+00   0.000000e+00   1.177889e+06   0.000000e+00   0.000000e+00   0.000000e+00
     2256000   2.255999e-05   3.101371e+00   4.621400e+01   2.027393e+00   1.330395e+05   1.134115e+06  -2.889750e+05   0.000000e+00   0.000000e+00   0.000000e+00   1.177889e+06   0.000000e+00   0.000000e+00   0.000000e+00
     2264000   2.263999e-05   3.112014e+00   4.630473e+01   2.004275e+00   1.330395e+05   1.134115e+06  -2.889750e+05   0.000000e+00   0.000000e+00   0.000000e+00   1.177889e+06   0.000000e+00   0.000000e+00   0.000000e+00
     2272000   2.271999e-05   3.122657e+00   4.639546e+01   1.981157e+00   1.330395e+05   1.134115e+06  -2.889750e+05   0.000000e+00   0.000000e+00   0.000000e+00   1.177889e+06   0.000000e+00   0.000000e+00   0.000000e+00
     2280000   2.279999e-05   3.133300e+00   4.648619e+01   1.958039e+00   1.330395e+05   1.134115e+06  -2.889750e+05   0.000000e+00   0.000000e+00   0.000000e+00   1.177889e+06   0.000000e+00   0.000000e+00   0.000000e+00
     2288000   2.287999e-05   3.143943e+00   4.657692e+01   1.934921e+00   1.330395e+05   1.134115e+06  -2.889750e+05   0.000000e+00   0.000000e+00   0.000000e+00   1.177889e+06   0.000000e+00   0.000000e+00   0.000000e+00
     2296000   2.295999e-05   3.154587e+00   4.666765e+01   1.911803e+00   1.330395e+05   1.134115e+06  -2.889750e+05   0.000000e+00   0.000000e+00   0.000000e+00   1.177889e+06   0.000000e+00   0.000000e+00   0.000000e+00
     2304000   2.303999e-05   3.165230e+00   4.675838e+01   1.888685e+00   1.330395e+05   1.134115e+06  -2.889750e+05   0.000000e+00   0.000000e+00   0.000000e+00   1.177889e+06   0.000000e+00   0.000000e+00   0.000000e+00
     2312000   2.311999e-05   3.175873e+00   4.684911e+01   1.865567e+00   1.330395e+05   1.134115e+06  -2.889750e+05   0.000000e+00   0.000000e+00   0.000000e+00   1.177889e+06   0.000000e+00   0.000000e+00   0.000000e+00
     2320000   2.319999e-05   3.186516e+00   4.693984e+01   1.842449e+00   1.330395e+05   1.134115e+06  -2.889750e+05   0.000000e+00   0.000000e+00   0.000000e+00   1.177889e+06   0.000000e+00   0.000000e+00   0.000000e+00
     2328000   2.327999e-05   3.197159e+00   4.703057e+01   1.819331e+00   1.330395e+05   1.134115e+06  -2.889750e+05   0.000000e+00   0.000000e+00   0.000000e+00   1.177889e+06   0.000000e+00   0.000000e+00   0.000000e+00
     2336000   2.335999e-05   3.207802e+00   4.712129e+01   1.796213e+00   1.330395e+05   1.134115e+06  -2.889750e+05   0.000000e+00   0.000000e+00   0.000000e+00   1.177889e+06   0.000000e+00   0.000000e+00   0.000000e+00
     2344000   2.343999e-05   3.218446e+00   4.721202e+01   1.773095e+00   1.330395e+05   1.134115e+06  -2.889750e+05   0.000000e+00   0.000000e+00   0.000000e+00   1.177889e+06   0.000000e+00   0.000000e+00   0.000000e+00
     2352000   2.351999e-05   3.229089e+00   4.730275e+01   1.749977e+00   1.330395e+05   1.134115e+06  -2.889750e+05   0.000000e+00   0.000000e+00   0.000000e+00   1.177889e+06   0.000000e+00   0.000000e+00   0.000000e+00
     2360000   2.359999e-05   3.239732e+00   4.739348e+01   1.726859e+00   1.330395e+05   1.134115e+06  -2.889750e+05   0.000000e+00   0.000000e+00   0.000000e+00   1.177889e+06   0.000000e+00   0.000000e+00   0.000000e+00
     2368000   2.367999e-05   3.250375e+00   4.748421e+01   1.703741e+00   1.330395e+05   1.134115e+06  -2.889750e+05   0.000000e+00   0.000000e+00   0.000000e+00   1.177889e+06   0.000000e+00   0.000000e+00   0.000000e+00
     2376000   2.375999e-05   3.261018e+00   4.757494e+01   1.680623e+00   1.330395e+05   1.134115e+06  -2.889750e+05   0.000000e+00   0.000000e+00   0.000000e+00   1.177889e+06   0.000000e+00   0.000000e+00   0.000000e+00
     2384000   2.383999e-05   3.271661e+00   4.766567e+01   1.657505e+00   1.330395e+05   1.134115e+06  -2.889750e+05   0.000000e+00   0.000000e+00   0.000000e+00   1.177889e+06   0.000000e+00   0.000000e+00   0.000000e+00
     2392000   2.391999e-05   3.282304e+00   4.775640e+01   1.634387e+00   1.330395e+05   1.134115e+06  -2.889750e+05   0.000000e+00   0.000000e+00   0.000000e+00   1.177889e+06   0.000000e+00   0.000000e+00   0.000000e+00
     2400000   2.399999e-05   3.292948e+00   4.784713e+01   1.611269e+00   1.330395e+05   1.134115e+06  -2.889750e+05   0.000000e+00   0.000000e+00   0.000000e+00   1.177889e+06   0.000000e+00   0.000000e+00   0.000000e+00
     2408000   2.407999e-05   3.303591e+00   4.793786e+01   1.588151e+00   1.330395e+05   1.134115e+06  -2.889750e+05   0.000000e+00   0.000000e+00   0.000000e+00   1.177889e+06   0.000000e+00   0.000000e+00   0.000000e+00
     2416000   2.415999e-05   3.314234e+00   4.802859e+01   1.565033e+00   1.330395e+05   1.134115e+06  -2.889750e+05   0.000000e+00   0.000000e+00   0.000000e+00   1.177889e+06   0.000000e+00   0.000000e+00   0.000000e+00
     2424000   2.423999e-05   3.324877e+00   4.811932e+01   1.541915e+00   1.330395e+05   1.134115e+06  -2.889750e+05   0.000000e+00   0.000000e+00   0.000000e+00   1.177889e+06   0.000000e+00   0.000000e+00   0.000000e+00
     2432000   2.431999e-05   3.335520e+00   4.821005e+01   1.518797e+00   1.330395e+05   1.134115e+06  -2.889750e+05   0.000000e+00   0.000000e+00   0.000000e+00   1.177889e+06   0.000000e+00   0.000000e+00   0.000000e+00
     2440000   2.439999e-05   3.346163e+00   4.830077e+01   1.495679e+00   1.330395e+05   1.134115e+06  -2.889750e+05   0.000000e+00   0.000000e+00   0.000000e+00   1.177889e+06   0.000000e+00   0.000000e+00   0.000000e+00
     2448000   2.447999e-05   3.356807e+00   4.839150e+01   1.472561e+00   1.330395e+05   1.134115e+06  -2.889750e+05   0.000000e+00   0.000000e+00   0.000000e+00   1.177889e+06   0.000000e+00   0.000000e+00   0.000000e+00
     2456000   2.455999e-05   3.367450e+00   4.848223e+01   1.449443e+00   1.330395e+05   1.134115e+06  -2.889750e+05   0.000000e+00   0.000000e+00   0.000000e+00   1.177889e+06   0.000000e+00   0.000000e+00   0.000000e+00
     2464000   2.463999e-05   3.378093e+00   4.857296e+01   1.426325e+00   1.330395e+05   1.134115e+06  -2.889750e+05   0.000000e+00   0.000000e+00   0.000000e+00   1.177889e+06   0.000000e+00   0.000000e+00   0.000000e+00
     2472000   2.471999e-05   3.388736e+00   4.866369e+01   1.403207e+00   1.330395e+05   1.134115e+06  -2.889750e+05   0.000000e+00   0.000000e+00   0.000000e+00   1.177889e+06   0.000000e+00   0.000000e+00   0.000000e+00
     2480000   2.479999e-05   3.399379e+00   4.875442e+01   1.380089e+00   1.330395e+05   1.134115e+06  -2.889750e+05   0.000000e+00   0.000000e+00   0.000000e+00   1.177889e+06   0.000000e+00   0.000000e+00   0.000000e+00
     2488000   2.487999e-05   3.410022e+00   4.884515e+01   1.356971e+00   1.330395e+05   1.134115e+06  -2.889750e+05   0.000000e+00   0.000000e+00   0.000000e+00   1.177889e+06   0.000000e+00   0.000000e+00   0.000000e+00
     2496000   2.495999e-05   3.420666e+00   4.893588e+01   1.333853e+00   1.330395e+05   1.134115e+06  -2.889750e+05   0.000000e+00   0.000000e+00   0.000000e+00   1.177889e+06   0.000000e+00   0.000000e+00   0.000000e+00
     2504000   2.503999e-05   3.431309e+00   4.902661e+01   1.310735e+00   1.330395e+05   1.134115e+06  -2.889750e+05   0.000000e+00   0.000000e+00   0.000000e+00   1.177889e+06   0.000000e+00   0.000000e+00   0.000000e+00
     2512000   2.511999e-05   3.441952e+00   4.911734e+01   1.287617e+00   1.330395e+05   1.134115e+06  -2.889750e+05   0.000000e+00   0.000000e+00   0.000000e+00   1.177889e+06   0.000000e+00   0.000000e+00   0.000000e+00
     2520000   2.519999e-05   3.452595e+00   4.920807e+01   1.264499e+00   1.330395e+05   1.134115e+06  -2.889750e+05   0.000000e+00   0.000000e+00   0.000000e+00   1.177889e+06   0.000000e+00   0.000000e+00   0.000000e+00
     2528000   2.527999e-05   3.463238e+00   4.929880e+01   1.241381e+00   1.330395e+05   1.134115e+06  -2.889750e+05   0.000000e+00   0.000000e+00   0.000000e+00   1.177889e+06   0.000000e+00   0.000000e+00   0.000000e+00
     2536000   2.535999e-05   3.473881e+00   4.938952e+01   1.218263e+00   1.330395e+05   1.134115e+06  -2.889750e+05   0.000000e+00   0.000000e+00   0.000000e+00   1.177889e+06   0.000000e+00   0.000000e+00   0.000000e+00
     2544000   2.543999e-05   3.484524e+00   4.948025e+01   1.195145e+00   1.330395e+05   1.134115e+06  -2.889750e+05   0.000000e+00   0.000000e+00   0.000000e+00   1.177889e+06   0.000000e+00   0.000000e+00   0.000000e+00
     2552000   2.551999e-05   3.495168e+00   4.957098e+01   1.172027e+00   1.330395e+05   1.134115e+06  -2.889750e+05   0.000000e+00   0.000000e+00   0.000000e+00   1.177889e+06   0.000000e+00   0.000000e+00   0.000000e+00
     2560000   2.559999e-05   3.505811e+00   4.966171e+01   1.148909e+00   1.330395e+05   1.134115e+06  -2.889750e+05   0.000000e+00   0.000000e+00   0.000000e+00   1.177889e+06   0.000000e+00   0.000000e+00   0.000000e+00
     2568000   2.567999e-05   3.516454e+00   4.975244e+01   1.125791e+00   1.330395e+05   1.134115e+06  -2.889750e+05   0.000000e+00   0.000000e+00   0.000000e+00   1.177889e+06   0.000000e+00   0.000000e+00   0.000000e+00
     2576000   2.575999e-05   3.527097e+00   4.984317e+01   1.102673e+00   1.330395e+05   1.134115e+06  -2.889750e+05   0.000000e+00   0.000000e+00   0.000000e+00   1.177889e+06   0.000000e+00   0.000000e+00   0.000000e+00
     2584000   2.583999e-05   3.537740e+00   4.993390e+01   1.079555e+00   1.330395e+05   1.134115e+06  -2.889750e+05   0.000000e+00   0.000000e+00   0.000000e+00   1.177889e+06   0.000000e+00   0.000000e+00   0.000000e+00
