     timestep     time              x             y              z              vx             vy             vz             ax             ay             az         v_magnitude      ELoss        Electronic      Nuclear
           0   0.000000e+00   1.000000e-01   1.744943e+01   1.725691e+01   3.813649e+05   5.605066e+05   5.437752e+05   0.000000e+00   0.000000e+00   0.000000e+00   8.690790e+05   0.000000e+00   0.000000e+00   0.000000e+00
        8000   7.999000e-08   1.305092e-01   1.749427e+01   1.730042e+01   3.813649e+05   5.605066e+05   5.437752e+05   0.000000e+00   0.000000e+00   0.000000e+00   8.690790e+05   0.000000e+00   0.000000e+00   0.000000e+00
       16000   1.599900e-07   1.610184e-01   1.753911e+01   1.734392e+01   3.813649e+05   5.605066e+05   5.437752e+05   0.000000e+00   0.000000e+00   0.000000e+00   8.690790e+05   0.000000e+00   0.000000e+00   0.000000e+00
       24000   2.399900e-07   1.915276e-01   1.758395e+01   1.738742e+01   3.813649e+05   5.605066e+05   5.437752e+05   0.000000e+00   0.000000e+00   0.000000e+00   8.690790e+05   0.000000e+00   0.000000e+00   0.000000e+00
       32000   3.199900e-07   2.220368e-01   1.762879e+01   1.743092e+01   3.813649e+05   5.605066e+05   5.437752e+05   0.000000e+00   0.000000e+00   0.000000e+00   8.690790e+05   0.000000e+00   0.000000e+00   0.000000e+00
       40000   3.999900e-07   2.525460e-01   1.767363e+01   1.747442e+01   3.813649e+05   5.605066e+05   5.437752e+05   0.000000e+00   0.000000e+00   0.000000e+00   8.690790e+05   0.000000e+00   0.000000e+00   0.000000e+00
       48000   4.799900e-07   2.830552e-01   1.771848e+01   1.751793e+01   3.813649e+05   5.605066e+05   5.437752e+05   0.000000e+00   0.000000e+00   0.000000e+00   8.690790e+05   0.000000e+00   0.000000e+00   0.000000e+00
       56000   5.599900e-07   3.135644e-01   1.776332e+01   1.756143e+01   3.813649e+05   5.605066e+05   5.437752e+05   0.000000e+00   0.000000e+00   0.000000e+00   8.690790e+05   0.000000e+00   0.000000e+00   0.000000e+00
       64000   6.399900e-07   3.440736e-01   1.780816e+01   1.760493e+01   3.813649e+05   5.605066e+05   5.437752e+05   0.000000e+00   0.000000e+00   0.000000e+00   8.690790e+05   0.000000e+00   0.000000e+00   0.000000e+00
       72000   7.199900e-07   3.745828e-01   1.785300e+01   1.764843e+01   3.813649e+05   5.605066e+05   5.437752e+05   0.000000e+00   0.000000e+00   0.000000e+00   8.690790e+05   0.000000e+00   0.000000e+00   0.000000e+00
       80000   7.999900e-07   4.050920e-01   1.789784e+01   1.769193e+01   3.813649e+05   5.605066e+05   5.437752e+05   0.000000e+00   0.000000e+00   0.000000e+00   8.690790e+05   0.000000e+00   0.000000e+00   0.000000e+00
       88000   8.799900e-07   4.356012e-01   1.794268e+01   1.773544e+01   3.813649e+05   5.605066e+05   5.437752e+05   0.000000e+00   0.000000e+00   0.000000e+00   8.690790e+05   0.000000e+00   0.000000e+00   0.000000e+00
       96000   9.599900e-07   4.661103e-01   1.798752e+01   1.777894e+01   3.813649e+05   5.605066e+05   5.437752e+05   0.000000e+00   0.000000e+00   0.000000e+00   8.690790e+05   0.000000e+00   0.000000e+00   0.000000e+00
      104000   1.039990e-06   4.966195e-01   1.803236e+01   1.782244e+01   3.813649e+05   5.605066e+05   5.437752e+05   0.000000e+00   0.000000e+00   0.000000e+00   8.690790e+05   0.000000e+00   0.000000e+00   0.000000e+00
      112000   1.119990e-06   5.271287e-01   1.807720e+01   1.786594e+01   3.813649e+05   5.605066e+05   5.437752e+05   0.000000e+00   0.000000e+00   0.000000e+00   8.690790e+05   0.000000e+00   0.000000e+00   0.000000e+00
      120000   1.199990e-06   5.576379e-01   1.812204e+01   1.790944e+01   3.813649e+05   5.605066e+05   5.437752e+05   0.000000e+00   0.000000e+00   0.000000e+00   8.690790e+05   0.000000e+00   0.000000e+00   0.000000e+00
      128000   1.279990e-06   5.881471e-01   1.816688e+01   1.795295e+01   3.813649e+05   5.605066e+05   5.437752e+05   0.000000e+00   0.000000e+00   0.000000e+00   8.690790e+05   0.000000e+00   0.000000e+00   0.000000e+00
      136000   1.359990e-06   6.186563e-01   1.821172e+01   1.799645e+01   3.813649e+05   5.605066e+05   5.437752e+05   0.000000e+00   0.000000e+00   0.000000e+00   8.690790e+05   0.000000e+00   0.000000e+00   0.000000e+00
      144000   1.439990e-06   6.491655e-01   1.825656e+01   1.803995e+01   3.813649e+05   5.605066e+05   5.437752e+05   0.000000e+00   0.000000e+00   0.000000e+00   8.690790e+05   0.000000e+00   0.000000e+00   0.000000e+00
      152000   1.519990e-06   6.796747e-01   1.830140e+01   1.808345e+01   3.813649e+05   5.605066e+05   5.437752e+05   0.000000e+00   0.000000e+00   0.000000e+00   8.690790e+05   0.000000e+00   0.000000e+00   0.000000e+00
      160000   1.599990e-06   7.101839e-01   1.834624e+01   1.812695e+01   3.813649e+05   5.605066e+05   5.437752e+05   0.000000e+00   0.000000e+00   0.000000e+00   8.690790e+05   0.000000e+00   0.000000e+00   0.000000e+00
      168000   1.679990e-06   7.406931e-01   1.839108e+01   1.817046e+01   3.813649e+05   5.605066e+05   5.437752e+05   0.000000e+00   0.000000e+00   0.000000e+00   8.690790e+05   0.000000e+00   0.000000e+00   0.000000e+00
      176000   1.759990e-06   7.712023e-01   1.843592e+01   1.821396e+01   3.813649e+05   5.605066e+05   5.437752e+05   0.000000e+00   0.000000e+00   0.000000e+00   8.690790e+05   0.000000e+00   0.000000e+00   0.000000e+00
      184000   1.839990e-06   8.017115e-01   1.848076e+01   1.825746e+01   3.813649e+05   5.605066e+05   5.437752e+05   0.000000e+00   0.000000e+00   0.000000e+00   8.690790e+05   0.000000e+00   0.000000e+00   0.000000e+00
      192000   1.919990e-06   8.322207e-01   1.852560e+01   1.830096e+01   3.813649e+05   5.605066e+05   5.437752e+05   0.000000e+00   0.000000e+00   0.000000e+00   8.690790e+05   0.000000e+00   0.000000e+00   0.000000e+00
      200000   1.999990e-06   8.627299e-01   1.857045e+01   1.834446e+01   3.813649e+05   5.605066e+05   5.437752e+05   0.000000e+00   0.000000e+00   0.000000e+00   8.690790e+05   0.000000e+00   0.000000e+00   0.000000e+00
      208000   2.079990e-06   8.932391e-01   1.861529e+01   1.838797e+01   3.813649e+05   5.605066e+05   5.437752e+05   0.000000e+00   0.000000e+00   0.000000e+00   8.690790e+05   0.000000e+00   0.000000e+00   0.000000e+00
      216000   2.159990e-06   9.237483e-01   1.866013e+01   1.843147e+01   3.813649e+05   5.605066e+05   5.437752e+05   0.000000e+00   0.000000e+00   0.000000e+00   8.690790e+05   0.000000e+00   0.000000e+00   0.000000e+00
      224000   2.239990e-06   9.542575e-01   1.870497e+01   1.847497e+01   3.813649e+05   5.605066e+05   5.437752e+05   0.000000e+00   0.000000e+00   0.000000e+00   8.690790e+05   0.000000e+00   0.000000e+00   0.000000e+00
      232000   2.319990e-06   9.847667e-01   1.874981e+01   1.851847e+01   3.813649e+05   5.605066e+05   5.437752e+05   0.000000e+00   0.000000e+00   0.000000e+00   8.690790e+05   0.000000e+00   0.000000e+00   0.000000e+00
      240000   2.399990e-06   1.015276e+00   1.879465e+01   1.856197e+01   3.813649e+05   5.605066e+05   5.437752e+05   0.000000e+00   0.000000e+00   0.000000e+00   8.690790e+05   0.000000e+00   0.000000e+00   0.000000e+00
      248000   2.479990e-06   1.045785e+00   1.883949e+01   1.860548e+01   3.813649e+05   5.605066e+05   5.437752e+05   0.000000e+00   0.000000e+00   0.000000e+00   8.690790e+05   0.000000e+00   0.000000e+00   0.000000e+00
      256000   2.559990e-06   1.076294e+00   1.888433e+01   1.864898e+01   3.813649e+05   5.605066e+05   5.437752e+05   0.000000e+00   0.000000e+00   0.000000e+00   8.690790e+05   0.000000e+00   0.000000e+00   0.000000e+00
      264000   2.639990e-06   1.106803e+00   1.892917e+01   1.869248e+01   3.813649e+05   5.605066e+05   5.437752e+05   0.000000e+00   0.000000e+00   0.000000e+00   8.690790e+05   0.000000e+00   0.000000e+00   0.000000e+00
      272000   2.719990e-06   1.137313e+00   1.897401e+01   1.873598e+01   3.813649e+05   5.605066e+05   5.437752e+05   0.000000e+00   0.000000e+00   0.000000e+00   8.690790e+05   0.000000e+00   0.000000e+00   0.000000e+00
      280000   2.799990e-06   1.167822e+00   1.901885e+01   1.877948e+01   3.813649e+05   5.605066e+05   5.437752e+05   0.000000e+00   0.000000e+00   0.000000e+00   8.690790e+05   0.000000e+00   0.000000e+00   0.000000e+00
      288000   2.879990e-06   1.198331e+00   1.906369e+01   1.882299e+01   3.813649e+05   5.605066e+05   5.437752e+05   0.000000e+00   0.000000e+00   0.000000e+00   8.690790e+05   0.000000e+00   0.000000e+00   0.000000e+00
      296000   2.959990e-06   1.228840e+00   1.910853e+01   1.886649e+01   3.813649e+05   5.605066e+05   5.437752e+05   0.000000e+00   0.000000e+00   0.000000e+00   8.690790e+05   0.000000e+00   0.000000e+00   0.000000e+00
      304000   3.039990e-06   1.259349e+00   1.915337e+01   1.890999e+01   3.813649e+05   5.605066e+05   5.437752e+05   0.000000e+00   0.000000e+00   0.000000e+00   8.690790e+05   0.000000e+00   0.000000e+00   0.000000e+00
      312000   3.119990e-06   1.289859e+00   1.919821e+01   1.895349e+01   3.813649e+05   5.605066e+05   5.437752e+05   0.000000e+00   0.000000e+00   0.000000e+00   8.690790e+05   0.000000e+00   0.000000e+00   0.000000e+00
      320000   3.199990e-06   1.320368e+00   1.924305e+01   1.899699e+01   3.813649e+05   5.605066e+05   5.437752e+05   0.000000e+00   0.000000e+00   0.000000e+00   8.690790e+05   0.000000e+00   0.000000e+00   0.000000e+00
      328000   3.279990e-06   1.350877e+00   1.928789e+01   1.904050e+01   3.813649e+05   5.605066e+05   5.437752e+05   0.000000e+00   0.000000e+00   0.000000e+00   8.690790e+05   0.000000e+00   0.000000e+00   0.000000e+00
      336000   3.359990e-06   1.381386e+00   1.933273e+01   1.908400e+01   3.813649e+05   5.605066e+05   5.437752e+05   0.000000e+00   0.000000e+00   0.000000e+00   8.690790e+05   0.000000e+00   0.000000e+00   0.000000e+00
      344000   3.439990e-06   1.411895e+00   1.937757e+01   1.912750e+01   3.813649e+05   5.605066e+05   5.437752e+05   0.000000e+00   0.000000e+00   0.000000e+00   8.690790e+05   0.000000e+00   0.000000e+00   0.000000e+00
      352000   3.519990e-06   1.442405e+00   1.942242e+01   1.917100e+01   3.813649e+05   5.605066e+05   5.437752e+05   0.000000e+00   0.000000e+00   0.000000e+00   8.690790e+05   0.000000e+00   0.000000e+00   0.000000e+00
      360000   3.599990e-06   1.472914e+00   1.946726e+01   1.921450e+01   3.813649e+05   5.605066e+05   5.437752e+05   0.000000e+00   0.000000e+00   0.000000e+00   8.690790e+05   0.000000e+00   0.000000e+00   0.000000e+00
      368000   3.679990e-06   1.503423e+00   1.951210e+01   1.925801e+01   3.813649e+05   5.605066e+05   5.437752e+05   0.000000e+00   0.000000e+00   0.000000e+00   8.690790e+05   0.000000e+00   0.000000e+00   0.000000e+00
      376000   3.759990e-06   1.533932e+00   1.955694e+01   1.930151e+01   3.813649e+05   5.605066e+05   5.437752e+05   0.000000e+00   0.000000e+00   0.000000e+00   8.690790e+05   0.000000e+00   0.000000e+00   0.000000e+00
      384000   3.839990e-06   1.564441e+00   1.960178e+01   1.934501e+01   3.813649e+05   5.605066e+05   5.437752e+05   0.000000e+00   0.000000e+00   0.000000e+00   8.690790e+05   0.000000e+00   0.000000e+00   0.000000e+00
      392000   3.919990e-06   1.594951e+00   1.964662e+01   1.938851e+01   3.813649e+05   5.605066e+05   5.437752e+05   0.000000e+00   0.000000e+00   0.000000e+00   8.690790e+05   0.000000e+00   0.000000e+00   0.000000e+00
      400000   3.999990e-06   1.625460e+00   1.969146e+01   1.943201e+01   3.813649e+05   5.605066e+05   5.437752e+05   0.000000e+00   0.000000e+00   0.000000e+00   8.690790e+05   0.000000e+00   0.000000e+00   0.000000e+00
      408000   4.079990e-06   1.655969e+00   1.973630e+01   1.947552e+01   3.813649e+05   5.605066e+05   5.437752e+05   0.000000e+00   0.000000e+00   0.000000e+00   8.690790e+05   0.000000e+00   0.000000e+00   0.000000e+00
      416000   4.159990e-06   1.686478e+00   1.978114e+01   1.951902e+01   3.813649e+05   5.605066e+05   5.437751e+05  -5.768705e+05   2.584823e+06  -2.259781e+06   8.690790e+05   2.203862e-29   0.000000e+00   0.000000e+00
      424000   4.239990e-06   1.716987e+00   1.982598e+01   1.956252e+01   3.813648e+05   5.605071e+05   5.437748e+05  -1.879056e+06   8.547863e+06  -7.493050e+06   8.690790e+05   2.414570e-28   0.000000e+00   0.000000e+00
      432000   4.319990e-06   1.747497e+00   1.987082e+01   1.960602e+01   3.813647e+05   5.605078e+05   5.437741e+05   1.851807e+05  -8.423907e+05   7.384412e+05   8.690790e+05   2.346651e-30   0.000000e+00   0.000000e+00
      440000   4.399990e-06   1.778006e+00   1.991566e+01   1.964952e+01   3.813644e+05   5.605092e+05   5.437728e+05  -1.303624e+07   6.048466e+07  -5.320357e+07   8.690790e+05   1.211205e-26   0.000000e+00   0.000000e+00
      448000   4.479990e-06   1.808515e+00   1.996050e+01   1.969303e+01   3.813632e+05   5.605145e+05   5.437682e+05  -6.512765e+06   3.008898e+07  -2.644799e+07   8.690790e+05   2.996820e-27   0.000000e+00   0.000000e+00
      456000   4.559990e-06   1.839024e+00   2.000534e+01   1.973653e+01   3.813616e+05   5.605221e+05   5.437615e+05  -1.758213e+07   8.286172e+07  -7.308477e+07   8.690790e+05   2.277344e-26   0.000000e+00   0.000000e+00
      464000   4.639990e-06   1.869533e+00   2.005019e+01   1.978003e+01   3.813604e+05   5.605276e+05   5.437566e+05  -1.138651e+07   5.397966e+07  -4.765868e+07   8.690790e+05   9.670536e-27   0.000000e+00   0.000000e+00
      472000   4.719990e-06   1.900041e+00   2.009503e+01   1.982353e+01   3.813593e+05   5.605333e+05   5.437516e+05  -2.483393e+07   1.190160e+08  -1.052719e+08   8.690790e+05   4.705408e-26   0.000000e+00   0.000000e+00
      480000   4.799990e-06   1.930550e+00   2.013987e+01   1.986703e+01   3.813579e+05   5.605397e+05   5.437460e+05  -1.059664e+07   5.156022e+07  -4.572068e+07   8.690790e+05   8.846110e-27   0.000000e+00   0.000000e+00
      488000   4.879990e-06   1.961059e+00   2.018471e+01   1.991053e+01   3.813571e+05   5.605436e+05   5.437425e+05  -2.208396e+07   1.070856e+08  -9.490576e+07   8.690790e+05   3.813388e-26   0.000000e+00   0.000000e+00
      496000   4.959990e-06   1.991567e+00   2.022956e+01   1.995403e+01   3.813565e+05   5.605465e+05   5.437399e+05   5.779910e+06  -2.821839e+07   2.503681e+07   8.690790e+05   2.648020e-27   0.000000e+00   0.000000e+00
      504000   5.039990e-06   2.022076e+00   2.027440e+01   1.999753e+01   3.813562e+05   5.605482e+05   5.437384e+05  -1.096209e+07   5.467508e+07  -4.867700e+07   8.690790e+05   9.966586e-27   0.000000e+00   0.000000e+00
      512000   5.119990e-06   2.052584e+00   2.031925e+01   2.004102e+01   3.813561e+05   5.605485e+05   5.437382e+05  -3.121812e+01   2.356459e+01  -2.397980e+00   8.690790e+05   2.793865e-39   0.000000e+00   0.000000e+00
      520000   5.199990e-06   2.083093e+00   2.036409e+01   2.008452e+01   3.813561e+05   5.605485e+05   5.437382e+05  -2.759268e+01   1.733355e+01   1.482964e+00   8.690790e+05   1.935843e-39   0.000000e+00   0.000000e+00
      528000   5.279990e-06   2.113601e+00   2.040893e+01   2.012802e+01   3.813561e+05   5.605485e+05   5.437382e+05  -3.688961e+01   2.497341e+01   1.274035e-01   8.690790e+05   3.610441e-39   0.000000e+00   0.000000e+00
      536000   5.359990e-06   2.144110e+00   2.045378e+01   2.017152e+01   3.813561e+05   5.605485e+05   5.437382e+05  -3.794386e+01   2.539878e+01   4.282863e-01   8.690790e+05   3.793257e-39   0.000000e+00   0.000000e+00
      544000   5.439990e-06   2.174618e+00   2.049862e+01   2.021502e+01   3.813561e+05   5.605485e+05   5.437382e+05  -4.276759e+01   2.909594e+01  -2.310704e-20   8.690790e+05   4.867718e-39   0.000000e+00   0.000000e+00
      552000   5.519990e-06   2.205127e+00   2.054346e+01   2.025852e+01   3.813561e+05   5.605485e+05   5.437382e+05  -3.825807e+01   2.602799e+01   5.817814e-21   8.690790e+05   3.895289e-39   0.000000e+00   0.000000e+00
      560000   5.599990e-06   2.235635e+00   2.058831e+01   2.030202e+01   3.813561e+05   5.605485e+05   5.437382e+05  -2.854187e+01   1.941780e+01  -7.436662e-21   8.690790e+05   2.168188e-39   0.000000e+00   0.000000e+00
      568000   5.679990e-06   2.266144e+00   2.063315e+01   2.034552e+01   3.813561e+05   5.605485e+05   5.437382e+05  -4.154540e+01   2.826445e+01   5.226124e-21   8.690790e+05   4.593367e-39   0.000000e+00   0.000000e+00
      576000   5.759990e-06   2.296652e+00   2.067800e+01   2.038902e+01   3.813561e+05   5.605485e+05   5.437382e+05  -4.845775e+01   3.296710e+01  -1.436066e-20   8.690790e+05   6.249053e-39   0.000000e+00   0.000000e+00
      584000   5.839990e-06   2.327161e+00   2.072284e+01   2.043252e+01   3.813561e+05   5.605485e+05   5.437382e+05  -3.622187e+01   2.464271e+01  -8.818050e-21   8.690790e+05   3.491548e-39   0.000000e+00   0.000000e+00
      592000   5.919990e-06   2.357669e+00   2.076768e+01   2.047601e+01   3.813561e+05   5.605485e+05   5.437382e+05  -4.519179e+01   3.074519e+01  -5.270168e-21   8.690790e+05   5.435016e-39   0.000000e+00   0.000000e+00
      600000   5.999990e-06   2.388178e+00   2.081253e+01   2.051951e+01   3.813561e+05   5.605485e+05   5.437382e+05  -3.175455e+01   2.160347e+01  -7.153181e-21   8.690790e+05   2.683557e-39   0.000000e+00   0.000000e+00
      608000   6.079990e-06   2.418686e+00   2.085737e+01   2.056301e+01   3.813561e+05   5.605485e+05   5.437382e+05  -3.354664e+01   2.282268e+01   1.322378e-21   8.690790e+05   2.994936e-39   0.000000e+00   0.000000e+00
      616000   6.159990e-06   2.449195e+00   2.090222e+01   2.060651e+01   3.813561e+05   5.605485e+05   5.437382e+05  -3.164565e+01   2.152938e+01  -6.844358e-21   8.690790e+05   2.665049e-39   0.000000e+00   0.000000e+00
      624000   6.239990e-06   2.479703e+00   2.094706e+01   2.065001e+01   3.813561e+05   5.605485e+05   5.437382e+05  -3.928171e+01   2.672440e+01  -4.684698e-21   8.690790e+05   4.106416e-39   0.000000e+00   0.000000e+00
      632000   6.319990e-06   2.510212e+00   2.099190e+01   2.069351e+01   3.813561e+05   5.605485e+05   5.437382e+05  -4.997456e+01   3.399903e+01  -1.576768e-21   8.690790e+05   6.646462e-39   0.000000e+00   0.000000e+00
      640000   6.399990e-06   2.540720e+00   2.103675e+01   2.073701e+01   3.813561e+05   5.605485e+05   5.437382e+05  -4.006137e+01   2.725483e+01  -3.417680e-20   8.690790e+05   4.271318e-39   0.000000e+00   0.000000e+00
      648000   6.479990e-06   2.571229e+00   2.108159e+01   2.078051e+01   3.813561e+05   5.605485e+05   5.437382e+05  -3.749781e+01   2.551077e+01  -2.904149e-20   8.690790e+05   3.742162e-39   0.000000e+00   0.000000e+00
      656000   6.559990e-06   2.601737e+00   2.112644e+01   2.082401e+01   3.813561e+05   5.605485e+05   5.437382e+05  -3.791539e+01   2.579486e+01  -5.901239e-21   8.690790e+05   3.825853e-39   0.000000e+00   0.000000e+00
      664000   6.639990e-06   2.632246e+00   2.117128e+01   2.086751e+01   3.813561e+05   5.605485e+05   5.437382e+05  -4.003493e+01   2.723684e+01  -4.686083e-21   8.690790e+05   4.265556e-39   0.000000e+00   0.000000e+00
      672000   6.719990e-06   2.662754e+00   2.121612e+01   2.091101e+01   3.813561e+05   5.605485e+05   5.437382e+05  -4.088532e+01   2.781538e+01  -4.612860e-21   8.690790e+05   4.448761e-39   0.000000e+00   0.000000e+00
      680000   6.799990e-06   2.693263e+00   2.126097e+01   2.095450e+01   3.813561e+05   5.605485e+05   5.437382e+05  -4.046948e+01   2.753247e+01   2.274354e-20   8.690790e+05   4.358727e-39   0.000000e+00   0.000000e+00
      688000   6.879990e-06   2.723771e+00   2.130581e+01   2.099800e+01   3.813561e+05   5.605485e+05   5.437382e+05  -4.417936e+01   3.005640e+01   4.014613e-21   8.690790e+05   5.194231e-39   0.000000e+00   0.000000e+00
      696000   6.959990e-06   2.754280e+00   2.135065e+01   2.104150e+01   3.813561e+05   5.605485e+05   5.437382e+05  -3.647126e+01   2.481237e+01   5.019967e-21   8.690790e+05   3.540139e-39   0.000000e+00   0.000000e+00
      704000   7.039990e-06   2.784788e+00   2.139550e+01   2.108500e+01   3.813561e+05   5.605485e+05   5.437382e+05  -3.120864e+01   2.123207e+01  -1.593469e-21   8.690790e+05   2.592216e-39   0.000000e+00   0.000000e+00
      712000   7.119990e-06   2.815297e+00   2.144034e+01   2.112850e+01   3.813561e+05   5.605485e+05   5.437382e+05  -4.253931e+01   2.894063e+01   1.152700e-20   8.690790e+05   4.815811e-39   0.000000e+00   0.000000e+00
      720000   7.199990e-06   2.845805e+00   2.148519e+01   2.117200e+01   3.813561e+05   5.605485e+05   5.437382e+05  -4.829645e+01   3.285737e+01   2.740077e-20   8.690790e+05   6.207558e-39   0.000000e+00   0.000000e+00
      728000   7.279990e-06   2.876314e+00   2.153003e+01   2.121550e+01   3.813561e+05   5.605485e+05   5.437382e+05  -3.353561e+01   2.281518e+01  -2.372958e-20   8.690790e+05   2.993093e-39   0.000000e+00   0.000000e+00
      736000   7.359990e-06   2.906822e+00   2.157487e+01   2.125900e+01   3.813561e+05   5.605485e+05   5.437382e+05  -5.384997e+01   3.663558e+01  -1.070935e-20   8.690790e+05   7.716773e-39   0.000000e+00   0.000000e+00
      744000   7.439990e-06   2.937331e+00   2.161972e+01   2.130250e+01   3.813561e+05   5.605485e+05   5.437382e+05  -4.417850e+01   3.005582e+01  -2.107486e-21   8.690790e+05   5.193942e-39   0.000000e+00   0.000000e+00
      752000   7.519990e-06   2.967839e+00   2.166456e+01   2.134600e+01   3.813561e+05   5.605485e+05   5.437382e+05  -5.559265e+01   3.782117e+01   1.415206e-20   8.690790e+05   8.224619e-39   0.000000e+00   0.000000e+00
      760000   7.599990e-06   2.998348e+00   2.170941e+01   2.138950e+01   3.813561e+05   5.605485e+05   5.437382e+05  -2.944473e+01   2.003204e+01   1.559135e-21   8.690790e+05   2.307467e-39   0.000000e+00   0.000000e+00
      768000   7.679990e-06   3.028856e+00   2.175425e+01   2.143299e+01   3.813561e+05   5.605485e+05   5.437382e+05  -4.413327e+01   3.002505e+01   3.050130e-21   8.690790e+05   5.183436e-39   0.000000e+00   0.000000e+00
      776000   7.759990e-06   3.059365e+00   2.179909e+01   2.147649e+01   3.813561e+05   5.605485e+05   5.437382e+05  -5.138109e+01   3.495593e+01  -3.216803e-21   8.690790e+05   7.025781e-39   0.000000e+00   0.000000e+00
      784000   7.839990e-06   3.089873e+00   2.184394e+01   2.151999e+01   3.813561e+05   5.605485e+05   5.437382e+05  -4.623439e+01   3.145449e+01  -1.559027e-20   8.690790e+05   5.689075e-39   0.000000e+00   0.000000e+00
      792000   7.919990e-06   3.120381e+00   2.188878e+01   2.156349e+01   3.813561e+05   5.605485e+05   5.437382e+05  -4.526783e+01   3.079692e+01   1.400085e-20   8.690790e+05   5.453699e-39   0.000000e+00   0.000000e+00
      800000   7.999990e-06   3.150890e+00   2.193363e+01   2.160699e+01   3.813561e+05   5.605485e+05   5.437382e+05  -4.732440e+01   3.219606e+01  -1.815728e-20   8.690790e+05   5.960192e-39   0.000000e+00   0.000000e+00
      808000   8.079990e-06   3.181398e+00   2.197847e+01   2.165049e+01   3.813561e+05   5.605485e+05   5.437382e+05  -5.308576e+01   3.611566e+01   1.208678e-20   8.690790e+05   7.499763e-39   0.000000e+00   0.000000e+00
      816000   8.159990e-06   3.211907e+00   2.202331e+01   2.169399e+01   3.813561e+05   5.605485e+05   5.437382e+05  -4.552105e+01   3.096919e+01  -1.253071e-20   8.690790e+05   5.515223e-39   0.000000e+00   0.000000e+00
      824000   8.239990e-06   3.242415e+00   2.206816e+01   2.173749e+01   3.813561e+05   5.605485e+05   5.437382e+05  -5.243933e+01   3.567588e+01  -6.984267e-21   8.690790e+05   7.318382e-39   0.000000e+00   0.000000e+00
      832000   8.319990e-06   3.272924e+00   2.211300e+01   2.178099e+01   3.813561e+05   5.605485e+05   5.437382e+05  -3.042033e+01   2.069576e+01  -1.819963e-20   8.690790e+05   2.463043e-39   0.000000e+00   0.000000e+00
      840000   8.399990e-06   3.303432e+00   2.215784e+01   2.182449e+01   3.813561e+05   5.605485e+05   5.437382e+05  -4.853299e+01   3.301829e+01   1.087697e-20   8.690790e+05   6.268716e-39   0.000000e+00   0.000000e+00
      848000   8.479990e-06   3.333941e+00   2.220269e+01   2.186798e+01   3.813561e+05   5.605485e+05   5.437382e+05  -4.419009e+01   3.006370e+01  -1.428295e-20   8.690790e+05   5.197094e-39   0.000000e+00   0.000000e+00
      856000   8.559990e-06   3.364449e+00   2.224753e+01   2.191148e+01   3.813561e+05   5.605485e+05   5.437382e+05  -5.886190e+01   4.004533e+01  -8.828163e-21   8.690790e+05   9.220319e-39   0.000000e+00   0.000000e+00
      864000   8.639990e-06   3.394958e+00   2.229238e+01   2.195498e+01   3.813561e+05   5.605485e+05   5.437382e+05  -7.288349e+01   4.958459e+01   1.275620e-20   8.690790e+05   1.413646e-38   0.000000e+00   0.000000e+00
      872000   8.719990e-06   3.425466e+00   2.233722e+01   2.199848e+01   3.813561e+05   5.605485e+05   5.437382e+05  -5.977548e+01   4.066686e+01  -4.566963e-20   8.690790e+05   9.508340e-39   0.000000e+00   0.000000e+00
      880000   8.799990e-06   3.455975e+00   2.238206e+01   2.204198e+01   3.813561e+05   5.605485e+05   5.437382e+05  -5.383989e+01   3.662872e+01   2.509353e-20   8.690790e+05   7.714489e-39   0.000000e+00   0.000000e+00
      888000   8.879990e-06   3.486483e+00   2.242691e+01   2.208548e+01   3.813561e+05   5.605485e+05   5.437382e+05  -3.773817e+01   2.567429e+01   1.207805e-20   8.690790e+05   3.790528e-39   0.000000e+00   0.000000e+00
      896000   8.959990e-06   3.516992e+00   2.247175e+01   2.212898e+01   3.813561e+05   5.605485e+05   5.437382e+05  -5.418175e+01   3.686130e+01  -3.328466e-20   8.690790e+05   7.812669e-39   0.000000e+00   0.000000e+00
      904000   9.039990e-06   3.547500e+00   2.251660e+01   2.217248e+01   3.813561e+05   5.605485e+05   5.437382e+05  -5.482394e+01   3.729819e+01  -1.770053e-20   8.690790e+05   7.999324e-39   0.000000e+00   0.000000e+00
      912000   9.119990e-06   3.578009e+00   2.256144e+01   2.221598e+01   3.813561e+05   5.605485e+05   5.437382e+05  -7.403406e+01   5.036736e+01   1.486985e-20   8.690790e+05   1.458620e-38   0.000000e+00   0.000000e+00
      920000   9.199990e-06   3.608517e+00   2.260628e+01   2.225948e+01   3.813561e+05   5.605485e+05   5.437382e+05  -4.312192e+01   2.933700e+01   5.361231e-20   8.690790e+05   4.948674e-39   0.000000e+00   0.000000e+00
      928000   9.279990e-06   3.639026e+00   2.265113e+01   2.230298e+01   3.813561e+05   5.605485e+05   5.437382e+05  -6.231744e+01   4.239623e+01  -3.882907e-20   8.690790e+05   1.033442e-38   0.000000e+00   0.000000e+00
      936000   9.359990e-06   3.669534e+00   2.269597e+01   2.234647e+01   3.813561e+05   5.605485e+05   5.437382e+05  -8.321015e+01   5.661009e+01   4.068187e-20   8.690790e+05   1.842589e-38   0.000000e+00   0.000000e+00
      944000   9.439990e-06   3.700043e+00   2.274081e+01   2.238997e+01   3.813561e+05   5.605485e+05   5.437382e+05  -6.511403e+01   4.429882e+01  -3.307155e-20   8.690790e+05   1.128364e-38   0.000000e+00   0.000000e+00
      952000   9.519990e-06   3.730551e+00   2.278566e+01   2.243347e+01   3.813561e+05   5.605485e+05   5.437382e+05  -3.836832e+01   2.610299e+01   2.298135e-20   8.690790e+05   3.918414e-39   0.000000e+00   0.000000e+00
      960000   9.599990e-06   3.761060e+00   2.283050e+01   2.247697e+01   3.813561e+05   5.605485e+05   5.437382e+05  -6.998728e+01   4.761422e+01  -8.907906e-21   8.690790e+05   1.303513e-38   0.000000e+00   0.000000e+00
      968000   9.679990e-06   3.791568e+00   2.287535e+01   2.252047e+01   3.813561e+05   5.605485e+05   5.437382e+05  -7.903601e+01   5.377031e+01  -6.444754e-20   8.690790e+05   1.662418e-38   0.000000e+00   0.000000e+00
      976000   9.759990e-06   3.822077e+00   2.292019e+01   2.256397e+01   3.813561e+05   5.605485e+05   5.437382e+05  -5.989519e+01   4.074831e+01  -7.109692e-20   8.690790e+05   9.547216e-39   0.000000e+00   0.000000e+00
      984000   9.839990e-06   3.852585e+00   2.296503e+01   2.260747e+01   3.813561e+05   5.605485e+05   5.437382e+05  -4.669347e+01   3.176682e+01  -4.476242e-20   8.690790e+05   5.802961e-39   0.000000e+00   0.000000e+00
      992000   9.919990e-06   3.883094e+00   2.300988e+01   2.265097e+01   3.813561e+05   5.605485e+05   5.437382e+05  -6.552323e+01   4.457721e+01  -2.929870e-21   8.690790e+05   1.142507e-38   0.000000e+00   0.000000e+00
     1000000   9.999990e-06   3.913602e+00   2.305472e+01   2.269447e+01   3.813561e+05   5.605485e+05   5.437382e+05  -6.213043e+01   4.226900e+01   8.209451e-22   8.690790e+05   1.027331e-38   0.000000e+00   0.000000e+00
     1008000   1.007999e-05   3.944111e+00   2.309957e+01   2.273797e+01   3.813561e+05   5.605485e+05   5.437382e+05  -4.378301e+01   2.978675e+01  -2.896149e-21   8.690790e+05   5.102041e-39   0.000000e+00   0.000000e+00
     1016000   1.015999e-05   3.974619e+00   2.314441e+01   2.278146e+01   3.813561e+05   5.605485e+05   5.437382e+05  -6.665086e+01   4.534437e+01   1.341415e-20   8.690790e+05   1.182213e-38   0.000000e+00   0.000000e+00
     1024000   1.023999e-05   4.005128e+00   2.318925e+01   2.282496e+01   3.813561e+05   5.605485e+05   5.437382e+05  -7.037962e+01   4.788114e+01   3.881276e-21   8.690790e+05   1.318213e-38   0.000000e+00   0.000000e+00
     1032000   1.031999e-05   4.035636e+00   2.323410e+01   2.286846e+01   3.813561e+05   5.605485e+05   5.437382e+05  -7.251312e+01   4.933262e+01   9.345384e-21   8.690790e+05   1.399394e-38   0.000000e+00   0.000000e+00
     1040000   1.039999e-05   4.066145e+00   2.327894e+01   2.291196e+01   3.813561e+05   5.605485e+05   5.437382e+05  -4.815558e+01   3.276153e+01  -8.948706e-21   8.690790e+05   6.172284e-39   0.000000e+00   0.000000e+00
     1048000   1.047999e-05   4.096653e+00   2.332379e+01   2.295546e+01   3.813561e+05   5.605485e+05   5.437382e+05  -5.422755e+01   3.689245e+01  -5.136091e-20   8.690790e+05   7.826002e-39   0.000000e+00   0.000000e+00
     1056000   1.055999e-05   4.127162e+00   2.336863e+01   2.299896e+01   3.813561e+05   5.605485e+05   5.437382e+05  -7.677895e+01   5.223478e+01  -9.046677e-21   8.690790e+05   1.568792e-38   0.000000e+00   0.000000e+00
     1064000   1.063999e-05   4.157670e+00   2.341347e+01   2.304246e+01   3.813561e+05   5.605485e+05   5.437382e+05  -7.061388e+01   4.804052e+01   1.304944e-20   8.690790e+05   1.327061e-38   0.000000e+00   0.000000e+00
     1072000   1.071999e-05   4.188179e+00   2.345832e+01   2.308596e+01   3.813561e+05   5.605485e+05   5.437382e+05  -6.585216e+01   4.480099e+01  -2.521376e-20   8.690790e+05   1.154121e-38   0.000000e+00   0.000000e+00
     1080000   1.079999e-05   4.218687e+00   2.350316e+01   2.312946e+01   3.813561e+05   5.605485e+05   5.437382e+05  -5.504856e+01   3.745101e+01   9.208893e-21   8.690790e+05   8.064753e-39   0.000000e+00   0.000000e+00
     1088000   1.087999e-05   4.249196e+00   2.354800e+01   2.317296e+01   3.813561e+05   5.605485e+05   5.437382e+05  -5.713491e+01   3.887041e+01   5.468804e-21   8.690790e+05   8.687651e-39   0.000000e+00   0.000000e+00
     1096000   1.095999e-05   4.279704e+00   2.359285e+01   2.321646e+01   3.813561e+05   5.605485e+05   5.437382e+05  -9.605522e+01   6.534894e+01  -3.158154e-20   8.690790e+05   2.455347e-38   0.000000e+00   0.000000e+00
     1104000   1.103999e-05   4.310213e+00   2.363769e+01   2.325995e+01   3.813561e+05   5.605485e+05   5.437382e+05  -6.365586e+01   4.330679e+01   2.402578e-20   8.690790e+05   1.078521e-38   0.000000e+00   0.000000e+00
     1112000   1.111999e-05   4.340721e+00   2.368254e+01   2.330345e+01   3.813561e+05   5.605485e+05   5.437382e+05  -7.188707e+01   4.890670e+01   3.109119e-20   8.690790e+05   1.375250e-38   0.000000e+00   0.000000e+00
     1120000   1.119999e-05   4.371230e+00   2.372738e+01   2.334695e+01   3.813561e+05   5.605485e+05   5.437382e+05  -6.299862e+01   4.285965e+01  -7.573172e-21   8.690790e+05   1.056272e-38   0.000000e+00   0.000000e+00
     1128000   1.127999e-05   4.401738e+00   2.377222e+01   2.339045e+01   3.813561e+05   5.605485e+05   5.437382e+05  -6.465315e+01   4.398527e+01   2.222903e-20   8.690790e+05   1.112440e-38   0.000000e+00   0.000000e+00
     1136000   1.135999e-05   4.432247e+00   2.381707e+01   2.343395e+01   3.813561e+05   5.605485e+05   5.437382e+05  -6.901900e+01   4.695547e+01  -2.215031e-20   8.690790e+05   1.267720e-38   0.000000e+00   0.000000e+00
     1144000   1.143999e-05   4.462755e+00   2.386191e+01   2.347745e+01   3.813561e+05   5.605485e+05   5.437382e+05  -7.987585e+01   5.434168e+01   5.458535e-20   8.690790e+05   1.697929e-38   0.000000e+00   0.000000e+00
     1152000   1.151999e-05   4.493264e+00   2.390676e+01   2.352095e+01   3.813561e+05   5.605485e+05   5.437382e+05  -7.323119e+01   4.982114e+01  -3.891576e-20   8.690790e+05   1.427227e-38   0.000000e+00   0.000000e+00
     1160000   1.159999e-05   4.523772e+00   2.395160e+01   2.356445e+01   3.813561e+05   5.605485e+05   5.437382e+05  -6.673739e+01   4.540324e+01  -9.715638e-21   8.690790e+05   1.185350e-38   0.000000e+00   0.000000e+00
     1168000   1.167999e-05   4.554281e+00   2.399644e+01   2.360795e+01   3.813561e+05   5.605485e+05   5.437382e+05  -6.920874e+01   4.708456e+01   2.302793e-20   8.690790e+05   1.274736e-38   0.000000e+00   0.000000e+00
     1176000   1.175999e-05   4.584789e+00   2.404129e+01   2.365145e+01   3.813561e+05   5.605485e+05   5.437382e+05  -7.961772e+01   5.416607e+01  -3.651191e-20   8.690790e+05   1.686984e-38   0.000000e+00   0.000000e+00
     1184000   1.183999e-05   4.615298e+00   2.408613e+01   2.369494e+01   3.813561e+05   5.605485e+05   5.437382e+05  -7.708568e+01   5.244346e+01   3.231977e-21   8.690790e+05   1.581442e-38   0.000000e+00   0.000000e+00
     1192000   1.191999e-05   4.645806e+00   2.413097e+01   2.373844e+01   3.813561e+05   5.605485e+05   5.437382e+05  -5.996327e+01   4.079462e+01   1.550916e-20   8.690790e+05   9.569787e-39   0.000000e+00   0.000000e+00
     1200000   1.199999e-05   4.676315e+00   2.417582e+01   2.378194e+01   3.813561e+05   5.605485e+05   5.437382e+05  -4.432558e+01   3.015588e+01  -9.493760e-21   8.690790e+05   5.229383e-39   0.000000e+00   0.000000e+00
     1208000   1.207999e-05   4.706823e+00   2.422066e+01   2.382544e+01   3.813561e+05   5.605485e+05   5.437382e+05  -7.523103e+01   5.118169e+01   3.708101e-20   8.690790e+05   1.506226e-38   0.000000e+00   0.000000e+00
     1216000   1.215999e-05   4.737332e+00   2.426551e+01   2.386894e+01   3.813561e+05   5.605485e+05   5.437382e+05  -8.028903e+01   5.462278e+01  -2.850918e-20   8.690790e+05   1.715572e-38   0.000000e+00   0.000000e+00
     1224000   1.223999e-05   4.767840e+00   2.431035e+01   2.391244e+01   3.813561e+05   5.605485e+05   5.437382e+05  -7.101420e+01   4.831286e+01  -1.213550e-20   8.690790e+05   1.342117e-38   0.000000e+00   0.000000e+00
     1232000   1.231999e-05   4.798349e+00   2.435519e+01   2.395594e+01   3.813561e+05   5.605485e+05   5.437382e+05  -7.307640e+01   4.971584e+01  -1.041317e-20   8.690790e+05   1.421198e-38   0.000000e+00   0.000000e+00
     1240000   1.239999e-05   4.828857e+00   2.440004e+01   2.399944e+01   3.813561e+05   5.605485e+05   5.437382e+05  -7.569711e+01   5.149877e+01  -7.177980e-20   8.690790e+05   1.524909e-38   0.000000e+00   0.000000e+00
     1248000   1.247999e-05   4.859365e+00   2.444488e+01   2.404294e+01   3.813561e+05   5.605485e+05   5.437382e+05  -7.879925e+01   5.360924e+01   3.699758e-20   8.690790e+05   1.652503e-38   0.000000e+00   0.000000e+00
     1256000   1.255999e-05   4.889874e+00   2.448973e+01   2.408644e+01   3.813561e+05   5.605485e+05   5.437382e+05  -8.249661e+01   5.612466e+01   1.256881e-20   8.690790e+05   1.811218e-38   0.000000e+00   0.000000e+00
     1264000   1.263999e-05   4.920382e+00   2.453457e+01   2.412994e+01   3.813561e+05   5.605485e+05   5.437382e+05  -7.097366e+01   4.828529e+01  -1.274649e-20   8.690790e+05   1.340578e-38   0.000000e+00   0.000000e+00
     1272000   1.271999e-05   4.950891e+00   2.457941e+01   2.417343e+01   3.813561e+05   5.605485e+05   5.437382e+05  -7.474892e+01   5.085369e+01   3.357650e-20   8.690790e+05   1.486989e-38   0.000000e+00   0.000000e+00
     1280000   1.279999e-05   4.981399e+00   2.462426e+01   2.421693e+01   3.813561e+05   5.605485e+05   5.437382e+05  -6.988860e+01   4.754709e+01  -1.104809e-20   8.690790e+05   1.299948e-38   0.000000e+00   0.000000e+00
     1288000   1.287999e-05   5.011908e+00   2.466910e+01   2.426043e+01   3.813561e+05   5.605485e+05   5.437382e+05  -9.352625e+01   6.362842e+01  -1.426746e-20   8.690790e+05   2.327834e-38   0.000000e+00   0.000000e+00
     1296000   1.295999e-05   5.042416e+00   2.471395e+01   2.430393e+01   3.813561e+05   5.605485e+05   5.437382e+05  -7.441187e+01   5.062439e+01  -2.816518e-20   8.690790e+05   1.473693e-38   0.000000e+00   0.000000e+00
     1304000   1.303999e-05   5.072925e+00   2.475879e+01   2.434743e+01   3.813561e+05   5.605485e+05   5.437382e+05  -6.126510e+01   4.168029e+01   2.270404e-21   8.690790e+05   9.989711e-39   0.000000e+00   0.000000e+00
     1312000   1.311999e-05   5.103433e+00   2.480363e+01   2.439093e+01   3.813561e+05   5.605485e+05   5.437382e+05  -6.788421e+01   4.618345e+01  -2.371807e-20   8.690790e+05   1.226467e-38   0.000000e+00   0.000000e+00
     1320000   1.319999e-05   5.133942e+00   2.484848e+01   2.443443e+01   3.813561e+05   5.605485e+05   5.437382e+05  -9.669011e+01   6.578088e+01   9.272779e-20   8.690790e+05   2.487898e-38   0.000000e+00   0.000000e+00
     1328000   1.327999e-05   5.164450e+00   2.489332e+01   2.447793e+01   3.813561e+05   5.605485e+05   5.437382e+05  -1.276358e+02   8.683405e+01  -1.147318e-21   8.690790e+05   4.335328e-38   0.000000e+00   0.000000e+00
     1336000   1.335999e-05   5.194959e+00   2.493816e+01   2.452143e+01   3.813561e+05   5.605485e+05   5.437382e+05  -8.322595e+01   5.662085e+01   8.368246e-21   8.690790e+05   1.843407e-38   0.000000e+00   0.000000e+00
     1344000   1.343999e-05   5.225467e+00   2.498301e+01   2.456493e+01   3.813561e+05   5.605485e+05   5.437382e+05  -8.521562e+01   5.797447e+01   2.252879e-20   8.690790e+05   1.932591e-38   0.000000e+00   0.000000e+00
     1352000   1.351999e-05   5.255976e+00   2.502785e+01   2.460843e+01   3.813561e+05   5.605485e+05   5.437382e+05  -8.935160e+01   6.078829e+01  -2.323768e-20   8.690790e+05   2.124770e-38   0.000000e+00   0.000000e+00
     1360000   1.359999e-05   5.286484e+00   2.507270e+01   2.465192e+01   3.813561e+05   5.605485e+05   5.437382e+05  -8.611768e+01   5.858816e+01   1.479154e-20   8.690790e+05   1.973749e-38   0.000000e+00   0.000000e+00
     1368000   1.367999e-05   5.316993e+00   2.511754e+01   2.469542e+01   3.813561e+05   5.605485e+05   5.437382e+05  -8.850361e+01   6.021138e+01   1.282374e-20   8.690790e+05   2.084594e-38   0.000000e+00   0.000000e+00
     1376000   1.375999e-05   5.347501e+00   2.516238e+01   2.473892e+01   3.813561e+05   5.605485e+05   5.437382e+05  -7.678278e+01   5.223738e+01  -3.496311e-20   8.690790e+05   1.569076e-38   0.000000e+00   0.000000e+00
     1384000   1.383999e-05   5.378010e+00   2.520723e+01   2.478242e+01   3.813561e+05   5.605485e+05   5.437382e+05  -7.648539e+01   5.203506e+01   5.399097e-20   8.690790e+05   1.556886e-38   0.000000e+00   0.000000e+00
     1392000   1.391999e-05   5.408518e+00   2.525207e+01   2.482592e+01   3.813561e+05   5.605485e+05   5.437382e+05  -7.713647e+01   5.247800e+01  -1.846842e-21   8.690790e+05   1.583511e-38   0.000000e+00   0.000000e+00
     1400000   1.399999e-05   5.439027e+00   2.529692e+01   2.486942e+01   3.813561e+05   5.605485e+05   5.437382e+05  -7.828682e+01   5.326062e+01  -5.986484e-20   8.690790e+05   1.631094e-38   0.000000e+00   0.000000e+00
     1408000   1.407999e-05   5.469535e+00   2.534176e+01   2.491292e+01   3.813561e+05   5.605485e+05   5.437382e+05  -9.116816e+01   6.202414e+01   6.141223e-20   8.690790e+05   2.212004e-38   0.000000e+00   0.000000e+00
     1416000   1.415999e-05   5.500044e+00   2.538660e+01   2.495642e+01   3.813561e+05   5.605485e+05   5.437382e+05  -8.367354e+01   5.692535e+01  -2.093012e-20   8.690790e+05   1.863340e-38   0.000000e+00   0.000000e+00
     1424000   1.423999e-05   5.530552e+00   2.543145e+01   2.499992e+01   3.813561e+05   5.605485e+05   5.437382e+05  -9.926578e+01   6.753317e+01   2.063432e-20   8.690790e+05   2.622385e-38   0.000000e+00   0.000000e+00
     1432000   1.431999e-05   5.561061e+00   2.547629e+01   2.504342e+01   3.813561e+05   5.605485e+05   5.437382e+05  -6.679404e+01   4.544178e+01  -3.723090e-21   8.690790e+05   1.187445e-38   0.000000e+00   0.000000e+00
     1440000   1.439999e-05   5.591569e+00   2.552114e+01   2.508691e+01   3.813561e+05   5.605485e+05   5.437382e+05  -1.152579e+02   7.841301e+01   5.630665e-22   8.690790e+05   3.535244e-38   0.000000e+00   0.000000e+00
     1448000   1.447999e-05   5.622078e+00   2.556598e+01   2.513041e+01   3.813561e+05   5.605485e+05   5.437382e+05  -7.973928e+01   5.424877e+01   3.863078e-20   8.690790e+05   1.692255e-38   0.000000e+00   0.000000e+00
     1456000   1.455999e-05   5.652586e+00   2.561082e+01   2.517391e+01   3.813561e+05   5.605485e+05   5.437382e+05  -8.694840e+01   5.915333e+01  -3.020660e-20   8.690790e+05   2.011896e-38   0.000000e+00   0.000000e+00
     1464000   1.463999e-05   5.683095e+00   2.565567e+01   2.521741e+01   3.813561e+05   5.605485e+05   5.437382e+05  -9.038004e+01   6.148797e+01   5.450038e-20   8.690790e+05   2.173891e-38   0.000000e+00   0.000000e+00
     1472000   1.471999e-05   5.713603e+00   2.570051e+01   2.526091e+01   3.813561e+05   5.605485e+05   5.437382e+05  -9.359748e+01   6.367688e+01  -1.145561e-20   8.690790e+05   2.331434e-38   0.000000e+00   0.000000e+00
     1480000   1.479999e-05   5.744112e+00   2.574535e+01   2.530441e+01   3.813561e+05   5.605485e+05   5.437382e+05  -8.836547e+01   6.011740e+01   3.856949e-21   8.690790e+05   2.078131e-38   0.000000e+00   0.000000e+00
     1488000   1.487999e-05   5.774620e+00   2.579020e+01   2.534791e+01   3.813561e+05   5.605485e+05   5.437382e+05  -8.483992e+01   5.771887e+01   2.849011e-20   8.690790e+05   1.915615e-38   0.000000e+00   0.000000e+00
     1496000   1.495999e-05   5.805129e+00   2.583504e+01   2.539141e+01   3.813561e+05   5.605485e+05   5.437382e+05  -9.123043e+01   6.206651e+01  -4.931360e-21   8.690790e+05   2.215228e-38   0.000000e+00   0.000000e+00
     1504000   1.503999e-05   5.835637e+00   2.587989e+01   2.543491e+01   3.813561e+05   5.605485e+05   5.437382e+05  -8.997468e+01   6.121218e+01   5.954369e-20   8.690790e+05   2.154526e-38   0.000000e+00   0.000000e+00
     1512000   1.511999e-05   5.866146e+00   2.592473e+01   2.547841e+01   3.813561e+05   5.605485e+05   5.437382e+05  -8.945291e+01   6.085721e+01   1.249096e-20   8.690790e+05   2.129583e-38   0.000000e+00   0.000000e+00
     1520000   1.519999e-05   5.896654e+00   2.596957e+01   2.552191e+01   3.813561e+05   5.605485e+05   5.437382e+05  -1.023814e+02   6.965281e+01   5.400629e-20   8.690790e+05   2.789545e-38   0.000000e+00   0.000000e+00
     1528000   1.527999e-05   5.927163e+00   2.601442e+01   2.556540e+01   3.813561e+05   5.605485e+05   5.437382e+05  -9.422266e+01   6.410220e+01  -2.140560e-20   8.690790e+05   2.362645e-38   0.000000e+00   0.000000e+00
     1536000   1.535999e-05   5.957671e+00   2.605926e+01   2.560890e+01   3.813561e+05   5.605485e+05   5.437382e+05  -9.160989e+01   6.232466e+01  -3.026719e-21   8.690790e+05   2.233525e-38   0.000000e+00   0.000000e+00
     1544000   1.543999e-05   5.988180e+00   2.610411e+01   2.565240e+01   3.813561e+05   5.605485e+05   5.437382e+05  -9.904739e+01   6.738460e+01   5.095441e-20   8.690790e+05   2.610824e-38   0.000000e+00   0.000000e+00
     1552000   1.551999e-05   6.018688e+00   2.614895e+01   2.569590e+01   3.813561e+05   5.605485e+05   5.437382e+05  -9.718116e+01   6.611495e+01   3.990863e-20   8.690790e+05   2.513389e-38   0.000000e+00   0.000000e+00
     1560000   1.559999e-05   6.049197e+00   2.619379e+01   2.573940e+01   3.813561e+05   5.605485e+05   5.437382e+05  -1.009104e+02   6.865208e+01  -5.963914e-21   8.690790e+05   2.710012e-38   0.000000e+00   0.000000e+00
     1568000   1.567999e-05   6.079705e+00   2.623864e+01   2.578290e+01   3.813561e+05   5.605485e+05   5.437382e+05  -8.869825e+01   6.034380e+01   6.128275e-20   8.690790e+05   2.093844e-38   0.000000e+00   0.000000e+00
     1576000   1.575999e-05   6.110214e+00   2.628348e+01   2.582640e+01   3.813561e+05   5.605485e+05   5.437382e+05  -9.823122e+01   6.682933e+01  -8.059569e-20   8.690790e+05   2.567939e-38   0.000000e+00   0.000000e+00
     1584000   1.583999e-05   6.140722e+00   2.632832e+01   2.586990e+01   3.813561e+05   5.605485e+05   5.437382e+05  -9.923828e+01   6.751446e+01  -4.407341e-20   8.690790e+05   2.620914e-38   0.000000e+00   0.000000e+00
     1592000   1.591999e-05   6.171231e+00   2.637317e+01   2.591340e+01   3.813561e+05   5.605485e+05   5.437382e+05  -1.119687e+02   7.617531e+01   2.143672e-20   8.690790e+05   3.336459e-38   0.000000e+00   0.000000e+00
     1600000   1.599999e-05   6.201739e+00   2.641801e+01   2.595690e+01   3.813561e+05   5.605485e+05   5.437382e+05  -9.011024e+01   6.130441e+01   2.526234e-20   8.690790e+05   2.160818e-38   0.000000e+00   0.000000e+00
     1608000   1.607999e-05   6.232248e+00   2.646286e+01   2.600039e+01   3.813561e+05   5.605485e+05   5.437382e+05  -9.766062e+01   6.644114e+01   7.943190e-20   8.690790e+05   2.538282e-38   0.000000e+00   0.000000e+00
     1616000   1.615999e-05   6.262756e+00   2.650770e+01   2.604389e+01   3.813561e+05   5.605485e+05   5.437382e+05  -1.057727e+02   7.196002e+01  -5.347050e-20   8.690790e+05   2.977422e-38   0.000000e+00   0.000000e+00
     1624000   1.623999e-05   6.293265e+00   2.655254e+01   2.608739e+01   3.813561e+05   5.605485e+05   5.437382e+05  -1.157978e+02   7.878035e+01   2.687724e-20   8.690790e+05   3.568573e-38   0.000000e+00   0.000000e+00
     1632000   1.631999e-05   6.323773e+00   2.659739e+01   2.613089e+01   3.813561e+05   5.605485e+05   5.437382e+05  -1.001589e+02   6.814075e+01   8.459520e-21   8.690790e+05   2.669844e-38   0.000000e+00   0.000000e+00
     1640000   1.639999e-05   6.354282e+00   2.664223e+01   2.617439e+01   3.813561e+05   5.605485e+05   5.437382e+05  -1.013283e+02   6.893639e+01   5.418643e-21   8.690790e+05   2.732554e-38   0.000000e+00   0.000000e+00
     1648000   1.647999e-05   6.384790e+00   2.668708e+01   2.621789e+01   3.813561e+05   5.605485e+05   5.437382e+05  -8.677230e+01   5.903352e+01   2.134131e-20   8.690790e+05   2.003919e-38   0.000000e+00   0.000000e+00
     1656000   1.655999e-05   6.415299e+00   2.673192e+01   2.626139e+01   3.813561e+05   5.605485e+05   5.437382e+05  -9.264574e+01   6.302938e+01   6.004192e-20   8.690790e+05   2.284328e-38   0.000000e+00   0.000000e+00
     1664000   1.663999e-05   6.445807e+00   2.677676e+01   2.630489e+01   3.813561e+05   5.605485e+05   5.437382e+05  -1.114650e+02   7.583262e+01   8.373292e-21   8.690790e+05   3.306462e-38   0.000000e+00   0.000000e+00
     1672000   1.671999e-05   6.476316e+00   2.682161e+01   2.634839e+01   3.813561e+05   5.605485e+05   5.437382e+05  -8.952936e+01   6.090923e+01  -5.700855e-20   8.690790e+05   2.133266e-38   0.000000e+00   0.000000e+00
     1680000   1.679999e-05   6.506824e+00   2.686645e+01   2.639189e+01   3.813561e+05   5.605485e+05   5.437382e+05  -9.963982e+01   6.778764e+01   6.229441e-20   8.690790e+05   2.642179e-38   0.000000e+00   0.000000e+00
     1688000   1.687999e-05   6.537332e+00   2.691130e+01   2.643539e+01   3.813561e+05   5.605485e+05   5.437382e+05  -8.546286e+01   5.814268e+01   5.050378e-20   8.690790e+05   1.943915e-38   0.000000e+00   0.000000e+00
     1696000   1.695999e-05   6.567841e+00   2.695614e+01   2.647888e+01   3.813561e+05   5.605485e+05   5.437382e+05  -7.039171e+01   4.788936e+01   2.076545e-20   8.690790e+05   1.318771e-38   0.000000e+00   0.000000e+00
     1704000   1.703999e-05   6.598349e+00   2.700098e+01   2.652238e+01   3.813561e+05   5.605485e+05   5.437382e+05  -1.083320e+02   7.370114e+01  -5.232578e-20   8.690790e+05   3.123293e-38   0.000000e+00   0.000000e+00
     1712000   1.711999e-05   6.628858e+00   2.704583e+01   2.656588e+01   3.813561e+05   5.605485e+05   5.437382e+05  -1.080684e+02   7.352184e+01  -1.596705e-20   8.690790e+05   3.108163e-38   0.000000e+00   0.000000e+00
     1720000   1.719999e-05   6.659366e+00   2.709067e+01   2.660938e+01   3.813561e+05   5.605485e+05   5.437382e+05  -8.169257e+01   5.557765e+01   3.570999e-20   8.690790e+05   1.776220e-38   0.000000e+00   0.000000e+00
     1728000   1.727999e-05   6.689875e+00   2.713551e+01   2.665288e+01   3.813561e+05   5.605485e+05   5.437382e+05  -1.049195e+02   7.137953e+01   7.664617e-21   8.690790e+05   2.929592e-38   0.000000e+00   0.000000e+00
     1736000   1.735999e-05   6.720383e+00   2.718036e+01   2.669638e+01   3.813561e+05   5.605485e+05   5.437382e+05  -6.889776e+01   4.687299e+01  -3.528117e-20   8.690790e+05   1.263383e-38   0.000000e+00   0.000000e+00
     1744000   1.743999e-05   6.750892e+00   2.722520e+01   2.673988e+01   3.813561e+05   5.605485e+05   5.437382e+05  -9.302763e+01   6.328919e+01  -4.306918e-20   8.690790e+05   2.303251e-38   0.000000e+00   0.000000e+00
     1752000   1.751999e-05   6.781400e+00   2.727005e+01   2.678338e+01   3.813561e+05   5.605485e+05   5.437382e+05  -8.090602e+01   5.504253e+01   3.101366e-20   8.690790e+05   1.742133e-38   0.000000e+00   0.000000e+00
     1760000   1.759999e-05   6.811909e+00   2.731489e+01   2.682688e+01   3.813561e+05   5.605485e+05   5.437382e+05  -1.045555e+02   7.113192e+01   2.326800e-21   8.690790e+05   2.909563e-38   0.000000e+00   0.000000e+00
     1768000   1.767999e-05   6.842417e+00   2.735973e+01   2.687038e+01   3.813561e+05   5.605485e+05   5.437382e+05  -7.511516e+01   5.110285e+01   2.703764e-20   8.690790e+05   1.501762e-38   0.000000e+00   0.000000e+00
     1776000   1.775999e-05   6.872926e+00   2.740458e+01   2.691387e+01   3.813561e+05   5.605485e+05   5.437382e+05  -8.483547e+01   5.771584e+01   5.456382e-20   8.690790e+05   1.915305e-38   0.000000e+00   0.000000e+00
     1784000   1.783999e-05   6.903434e+00   2.744942e+01   2.695737e+01   3.813561e+05   5.605485e+05   5.437382e+05  -1.012415e+02   6.887731e+01   7.058856e-20   8.690790e+05   2.727719e-38   0.000000e+00   0.000000e+00
     1792000   1.791999e-05   6.933943e+00   2.749427e+01   2.700087e+01   3.813561e+05   5.605485e+05   5.437382e+05  -1.039630e+02   7.072878e+01   3.573831e-20   8.690790e+05   2.876389e-38   0.000000e+00   0.000000e+00
     1800000   1.799999e-05   6.964451e+00   2.753911e+01   2.704437e+01   3.813561e+05   5.605485e+05   5.437382e+05  -1.006106e+02   6.844808e+01  -4.930116e-20   8.690790e+05   2.693942e-38   0.000000e+00   0.000000e+00
     1808000   1.807999e-05   6.994960e+00   2.758395e+01   2.708787e+01   3.813561e+05   5.605485e+05   5.437382e+05  -1.028939e+02   7.000144e+01   2.534106e-20   8.690790e+05   2.817602e-38   0.000000e+00   0.000000e+00
     1816000   1.815999e-05   7.025468e+00   2.762880e+01   2.713137e+01   3.813561e+05   5.605485e+05   5.437382e+05  -9.852549e+01   6.702953e+01  -3.126109e-20   8.690790e+05   2.583435e-38   0.000000e+00   0.000000e+00
     1824000   1.823999e-05   7.055977e+00   2.767364e+01   2.717487e+01   3.813561e+05   5.605485e+05   5.437382e+05  -1.012350e+02   6.887285e+01   2.972225e-20   8.690790e+05   2.727479e-38   0.000000e+00   0.000000e+00
     1832000   1.831999e-05   7.086485e+00   2.771849e+01   2.721837e+01   3.813561e+05   5.605485e+05   5.437382e+05  -9.200399e+01   6.259278e+01  -2.034991e-20   8.690790e+05   2.252867e-38   0.000000e+00   0.000000e+00
     1840000   1.839999e-05   7.116994e+00   2.776333e+01   2.726187e+01   3.813561e+05   5.605485e+05   5.437382e+05  -9.407155e+01   6.399940e+01  -6.323053e-21   8.690790e+05   2.355187e-38   0.000000e+00   0.000000e+00
     1848000   1.847999e-05   7.147502e+00   2.780817e+01   2.730537e+01   3.813561e+05   5.605485e+05   5.437382e+05  -9.414383e+01   6.404857e+01  -3.007606e-20   8.690790e+05   2.358893e-38   0.000000e+00   0.000000e+00
     1856000   1.855999e-05   7.178011e+00   2.785302e+01   2.734887e+01   3.813561e+05   5.605485e+05   5.437382e+05  -7.580685e+01   5.157343e+01   1.320118e-20   8.690790e+05   1.529489e-38   0.000000e+00   0.000000e+00
     1864000   1.863999e-05   7.208519e+00   2.789786e+01   2.739236e+01   3.813561e+05   5.605485e+05   5.437382e+05  -1.246079e+02   8.477407e+01   1.146590e-19   8.690790e+05   4.132116e-38   0.000000e+00   0.000000e+00
     1872000   1.871999e-05   7.239028e+00   2.794270e+01   2.743586e+01   3.813561e+05   5.605485e+05   5.437382e+05  -1.023137e+02   6.960672e+01  -2.694335e-20   8.690790e+05   2.785848e-38   0.000000e+00   0.000000e+00
     1880000   1.879999e-05   7.269536e+00   2.798755e+01   2.747936e+01   3.813561e+05   5.605485e+05   5.437382e+05  -1.146505e+02   7.799982e+01  -4.761623e-20   8.690790e+05   3.498192e-38   0.000000e+00   0.000000e+00
     1888000   1.887999e-05   7.300045e+00   2.803239e+01   2.752286e+01   3.813561e+05   5.605485e+05   5.437382e+05  -8.955939e+01   6.092965e+01   4.290398e-21   8.690790e+05   2.134598e-38   0.000000e+00   0.000000e+00
     1896000   1.895999e-05   7.330553e+00   2.807724e+01   2.756636e+01   3.813561e+05   5.605485e+05   5.437382e+05  -9.724675e+01   6.615957e+01  -6.733930e-21   8.690790e+05   2.516778e-38   0.000000e+00   0.000000e+00
     1904000   1.903999e-05   7.361062e+00   2.812208e+01   2.760986e+01   3.813561e+05   5.605485e+05   5.437382e+05  -9.166591e+01   6.236277e+01  -2.190298e-20   8.690790e+05   2.236236e-38   0.000000e+00   0.000000e+00
     1912000   1.911999e-05   7.391570e+00   2.816692e+01   2.765336e+01   3.813561e+05   5.605485e+05   5.437382e+05  -9.282533e+01   6.315156e+01   2.187353e-20   8.690790e+05   2.293163e-38   0.000000e+00   0.000000e+00
     1920000   1.919999e-05   7.422079e+00   2.821177e+01   2.769686e+01   3.813561e+05   5.605485e+05   5.437382e+05  -9.071936e+01   6.171881e+01  -1.771900e-20   8.690790e+05   2.190218e-38   0.000000e+00   0.000000e+00
     1928000   1.927999e-05   7.452587e+00   2.825661e+01   2.774036e+01   3.813561e+05   5.605485e+05   5.437382e+05  -8.759692e+01   5.959453e+01   7.281631e-20   8.690790e+05   2.042111e-38   0.000000e+00   0.000000e+00
     1936000   1.935999e-05   7.483096e+00   2.830146e+01   2.778386e+01   3.813561e+05   5.605485e+05   5.437382e+05  -9.906181e+01   6.739441e+01  -1.593501e-20   8.690790e+05   2.611546e-38   0.000000e+00   0.000000e+00
     1944000   1.943999e-05   7.513604e+00   2.834630e+01   2.782736e+01   3.813561e+05   5.605485e+05   5.437382e+05  -9.218676e+01   6.271713e+01   2.579863e-20   8.690790e+05   2.261712e-38   0.000000e+00   0.000000e+00
     1952000   1.951999e-05   7.544113e+00   2.839114e+01   2.787085e+01   3.813561e+05   5.605485e+05   5.437382e+05  -9.486443e+01   6.453881e+01   2.293364e-20   8.690790e+05   2.395008e-38   0.000000e+00   0.000000e+00
     1960000   1.959999e-05   7.574621e+00   2.843599e+01   2.791435e+01   3.813561e+05   5.605485e+05   5.437382e+05  -8.653272e+01   5.887053e+01   1.834796e-20   8.690790e+05   1.992795e-38   0.000000e+00   0.000000e+00
     1968000   1.967999e-05   7.605130e+00   2.848083e+01   2.795785e+01   3.813561e+05   5.605485e+05   5.437382e+05  -9.099014e+01   6.190303e+01   2.587378e-20   8.690790e+05   2.203393e-38   0.000000e+00   0.000000e+00
     1976000   1.975999e-05   7.635638e+00   2.852567e+01   2.800135e+01   3.813561e+05   5.605485e+05   5.437382e+05  -9.618466e+01   6.543700e+01  -1.535532e-20   8.690790e+05   2.462061e-38   0.000000e+00   0.000000e+00
     1984000   1.983999e-05   7.666147e+00   2.857052e+01   2.804485e+01   3.813561e+05   5.605485e+05   5.437382e+05  -1.104339e+02   7.513115e+01   2.299897e-20   8.690790e+05   3.245594e-38   0.000000e+00   0.000000e+00
     1992000   1.991999e-05   7.696655e+00   2.861536e+01   2.808835e+01   3.813561e+05   5.605485e+05   5.437382e+05  -6.802815e+01   4.628137e+01  -2.481396e-20   8.690790e+05   1.231673e-38   0.000000e+00   0.000000e+00
     2000000   1.999999e-05   7.727164e+00   2.866021e+01   2.813185e+01   3.813561e+05   5.605485e+05   5.437382e+05  -7.655610e+01   5.208317e+01   9.327595e-22   8.690790e+05   1.559763e-38   0.000000e+00   0.000000e+00
     2008000   2.007999e-05   7.757672e+00   2.870505e+01   2.817535e+01   3.813561e+05   5.605485e+05   5.437382e+05  -9.388819e+01   6.387465e+01   3.416554e-20   8.690790e+05   2.345788e-38   0.000000e+00   0.000000e+00
     2016000   2.015999e-05   7.788181e+00   2.874989e+01   2.821885e+01   3.813561e+05   5.605485e+05   5.437382e+05  -1.071715e+02   7.291165e+01  -4.839991e-20   8.690790e+05   3.056732e-38   0.000000e+00   0.000000e+00
     2024000   2.023999e-05   7.818689e+00   2.879474e+01   2.826235e+01   3.813561e+05   5.605485e+05   5.437382e+05  -5.141866e+01   3.498149e+01  -5.041245e-21   8.690790e+05   7.037689e-39   0.000000e+00   0.000000e+00
     2032000   2.031999e-05   7.849198e+00   2.883958e+01   2.830584e+01   3.813561e+05   5.605485e+05   5.437382e+05  -8.415642e+01   5.725387e+01  -2.438866e-21   8.690790e+05   1.884811e-38   0.000000e+00   0.000000e+00
     2040000   2.039999e-05   7.879706e+00   2.888443e+01   2.834934e+01   3.813561e+05   5.605485e+05   5.437382e+05  -9.183157e+01   6.247548e+01  -9.481424e-21   8.690790e+05   2.244286e-38   0.000000e+00   0.000000e+00
     2048000   2.047999e-05   7.910215e+00   2.892927e+01   2.839284e+01   3.813561e+05   5.605485e+05   5.437382e+05  -7.706516e+01   5.242949e+01   5.983608e-21   8.690790e+05   1.580576e-38   0.000000e+00   0.000000e+00
     2056000   2.055999e-05   7.940723e+00   2.897411e+01   2.843634e+01   3.813561e+05   5.605485e+05   5.437382e+05  -6.651145e+01   4.524952e+01   5.133779e-21   8.690790e+05   1.177351e-38   0.000000e+00   0.000000e+00
     2064000   2.063999e-05   7.971232e+00   2.901896e+01   2.847984e+01   3.813561e+05   5.605485e+05   5.437382e+05  -8.179547e+01   5.564765e+01   4.860149e-20   8.690790e+05   1.780513e-38   0.000000e+00   0.000000e+00
     2072000   2.071999e-05   8.001740e+00   2.906380e+01   2.852334e+01   3.813561e+05   5.605485e+05   5.437382e+05  -7.698288e+01   5.237352e+01   2.164346e-20   8.690790e+05   1.577212e-38   0.000000e+00   0.000000e+00
     2080000   2.079999e-05   8.032249e+00   2.910865e+01   2.856684e+01   3.813561e+05   5.605485e+05   5.437382e+05  -8.727771e+01   5.937737e+01   2.059976e-20   8.690790e+05   2.027255e-38   0.000000e+00   0.000000e+00
     2088000   2.087999e-05   8.062757e+00   2.915349e+01   2.861034e+01   3.813561e+05   5.605485e+05   5.437382e+05  -5.919776e+01   4.027382e+01  -2.848682e-20   8.690790e+05   9.327532e-39   0.000000e+00   0.000000e+00
     2096000   2.095999e-05   8.093266e+00   2.919833e+01   2.865384e+01   3.813561e+05   5.605485e+05   5.437382e+05  -3.032784e+01   2.063284e+01  -5.709260e-21   8.690790e+05   2.448441e-39   0.000000e+00   0.000000e+00
     2104000   2.103999e-05   8.123774e+00   2.924318e+01   2.869734e+01   3.813561e+05   5.605485e+05   5.437382e+05  -7.292077e+01   4.960995e+01   6.113728e-20   8.690790e+05   1.415169e-38   0.000000e+00   0.000000e+00
     2112000   2.111999e-05   8.154283e+00   2.928802e+01   2.874084e+01   3.813561e+05   5.605485e+05   5.437382e+05  -9.109918e+01   6.197721e+01  -5.715997e-20   8.690790e+05   2.208600e-38   0.000000e+00   0.000000e+00
     2120000   2.119999e-05   8.184791e+00   2.933286e+01   2.878433e+01   3.813561e+05   5.605485e+05   5.437382e+05  -7.336989e+01   4.991551e+01   1.864012e-20   8.690790e+05   1.432634e-38   0.000000e+00   0.000000e+00
     2128000   2.127999e-05   8.215299e+00   2.937771e+01   2.882783e+01   3.813561e+05   5.605485e+05   5.437382e+05  -7.775958e+01   5.290193e+01   5.692599e-20   8.690790e+05   1.609086e-38   0.000000e+00   0.000000e+00
     2136000   2.135999e-05   8.245808e+00   2.942255e+01   2.887133e+01   3.813561e+05   5.605485e+05   5.437382e+05  -6.633455e+01   4.512917e+01   4.966675e-20   8.690790e+05   1.171074e-38   0.000000e+00   0.000000e+00
     2144000   2.143999e-05   8.276316e+00   2.946740e+01   2.891483e+01   3.813561e+05   5.605485e+05   5.437382e+05  -8.840193e+01   6.014220e+01  -4.091090e-20   8.690790e+05   2.079702e-38   0.000000e+00   0.000000e+00
     2152000   2.151999e-05   8.306825e+00   2.951224e+01   2.895833e+01   3.813561e+05   5.605485e+05   5.437382e+05  -6.254181e+01   4.254887e+01   2.210880e-20   8.690790e+05   1.040999e-38   0.000000e+00   0.000000e+00
     2160000   2.159999e-05   8.337333e+00   2.955708e+01   2.900183e+01   3.813561e+05   5.605485e+05   5.437382e+05  -6.204518e+01   4.221100e+01  -1.943320e-20   8.690790e+05   1.024531e-38   0.000000e+00   0.000000e+00
     2168000   2.167999e-05   8.367842e+00   2.960193e+01   2.904533e+01   3.813561e+05   5.605485e+05   5.437382e+05  -6.230602e+01   4.238846e+01  -6.178393e-21   8.690790e+05   1.033300e-38   0.000000e+00   0.000000e+00
     2176000   2.175999e-05   8.398350e+00   2.964677e+01   2.908883e+01   3.813561e+05   5.605485e+05   5.437382e+05  -2.598909e+01   1.768107e+01   2.168930e-21   8.690790e+05   1.798196e-39   0.000000e+00   0.000000e+00
     2184000   2.183999e-05   8.428859e+00   2.969162e+01   2.913233e+01   3.813561e+05   5.605485e+05   5.437382e+05  -4.651637e+01   3.164634e+01   1.802219e-20   8.690790e+05   5.759217e-39   0.000000e+00   0.000000e+00
     2192000   2.191999e-05   8.459367e+00   2.973646e+01   2.917583e+01   3.813561e+05   5.605485e+05   5.437382e+05  -7.313984e+01   4.975900e+01   1.569791e-20   8.690790e+05   1.423610e-38   0.000000e+00   0.000000e+00
     2200000   2.199999e-05   8.489876e+00   2.978130e+01   2.921932e+01   3.813561e+05   5.605485e+05   5.437382e+05  -3.576418e+01   2.433133e+01  -1.583234e-21   8.690790e+05   3.404659e-39   0.000000e+00   0.000000e+00
     2208000   2.207999e-05   8.520384e+00   2.982615e+01   2.926282e+01   3.813561e+05   5.605485e+05   5.437382e+05  -5.972692e+01   4.063382e+01   2.560647e-20   8.690790e+05   9.494240e-39   0.000000e+00   0.000000e+00
     2216000   2.215999e-05   8.550893e+00   2.987099e+01   2.930632e+01   3.813561e+05   5.605485e+05   5.437382e+05  -6.350783e+01   4.320608e+01   2.268651e-21   8.690790e+05   1.073348e-38   0.000000e+00   0.000000e+00
     2224000   2.223999e-05   8.581401e+00   2.991584e+01   2.934982e+01   3.813561e+05   5.605485e+05   5.437382e+05  -4.309260e+01   2.931705e+01  -6.404091e-21   8.690790e+05   4.942967e-39   0.000000e+00   0.000000e+00
     2232000   2.231999e-05   8.611910e+00   2.996068e+01   2.939332e+01   3.813561e+05   5.605485e+05   5.437382e+05  -6.858222e+01   4.665832e+01  -1.953285e-20   8.690790e+05   1.251728e-38   0.000000e+00   0.000000e+00
     2240000   2.239999e-05   8.642418e+00   3.000552e+01   2.943682e+01   3.813561e+05   5.605485e+05   5.437382e+05  -6.902864e+01   4.696203e+01   3.929414e-20   8.690790e+05   1.268204e-38   0.000000e+00   0.000000e+00
     2248000   2.247999e-05   8.672927e+00   3.005037e+01   2.948032e+01   3.813561e+05   5.605485e+05   5.437382e+05  -5.162697e+01   3.512321e+01  -3.899578e-20   8.690790e+05   7.094032e-39   0.000000e+00   0.000000e+00
     2256000   2.255999e-05   8.703435e+00   3.009521e+01   2.952382e+01   3.813561e+05   5.605485e+05   5.437382e+05  -4.931168e+01   3.354806e+01  -1.290275e-20   8.690790e+05   6.471414e-39   0.000000e+00   0.000000e+00
     2264000   2.263999e-05   8.733944e+00   3.014005e+01   2.956732e+01   3.813561e+05   5.605485e+05   5.437382e+05  -4.547861e+01   3.094032e+01   2.174844e-20   8.690790e+05   5.504455e-39   0.000000e+00   0.000000e+00
     2272000   2.271999e-05   8.764452e+00   3.018490e+01   2.961082e+01   3.813561e+05   5.605485e+05   5.437382e+05  -5.882091e+01   4.056468e+01  -5.641578e-01   8.690790e+05   9.288578e-39   0.000000e+00   0.000000e+00
     2280000   2.279999e-05   8.794961e+00   3.022974e+01   2.965432e+01   3.813561e+05   5.605485e+05   5.437382e+05  -4.478762e+01   3.047022e+01  -1.727777e-20   8.690790e+05   5.338407e-39   0.000000e+00   0.000000e+00
     2288000   2.287999e-05   8.825469e+00   3.027459e+01   2.969781e+01   3.813561e+05   5.605485e+05   5.437382e+05  -4.825755e+01   2.655873e+01   6.466085e+00   8.690790e+05   5.596001e-39   0.000000e+00   0.000000e+00
     2296000   2.295999e-05   8.855978e+00   3.031943e+01   2.974131e+01   3.813561e+05   5.605485e+05   5.437382e+05  -3.056368e+01   1.953770e+01   1.294409e+00   8.690790e+05   2.397031e-39   0.000000e+00   0.000000e+00
     2304000   2.303999e-05   8.886486e+00   3.036427e+01   2.978481e+01   3.813561e+05   5.605485e+05   5.437382e+05  -2.994429e+01   1.653541e+01   3.955106e+00   8.690790e+05   2.157216e-39   0.000000e+00   0.000000e+00
     2312000   2.311999e-05   8.916995e+00   3.040912e+01   2.982831e+01   3.813561e+05   5.605485e+05   5.437382e+05  -3.580904e+01   2.451510e+01  -1.579847e-01   8.690790e+05   3.426093e-39   0.000000e+00   0.000000e+00
     2320000   2.319999e-05   8.947503e+00   3.045396e+01   2.987181e+01   3.813561e+05   5.605485e+05   5.437382e+05  -5.424407e+01   1.612110e+01   2.142511e+01   8.690790e+05   6.660493e-39   0.000000e+00   0.000000e+00
     2328000   2.327999e-05   8.978012e+00   3.049881e+01   2.991531e+01   3.813561e+05   5.605485e+05   5.437382e+05  -1.330134e+01   8.138974e+00   9.384250e-01   8.690790e+05   4.441848e-40   0.000000e+00   0.000000e+00
     2336000   2.335999e-05   9.008520e+00   3.054365e+01   2.995881e+01   3.813561e+05   5.605485e+05   5.437382e+05  -6.511625e+00   1.113437e+01  -6.911608e+00   8.690790e+05   3.899999e-40   0.000000e+00   0.000000e+00
     2344000   2.343999e-05   9.039029e+00   3.058849e+01   3.000231e+01   3.813561e+05   5.605485e+05   5.437382e+05  -3.771316e+01   3.712819e+01  -1.182555e+01   8.690790e+05   5.349298e-39   0.000000e+00   0.000000e+00
     2352000   2.351999e-05   9.069537e+00   3.063334e+01   3.004581e+01   3.813561e+05   5.605485e+05   5.437382e+05  -2.492199e+01  -5.197148e+00   2.283711e+01   8.690790e+05   2.127466e-39   0.000000e+00   0.000000e+00
     2360000   2.359999e-05   9.100046e+00   3.067818e+01   3.008931e+01   3.813561e+05   5.605485e+05   5.437382e+05  -1.981121e+01   1.854978e+01  -5.228482e+00   8.690790e+05   1.389600e-39   0.000000e+00   0.000000e+00
     2368000   2.367999e-05   9.130554e+00   3.072302e+01   3.013280e+01   3.813561e+05   5.605485e+05   5.437382e+05  -2.421571e+01   1.591813e+01   5.736662e-01   8.690790e+05   1.528631e-39   0.000000e+00   0.000000e+00
     2376000   2.375999e-05   9.161063e+00   3.076787e+01   3.017630e+01   3.813561e+05   5.605485e+05   5.437382e+05  -9.252920e+00   1.059051e+01  -4.428298e+00   8.690790e+05   3.955681e-40   0.000000e+00   0.000000e+00
     2384000   2.383999e-05   9.191571e+00   3.081271e+01   3.021980e+01   3.813561e+05   5.605485e+05   5.437382e+05  -2.740949e+01   1.864741e+01   9.742977e-21   8.690790e+05   1.999227e-39   0.000000e+00   0.000000e+00
     2392000   2.391999e-05   9.222080e+00   3.085756e+01   3.026330e+01   3.813561e+05   5.605485e+05   5.437382e+05  -8.552605e+00   5.818567e+00  -3.047152e-21   8.690790e+05   1.947401e-40   0.000000e+00   0.000000e+00
     2400000   2.399999e-05   9.252588e+00   3.090240e+01   3.030680e+01   3.813561e+05   5.605485e+05   5.437382e+05  -9.994618e+00   6.799607e+00   4.784910e-22   8.690790e+05   2.659025e-40   0.000000e+00   0.000000e+00
     2408000   2.407999e-05   9.283097e+00   3.094724e+01   3.035030e+01   3.813561e+05   5.605485e+05   5.437382e+05  -2.005318e+00   1.364272e+00  -7.164255e-22   8.690790e+05   1.071278e-41   0.000000e+00   0.000000e+00
     2416000   2.415999e-05   9.313605e+00   3.099209e+01   3.039380e+01   3.813561e+05   5.605485e+05   5.437382e+05  -1.812216e+01   1.232899e+01  -7.838503e-21   8.690790e+05   8.739174e-40   0.000000e+00   0.000000e+00
     2424000   2.423999e-05   9.344114e+00   3.103693e+01   3.043730e+01   3.813561e+05   5.605485e+05   5.437382e+05  -6.960772e+00   4.735600e+00  -4.562442e-21   8.690790e+05   1.289103e-40   0.000000e+00   0.000000e+00
     2432000   2.431999e-05   9.374622e+00   3.108178e+01   3.048080e+01   3.813561e+05   5.605485e+05   5.437382e+05  -1.531998e+01   1.042260e+01   3.951276e-21   8.690790e+05   6.245406e-40   0.000000e+00   0.000000e+00
     2440000   2.439999e-05   9.405131e+00   3.112662e+01   3.052430e+01   3.813561e+05   5.605485e+05   5.437382e+05  -1.176703e+01   8.005427e+00   4.512743e-21   8.690790e+05   3.685511e-40   0.000000e+00   0.000000e+00
     2448000   2.447999e-05   9.435639e+00   3.117146e+01   3.056780e+01   3.813561e+05   5.605485e+05   5.437382e+05  -5.199202e+00   3.537156e+00   1.671685e-21   8.690790e+05   7.196374e-41   0.000000e+00   0.000000e+00
     2456000   2.455999e-05   9.466148e+00   3.121631e+01   3.061129e+01   3.813561e+05   5.605485e+05   5.437382e+05  -5.722999e+00   3.893510e+00   2.311070e-21   8.690790e+05   8.708068e-41   0.000000e+00   0.000000e+00
     2464000   2.463999e-05   9.496656e+00   3.126115e+01   3.065479e+01   3.813561e+05   5.605485e+05   5.437382e+05  -2.832005e+01   1.926689e+01   8.138046e-21   8.690790e+05   2.134050e-39   0.000000e+00   0.000000e+00
     2472000   2.471999e-05   9.527165e+00   3.130600e+01   3.069829e+01   3.813561e+05   5.605485e+05   5.437382e+05  -1.099969e+00   7.483382e-01  -2.722429e-22   8.690790e+05   3.221157e-42   0.000000e+00   0.000000e+00
     2480000   2.479999e-05   9.557673e+00   3.135084e+01   3.074179e+01   3.813561e+05   5.605485e+05   5.437382e+05   2.854791e+00  -1.942191e+00  -3.338020e-23   8.690790e+05   2.168089e-41   0.000000e+00   0.000000e+00
     2488000   2.487999e-05   9.588182e+00   3.139568e+01   3.078529e+01   3.813561e+05   5.605485e+05   5.437382e+05   7.452594e+00  -5.070200e+00  -5.856937e-21   8.690790e+05   1.477921e-40   0.000000e+00   0.000000e+00
     2496000   2.495999e-05   9.618690e+00   3.144053e+01   3.082879e+01   3.813561e+05   5.605485e+05   5.437382e+05   9.053533e+00  -6.159361e+00  -1.119929e-21   8.690790e+05   2.179784e-40   0.000000e+00   0.000000e+00
     2504000   2.503999e-05   9.649199e+00   3.148537e+01   3.087229e+01   3.813561e+05   5.605485e+05   5.437382e+05   3.623065e+01  -2.464868e+01  -1.180596e-20   8.690790e+05   3.492803e-39   0.000000e+00   0.000000e+00
     2512000   2.511999e-05   9.679707e+00   3.153021e+01   3.091579e+01   3.813561e+05   5.605485e+05   5.437382e+05   1.231679e+01  -8.379442e+00  -3.672325e-21   8.690790e+05   4.037331e-40   0.000000e+00   0.000000e+00
     2520000   2.519999e-05   9.710216e+00   3.157506e+01   3.095929e+01   3.813561e+05   5.605485e+05   5.437382e+05   8.134853e+00  -5.534358e+00   9.780438e-22   8.690790e+05   1.761275e-40   0.000000e+00   0.000000e+00
     2528000   2.527999e-05   9.740724e+00   3.161990e+01   3.100279e+01   3.813561e+05   5.605485e+05   5.437382e+05   1.777402e+01  -1.209214e+01  -9.941108e-22   8.690790e+05   8.408761e-40   0.000000e+00   0.000000e+00
     2536000   2.535999e-05   9.771233e+00   3.166475e+01   3.104629e+01   3.813561e+05   5.605485e+05   5.437382e+05   8.407430e+00  -5.719800e+00   9.489202e-22   8.690790e+05   1.881701e-40   0.000000e+00   0.000000e+00
     2544000   2.543999e-05   9.801741e+00   3.170959e+01   3.108978e+01   3.813561e+05   5.605485e+05   5.437382e+05   2.125511e+01  -1.446042e+01  -1.714380e-21   8.690790e+05   1.202639e-39   0.000000e+00   0.000000e+00
     2552000   2.551999e-05   9.832250e+00   3.175443e+01   3.113328e+01   3.813561e+05   5.605485e+05   5.437382e+05   3.071281e+01  -2.089475e+01  -3.890374e-21   8.690790e+05   2.510188e-39   0.000000e+00   0.000000e+00
     2560000   2.559999e-05   9.862758e+00   3.179928e+01   3.117678e+01   3.813561e+05   5.605485e+05   5.437382e+05   4.093692e+01  -2.785048e+01   2.579854e-20   8.690790e+05   4.459708e-39   0.000000e+00   0.000000e+00
     2568000   2.567999e-05   9.893267e+00   3.184412e+01   3.122028e+01   3.813561e+05   5.605485e+05   5.437382e+05   3.053479e+01  -2.077364e+01  -1.484321e-20   8.690790e+05   2.480968e-39   0.000000e+00   0.000000e+00
     2576000   2.575999e-05   9.923775e+00   3.188897e+01   3.126378e+01   3.813561e+05   5.605485e+05   5.437382e+05   3.549590e+01  -2.414881e+01   7.311842e-21   8.690790e+05   3.352771e-39   0.000000e+00   0.000000e+00
     2584000   2.583999e-05   9.954283e+00   3.193381e+01   3.130728e+01   3.813561e+05   5.605485e+05   5.437382e+05   2.773875e+01  -1.887141e+01  -6.825780e-21   8.690790e+05   2.047777e-39   0.000000e+00   0.000000e+00
     2592000   2.591999e-05   9.984792e+00   3.197865e+01   3.135078e+01   3.813561e+05   5.605485e+05   5.437382e+05   2.629733e+01  -1.789078e+01   6.267421e-22   8.690790e+05   1.840486e-39   0.000000e+00   0.000000e+00
     2600000   2.599999e-05   1.001530e+01   3.202350e+01   3.139428e+01   3.813561e+05   5.605485e+05   5.437382e+05   2.844139e+01  -1.934944e+01   1.470178e-20   8.690790e+05   2.152926e-39   0.000000e+00   0.000000e+00
     2608000   2.607999e-05   1.004581e+01   3.206834e+01   3.143778e+01   3.813561e+05   5.605485e+05   5.437382e+05   5.719291e+01  -3.890987e+01  -1.055586e-20   8.690790e+05   8.704642e-39   0.000000e+00   0.000000e+00
     2616000   2.615999e-05   1.007632e+01   3.211318e+01   3.148128e+01   3.813561e+05   5.605485e+05   5.437382e+05   2.979513e+01  -2.027043e+01  -1.025368e-20   8.690790e+05   2.362779e-39   0.000000e+00   0.000000e+00
     2624000   2.623999e-05   1.010683e+01   3.215803e+01   3.152477e+01   3.813561e+05   5.605485e+05   5.437382e+05   2.898324e+01  -1.971807e+01   1.640622e-20   8.690790e+05   2.235540e-39   0.000000e+00   0.000000e+00
     2632000   2.631999e-05   1.013733e+01   3.220287e+01   3.156827e+01   3.813561e+05   5.605485e+05   5.437382e+05   3.905084e+01  -2.656733e+01  -2.294013e-21   8.690790e+05   4.057863e-39   0.000000e+00   0.000000e+00
     2640000   2.639999e-05   1.016784e+01   3.224772e+01   3.161177e+01   3.813561e+05   5.605485e+05   5.437382e+05   7.582682e+01  -5.158702e+01   2.692277e-20   8.690790e+05   1.530014e-38   0.000000e+00   0.000000e+00
     2648000   2.647999e-05   1.019835e+01   3.229256e+01   3.165527e+01   3.813561e+05   5.605485e+05   5.437382e+05   1.132168e+02  -7.702445e+01  -8.911284e-20   8.690790e+05   3.411061e-38   0.000000e+00   0.000000e+00
     2656000   2.655999e-05   1.022886e+01   3.233740e+01   3.169877e+01   3.813561e+05   5.605485e+05   5.437382e+05   4.026022e+01  -2.739011e+01   1.744191e-21   8.690790e+05   4.313538e-39   0.000000e+00   0.000000e+00
     2664000   2.663999e-05   1.025937e+01   3.238225e+01   3.174227e+01   3.813561e+05   5.605485e+05   5.437382e+05   7.688345e+01  -5.230587e+01   9.256375e-20   8.690790e+05   1.573001e-38   0.000000e+00   0.000000e+00
     2672000   2.671999e-05   1.028988e+01   3.242709e+01   3.178577e+01   3.813561e+05   5.605485e+05   5.437382e+05   5.058145e+01  -3.441191e+01  -3.662327e-20   8.690790e+05   6.809254e-39   0.000000e+00   0.000000e+00
     2680000   2.679999e-05   1.032039e+01   3.247194e+01   3.182927e+01   3.813561e+05   5.605485e+05   5.437382e+05   5.150764e+01  -3.504203e+01   2.310690e-20   8.690790e+05   7.061147e-39   0.000000e+00   0.000000e+00
     2688000   2.687999e-05   1.035089e+01   3.251678e+01   3.187277e+01   3.813561e+05   5.605485e+05   5.437382e+05   5.839772e+01  -3.972954e+01   5.776128e-20   8.690790e+05   9.075723e-39   0.000000e+00   0.000000e+00
     2696000   2.695999e-05   1.038140e+01   3.256162e+01   3.191627e+01   3.813561e+05   5.605485e+05   5.437382e+05   8.104544e+01  -5.513739e+01  -2.523489e-20   8.690790e+05   1.747965e-38   0.000000e+00   0.000000e+00
     2704000   2.703999e-05   1.041191e+01   3.260647e+01   3.195977e+01   3.813561e+05   5.605485e+05   5.437382e+05   6.165321e+01  -4.194433e+01   2.039764e-21   8.690790e+05   1.011504e-38   0.000000e+00   0.000000e+00
     2712000   2.711999e-05   1.044242e+01   3.265131e+01   3.200326e+01   3.813561e+05   5.605485e+05   5.437382e+05   5.638860e+01  -3.836268e+01  -1.777599e-20   8.690790e+05   8.462919e-39   0.000000e+00   0.000000e+00
     2720000   2.719999e-05   1.047293e+01   3.269616e+01   3.204676e+01   3.813561e+05   5.605485e+05   5.437382e+05   3.861105e+01  -2.626813e+01  -2.112191e-20   8.690790e+05   3.968044e-39   0.000000e+00   0.000000e+00
     2728000   2.727999e-05   1.050344e+01   3.274100e+01   3.209026e+01   3.813561e+05   5.605485e+05   5.437382e+05   9.465365e+01  -6.439541e+01   6.312812e-21   8.690790e+05   2.384422e-38   0.000000e+00   0.000000e+00
     2736000   2.735999e-05   1.053394e+01   3.278584e+01   3.213376e+01   3.813561e+05   5.605485e+05   5.437382e+05   6.396266e+01  -4.351551e+01  -5.580441e-20   8.690790e+05   1.088925e-38   0.000000e+00   0.000000e+00
     2744000   2.743999e-05   1.056445e+01   3.283069e+01   3.217726e+01   3.813561e+05   5.605485e+05   5.437382e+05   8.296064e+01  -5.644035e+01   8.305679e-21   8.690790e+05   1.831656e-38   0.000000e+00   0.000000e+00
     2752000   2.751999e-05   1.059496e+01   3.287553e+01   3.222076e+01   3.813561e+05   5.605485e+05   5.437382e+05   6.889518e+01  -4.687124e+01   8.157572e-22   8.690790e+05   1.263267e-38   0.000000e+00   0.000000e+00
     2760000   2.759999e-05   1.062547e+01   3.292037e+01   3.226426e+01   3.813561e+05   5.605485e+05   5.437382e+05   7.900969e+01  -5.375241e+01   4.422605e-20   8.690790e+05   1.661418e-38   0.000000e+00   0.000000e+00
     2768000   2.767999e-05   1.065598e+01   3.296522e+01   3.230776e+01   3.813561e+05   5.605485e+05   5.437382e+05   7.645086e+01  -5.201157e+01   4.048200e-20   8.690790e+05   1.555496e-38   0.000000e+00   0.000000e+00
     2776000   2.775999e-05   1.068649e+01   3.301006e+01   3.235126e+01   3.813561e+05   5.605485e+05   5.437382e+05   8.298545e+01  -5.645723e+01   1.519965e-20   8.690790e+05   1.832683e-38   0.000000e+00   0.000000e+00
     2784000   2.783999e-05   1.071700e+01   3.305491e+01   3.239476e+01   3.813561e+05   5.605485e+05   5.437382e+05   6.430702e+01  -4.374979e+01  -2.625059e-20   8.690790e+05   1.100569e-38   0.000000e+00   0.000000e+00
     2792000   2.791999e-05   1.074750e+01   3.309975e+01   3.243825e+01   3.813561e+05   5.605485e+05   5.437382e+05   9.751658e+01  -6.634314e+01  -5.869320e-20   8.690790e+05   2.530674e-38   0.000000e+00   0.000000e+00
     2800000   2.799999e-05   1.077801e+01   3.314459e+01   3.248175e+01   3.813561e+05   5.605485e+05   5.437382e+05   6.922449e+01  -4.709527e+01  -2.241463e-20   8.690790e+05   1.275343e-38   0.000000e+00   0.000000e+00
     2808000   2.807999e-05   1.080852e+01   3.318944e+01   3.252525e+01   3.813561e+05   5.605485e+05   5.437382e+05   1.023159e+02  -6.960827e+01   7.346106e-22   8.690790e+05   2.785901e-38   0.000000e+00   0.000000e+00
     2816000   2.815999e-05   1.083903e+01   3.323428e+01   3.256875e+01   3.813561e+05   5.605485e+05   5.437382e+05   8.414964e+01  -5.724925e+01   1.013156e-20   8.690790e+05   1.884653e-38   0.000000e+00   0.000000e+00
     2824000   2.823999e-05   1.086954e+01   3.327913e+01   3.261225e+01   3.813561e+05   5.605485e+05   5.437382e+05   7.920154e+01  -5.388293e+01  -1.566697e-20   8.690790e+05   1.669481e-38   0.000000e+00   0.000000e+00
     2832000   2.831999e-05   1.090005e+01   3.332397e+01   3.265575e+01   3.813561e+05   5.605485e+05   5.437382e+05   9.857903e+01  -6.706596e+01   2.727722e-21   8.690790e+05   2.586454e-38   0.000000e+00   0.000000e+00
     2840000   2.839999e-05   1.093056e+01   3.336881e+01   3.269925e+01   3.813561e+05   5.605485e+05   5.437382e+05   6.916015e+01  -4.705150e+01  -4.008585e-20   8.690790e+05   1.273097e-38   0.000000e+00   0.000000e+00
     2848000   2.847999e-05   1.096106e+01   3.341366e+01   3.274275e+01   3.813561e+05   5.605485e+05   5.437382e+05   7.869979e+01  -5.354158e+01   3.764762e-20   8.690790e+05   1.648389e-38   0.000000e+00   0.000000e+00
     2856000   2.855999e-05   1.099157e+01   3.345850e+01   3.278625e+01   3.813561e+05   5.605485e+05   5.437382e+05   7.195642e+01  -4.895388e+01  -3.742245e-20   8.690790e+05   1.378011e-38   0.000000e+00   0.000000e+00
     2864000   2.863999e-05   1.102208e+01   3.350335e+01   3.282975e+01   3.813561e+05   5.605485e+05   5.437382e+05   1.234815e+02  -8.400777e+01   1.871488e-20   8.690790e+05   4.058196e-38   0.000000e+00   0.000000e+00
     2872000   2.871999e-05   1.105259e+01   3.354819e+01   3.287325e+01   3.813561e+05   5.605485e+05   5.437382e+05   9.398637e+01  -6.394145e+01  -1.991885e-20   8.690790e+05   2.351079e-38   0.000000e+00   0.000000e+00
     2880000   2.879999e-05   1.108310e+01   3.359303e+01   3.291674e+01   3.813561e+05   5.605485e+05   5.437382e+05   9.874885e+01  -6.718149e+01   9.161185e-21   8.690790e+05   2.595218e-38   0.000000e+00   0.000000e+00
     2888000   2.887999e-05   1.111361e+01   3.363788e+01   3.296024e+01   3.813561e+05   5.605485e+05   5.437382e+05   1.007328e+02  -6.853122e+01  -3.750927e-20   8.690790e+05   2.700373e-38   0.000000e+00   0.000000e+00
     2896000   2.895999e-05   1.114411e+01   3.368272e+01   3.300374e+01   3.813561e+05   5.605485e+05   5.437382e+05   1.210224e+02  -8.233477e+01   3.336811e-20   8.690790e+05   3.897743e-38   0.000000e+00   0.000000e+00
     2904000   2.903999e-05   1.117462e+01   3.372756e+01   3.304724e+01   3.813561e+05   5.605485e+05   5.437382e+05   9.589473e+01  -6.523976e+01   1.811347e-20   8.690790e+05   2.447303e-38   0.000000e+00   0.000000e+00
     2912000   2.911999e-05   1.120513e+01   3.377241e+01   3.309074e+01   3.813561e+05   5.605485e+05   5.437382e+05   1.188647e+02  -8.086684e+01   7.097588e-20   8.690790e+05   3.759927e-38   0.000000e+00   0.000000e+00
     2920000   2.919999e-05   1.123564e+01   3.381725e+01   3.313424e+01   3.813561e+05   5.605485e+05   5.437382e+05   1.170759e+02  -7.964986e+01  -5.928694e-22   8.690790e+05   3.647837e-38   0.000000e+00   0.000000e+00
     2928000   2.927999e-05   1.126615e+01   3.386210e+01   3.317774e+01   3.813561e+05   5.605485e+05   5.437382e+05   1.199792e+02  -8.162508e+01  -8.076142e-20   8.690790e+05   3.831005e-38   0.000000e+00   0.000000e+00
     2936000   2.935999e-05   1.129666e+01   3.390694e+01   3.322124e+01   3.813561e+05   5.605485e+05   5.437382e+05   1.337925e+02  -9.102259e+01   1.055261e-21   8.690790e+05   4.764006e-38   0.000000e+00   0.000000e+00
     2944000   2.943999e-05   1.132717e+01   3.395178e+01   3.326474e+01   3.813561e+05   5.605485e+05   5.437382e+05   1.127350e+02  -7.669664e+01   5.106752e-21   8.690790e+05   3.382530e-38   0.000000e+00   0.000000e+00
     2952000   2.951999e-05   1.135767e+01   3.399663e+01   3.330824e+01   3.813561e+05   5.605485e+05   5.437382e+05   1.144416e+02  -7.785768e+01  -7.804133e-20   8.690790e+05   3.485555e-38   0.000000e+00   0.000000e+00
     2960000   2.959999e-05   1.138818e+01   3.404147e+01   3.335174e+01   3.813561e+05   5.605485e+05   5.437382e+05   1.456392e+02  -9.908223e+01  -1.835575e-20   8.690790e+05   5.644823e-38   0.000000e+00   0.000000e+00
     2968000   2.967999e-05   1.141869e+01   3.408632e+01   3.339523e+01   3.813561e+05   5.605485e+05   5.437382e+05   1.198105e+02  -8.151032e+01  -1.188660e-20   8.690790e+05   3.820395e-38   0.000000e+00   0.000000e+00
     2976000   2.975999e-05   1.144920e+01   3.413116e+01   3.343873e+01   3.813561e+05   5.605485e+05   5.437382e+05   1.308463e+02  -8.901823e+01  -4.671316e-20   8.690790e+05   4.556333e-38   0.000000e+00   0.000000e+00
     2984000   2.983999e-05   1.147971e+01   3.417600e+01   3.348223e+01   3.813561e+05   5.605485e+05   5.437382e+05   1.435818e+02  -9.768255e+01  -7.158453e-20   8.690790e+05   5.486463e-38   0.000000e+00   0.000000e+00
     2992000   2.991999e-05   1.151022e+01   3.422085e+01   3.352573e+01   3.813561e+05   5.605485e+05   5.437382e+05   1.218732e+02  -8.291360e+01   1.051691e-20   8.690790e+05   3.952920e-38   0.000000e+00   0.000000e+00
     3000000   2.999999e-05   1.154073e+01   3.426569e+01   3.356923e+01   3.813561e+05   5.605485e+05   5.437382e+05   1.236704e+02  -8.413628e+01   5.988607e-20   8.690790e+05   4.070363e-38   0.000000e+00   0.000000e+00
     3008000   3.007999e-05   1.157123e+01   3.431053e+01   3.361273e+01   3.813561e+05   5.605485e+05   5.437382e+05   1.261862e+02  -8.584783e+01  -6.825644e-20   8.690790e+05   4.237756e-38   0.000000e+00   0.000000e+00
     3016000   3.015999e-05   1.160174e+01   3.435538e+01   3.365623e+01   3.813561e+05   5.605485e+05   5.437382e+05   1.450659e+02  -9.869222e+01   9.617906e-21   8.690790e+05   5.600433e-38   0.000000e+00   0.000000e+00
     3024000   3.023999e-05   1.163225e+01   3.440022e+01   3.369973e+01   3.813561e+05   5.605485e+05   5.437382e+05   1.334542e+02  -9.079246e+01   5.513334e-20   8.690790e+05   4.740087e-38   0.000000e+00   0.000000e+00
     3032000   3.031999e-05   1.166276e+01   3.444507e+01   3.374323e+01   3.813561e+05   5.605485e+05   5.437382e+05   1.465933e+02  -9.973132e+01   6.257265e-20   8.690790e+05   5.719072e-38   0.000000e+00   0.000000e+00
     3040000   3.039999e-05   1.169327e+01   3.448991e+01   3.378673e+01   3.813561e+05   5.605485e+05   5.437382e+05   1.542707e+02  -1.049545e+02   3.362602e-20   8.690790e+05   6.333809e-38   0.000000e+00   0.000000e+00
     3048000   3.047999e-05   1.172378e+01   3.453475e+01   3.383022e+01   3.813561e+05   5.605485e+05   5.437382e+05   1.501275e+02  -1.021357e+02  -1.472801e-19   8.690790e+05   5.998315e-38   0.000000e+00   0.000000e+00
     3056000   3.055999e-05   1.175428e+01   3.457960e+01   3.387372e+01   3.813561e+05   5.605485e+05   5.437382e+05   1.422049e+02  -9.674580e+01  -8.977988e-20   8.690790e+05   5.381935e-38   0.000000e+00   0.000000e+00
     3064000   3.063999e-05   1.178479e+01   3.462444e+01   3.391722e+01   3.813561e+05   5.605485e+05   5.437382e+05   1.473012e+02  -1.002129e+02   6.739857e-20   8.690790e+05   5.774547e-38   0.000000e+00   0.000000e+00
     3072000   3.071999e-05   1.181530e+01   3.466929e+01   3.396072e+01   3.813561e+05   5.605485e+05   5.437382e+05   1.494158e+02  -1.016516e+02   4.087339e-20   8.690790e+05   5.941555e-38   0.000000e+00   0.000000e+00
     3080000   3.079999e-05   1.184581e+01   3.471413e+01   3.400422e+01   3.813561e+05   5.605485e+05   5.437382e+05   1.651879e+02  -1.123817e+02   1.543662e-19   8.690790e+05   7.262130e-38   0.000000e+00   0.000000e+00
     3088000   3.087999e-05   1.187632e+01   3.475897e+01   3.404772e+01   3.813561e+05   5.605485e+05   5.437382e+05   1.583476e+02  -1.077281e+02  -8.178101e-20   8.690790e+05   6.673152e-38   0.000000e+00   0.000000e+00
     3096000   3.095999e-05   1.190683e+01   3.480382e+01   3.409122e+01   3.813561e+05   5.605485e+05   5.437382e+05   1.396329e+02  -9.499602e+01   3.293594e-21   8.690790e+05   5.188734e-38   0.000000e+00   0.000000e+00
     3104000   3.103999e-05   1.193734e+01   3.484866e+01   3.413472e+01   3.813561e+05   5.605485e+05   5.437382e+05   1.596470e+02  -1.086122e+02  -1.433409e-19   8.690790e+05   6.782822e-38   0.000000e+00   0.000000e+00
     3112000   3.111999e-05   1.196784e+01   3.489351e+01   3.417822e+01   3.813561e+05   5.605485e+05   5.437382e+05   1.810765e+02  -1.231912e+02   2.475786e-20   8.690790e+05   8.725990e-38   0.000000e+00   0.000000e+00
     3120000   3.119999e-05   1.199835e+01   3.493835e+01   3.422172e+01   3.813561e+05   5.605485e+05   5.437382e+05   1.447304e+02  -9.846396e+01   9.998405e-20   8.690790e+05   5.574825e-38   0.000000e+00   0.000000e+00
     3128000   3.127999e-05   1.202886e+01   3.498319e+01   3.426522e+01   3.813561e+05   5.605485e+05   5.437382e+05   1.516360e+02  -1.031621e+02   2.202495e-20   8.690790e+05   6.119340e-38   0.000000e+00   0.000000e+00
     3136000   3.135999e-05   1.205937e+01   3.502804e+01   3.430871e+01   3.813561e+05   5.605485e+05   5.437382e+05   1.548630e+02  -1.053575e+02   1.691490e-20   8.690790e+05   6.382689e-38   0.000000e+00   0.000000e+00
     3144000   3.143999e-05   1.208988e+01   3.507288e+01   3.435221e+01   3.813561e+05   5.605485e+05   5.437382e+05   1.477442e+02  -1.005144e+02  -7.010710e-20   8.690790e+05   5.809378e-38   0.000000e+00   0.000000e+00
     3152000   3.151999e-05   1.212039e+01   3.511772e+01   3.439571e+01   3.813561e+05   5.605485e+05   5.437382e+05   1.360983e+02  -9.259130e+01  -5.180134e-20   8.690790e+05   4.929851e-38   0.000000e+00   0.000000e+00
     3160000   3.159999e-05   1.215089e+01   3.516257e+01   3.443921e+01   3.813561e+05   5.605485e+05   5.437382e+05   1.698998e+02  -1.155874e+02   2.734272e-20   8.690790e+05   7.681999e-38   0.000000e+00   0.000000e+00
     3168000   3.167999e-05   1.218140e+01   3.520741e+01   3.448271e+01   3.813561e+05   5.605485e+05   5.437382e+05   1.412645e+02  -9.610606e+01  -1.395964e-20   8.690790e+05   5.311115e-38   0.000000e+00   0.000000e+00
     3176000   3.175999e-05   1.221191e+01   3.525226e+01   3.452621e+01   3.813561e+05   5.605485e+05   5.437382e+05   1.591708e+02  -1.082881e+02  -7.933720e-20   8.690790e+05   6.742857e-38   0.000000e+00   0.000000e+00
     3184000   3.183999e-05   1.224242e+01   3.529710e+01   3.456971e+01   3.813561e+05   5.605485e+05   5.437382e+05   1.385805e+02  -9.428001e+01  -8.894579e-20   8.690790e+05   5.111207e-38   0.000000e+00   0.000000e+00
     3192000   3.191999e-05   1.227293e+01   3.534194e+01   3.461321e+01   3.813561e+05   5.605485e+05   5.437382e+05   1.497936e+02  -1.019086e+02   6.141440e-20   8.690790e+05   5.971810e-38   0.000000e+00   0.000000e+00
     3200000   3.199999e-05   1.230344e+01   3.538679e+01   3.465671e+01   3.813561e+05   5.605485e+05   5.437382e+05   1.904510e+02  -1.295689e+02   7.901092e-20   8.690790e+05   9.652994e-38   0.000000e+00   0.000000e+00
     3208000   3.207999e-05   1.233395e+01   3.543163e+01   3.470021e+01   3.813561e+05   5.605485e+05   5.437382e+05   1.659762e+02  -1.129181e+02   1.243054e-19   8.690790e+05   7.331686e-38   0.000000e+00   0.000000e+00
     3216000   3.215999e-05   1.236445e+01   3.547648e+01   3.474370e+01   3.813561e+05   5.605485e+05   5.437382e+05   1.524753e+02  -1.037330e+02  -4.317188e-21   8.690790e+05   6.187453e-38   0.000000e+00   0.000000e+00
     3224000   3.223999e-05   1.239496e+01   3.552132e+01   3.478720e+01   3.813561e+05   5.605485e+05   5.437382e+05   1.871380e+02  -1.273150e+02  -1.445035e-19   8.690790e+05   9.319942e-38   0.000000e+00   0.000000e+00
     3232000   3.231999e-05   1.242547e+01   3.556616e+01   3.483070e+01   3.813561e+05   5.605485e+05   5.437382e+05   1.646980e+02  -1.120485e+02  -5.043742e-21   8.690790e+05   7.219209e-38   0.000000e+00   0.000000e+00
     3240000   3.239999e-05   1.245598e+01   3.561101e+01   3.487420e+01   3.813561e+05   5.605485e+05   5.437382e+05   1.663785e+02  -1.131918e+02   4.397827e-20   8.690790e+05   7.367092e-38   0.000000e+00   0.000000e+00
     3248000   3.247999e-05   1.248649e+01   3.565585e+01   3.491770e+01   3.813561e+05   5.605485e+05   5.437382e+05   1.568990e+02  -1.067426e+02   3.923759e-20   8.690790e+05   6.551601e-38   0.000000e+00   0.000000e+00
     3256000   3.255999e-05   1.251700e+01   3.570070e+01   3.496120e+01   3.813561e+05   5.605485e+05   5.437382e+05   1.738245e+02  -1.182575e+02  -4.627558e-20   8.690790e+05   8.041706e-38   0.000000e+00   0.000000e+00
     3264000   3.263999e-05   1.254751e+01   3.574554e+01   3.500470e+01   3.813561e+05   5.605485e+05   5.437382e+05   1.673312e+02  -1.138399e+02  -1.165888e-19   8.690790e+05   7.451610e-38   0.000000e+00   0.000000e+00
     3272000   3.271999e-05   1.257801e+01   3.579038e+01   3.504820e+01   3.813561e+05   5.605485e+05   5.437382e+05   1.783806e+02  -1.213571e+02   9.721188e-20   8.690790e+05   8.468217e-38   0.000000e+00   0.000000e+00
     3280000   3.279999e-05   1.260852e+01   3.583523e+01   3.509170e+01   3.813561e+05   5.605485e+05   5.437382e+05   1.515960e+02  -1.031348e+02  -6.234637e-20   8.690790e+05   6.116133e-38   0.000000e+00   0.000000e+00
     3288000   3.287999e-05   1.263903e+01   3.588007e+01   3.513520e+01   3.813561e+05   5.605485e+05   5.437382e+05   1.720020e+02  -1.170176e+02  -7.911652e-20   8.690790e+05   7.873337e-38   0.000000e+00   0.000000e+00
     3296000   3.295999e-05   1.266954e+01   3.592491e+01   3.517870e+01   3.813561e+05   5.605485e+05   5.437382e+05   1.527798e+02  -1.039402e+02  -1.537444e-19   8.690790e+05   6.212014e-38   0.000000e+00   0.000000e+00
     3304000   3.303999e-05   1.270005e+01   3.596976e+01   3.522219e+01   3.813561e+05   5.605485e+05   5.437382e+05   1.698701e+02  -1.155672e+02  -1.152731e-19   8.690790e+05   7.679489e-38   0.000000e+00   0.000000e+00
     3312000   3.311999e-05   1.273056e+01   3.601460e+01   3.526569e+01   3.813561e+05   5.605485e+05   5.437382e+05   1.590492e+02  -1.082054e+02  -5.243725e-20   8.690790e+05   6.732638e-38   0.000000e+00   0.000000e+00
     3320000   3.319999e-05   1.276106e+01   3.605945e+01   3.530919e+01   3.813561e+05   5.605485e+05   5.437382e+05   1.739417e+02  -1.183372e+02  -5.536210e-20   8.690790e+05   8.051952e-38   0.000000e+00   0.000000e+00
     3328000   3.327999e-05   1.279157e+01   3.610429e+01   3.535269e+01   3.813561e+05   5.605485e+05   5.437382e+05   1.554499e+02  -1.057567e+02   3.870432e-20   8.690790e+05   6.431331e-38   0.000000e+00   0.000000e+00
     3336000   3.335999e-05   1.282208e+01   3.614913e+01   3.539619e+01   3.813561e+05   5.605485e+05   5.437382e+05   1.839051e+02  -1.251155e+02  -8.895329e-20   8.690790e+05   9.000928e-38   0.000000e+00   0.000000e+00
     3344000   3.343999e-05   1.285259e+01   3.619398e+01   3.543969e+01   3.813561e+05   5.605485e+05   5.437382e+05   1.392002e+02  -9.470160e+01   2.793769e-20   8.690790e+05   5.157098e-38   0.000000e+00   0.000000e+00
     3352000   3.351999e-05   1.288310e+01   3.623882e+01   3.548319e+01   3.813561e+05   5.605485e+05   5.437382e+05   1.830506e+02  -1.245342e+02   4.493574e-20   8.690790e+05   8.917370e-38   0.000000e+00   0.000000e+00
     3360000   3.359999e-05   1.291361e+01   3.628367e+01   3.552669e+01   3.813561e+05   5.605485e+05   5.437382e+05   1.550009e+02  -1.054513e+02   5.084245e-21   8.690790e+05   6.394072e-38   0.000000e+00   0.000000e+00
     3368000   3.367999e-05   1.294412e+01   3.632851e+01   3.557019e+01   3.813561e+05   5.605485e+05   5.437382e+05   1.681579e+02  -1.144023e+02   9.089534e-21   8.690790e+05   7.525364e-38   0.000000e+00   0.000000e+00
     3376000   3.375999e-05   1.297462e+01   3.637335e+01   3.561369e+01   3.813561e+05   5.605485e+05   5.437382e+05   1.650466e+02  -1.122856e+02  -9.036244e-20   8.690790e+05   7.249644e-38   0.000000e+00   0.000000e+00
     3384000   3.383999e-05   1.300513e+01   3.641820e+01   3.565718e+01   3.813561e+05   5.605485e+05   5.437382e+05   1.791337e+02  -1.218695e+02   1.044491e-19   8.690790e+05   8.539997e-38   0.000000e+00   0.000000e+00
     3392000   3.391999e-05   1.303564e+01   3.646304e+01   3.570068e+01   3.813561e+05   5.605485e+05   5.437382e+05   1.643806e+02  -1.118326e+02   1.078591e-19   8.690790e+05   7.191484e-38   0.000000e+00   0.000000e+00
     3400000   3.399999e-05   1.306615e+01   3.650788e+01   3.574418e+01   3.813561e+05   5.605485e+05   5.437382e+05   1.818036e+02  -1.236859e+02  -4.966480e-20   8.690790e+05   8.796490e-38   0.000000e+00   0.000000e+00
     3408000   3.407999e-05   1.309666e+01   3.655273e+01   3.578768e+01   3.813561e+05   5.605485e+05   5.437382e+05   1.800204e+02  -1.224727e+02  -4.251172e-20   8.690790e+05   8.624776e-38   0.000000e+00   0.000000e+00
     3416000   3.415999e-05   1.312717e+01   3.659757e+01   3.583118e+01   3.813561e+05   5.605485e+05   5.437382e+05   1.676350e+02  -1.140466e+02  -8.380181e-20   8.690790e+05   7.478767e-38   0.000000e+00   0.000000e+00
     3424000   3.423999e-05   1.315768e+01   3.664242e+01   3.587468e+01   3.813561e+05   5.605485e+05   5.437382e+05   1.508954e+02  -1.026582e+02   9.655102e-20   8.690790e+05   6.059878e-38   0.000000e+00   0.000000e+00
     3432000   3.431999e-05   1.318818e+01   3.668726e+01   3.591818e+01   3.813561e+05   5.605485e+05   5.437382e+05   1.489327e+02  -1.013229e+02   2.934789e-20   8.690790e+05   5.903219e-38   0.000000e+00   0.000000e+00
     3440000   3.439999e-05   1.321869e+01   3.673210e+01   3.596168e+01   3.813561e+05   5.605485e+05   5.437382e+05   1.607541e+02  -1.093653e+02  -6.755456e-20   8.690790e+05   6.877491e-38   0.000000e+00   0.000000e+00
     3448000   3.447999e-05   1.324920e+01   3.677695e+01   3.600518e+01   3.813561e+05   5.605485e+05   5.437382e+05   1.433753e+02  -9.754203e+01   2.360144e-20   8.690790e+05   5.470919e-38   0.000000e+00   0.000000e+00
     3456000   3.455999e-05   1.327971e+01   3.682179e+01   3.604868e+01   3.813561e+05   5.605485e+05   5.437382e+05   1.813983e+02  -1.234101e+02   4.003088e-20   8.690790e+05   8.756941e-38   0.000000e+00   0.000000e+00
     3464000   3.463999e-05   1.331022e+01   3.686664e+01   3.609218e+01   3.813561e+05   5.605485e+05   5.437382e+05   1.407414e+02  -9.575013e+01   3.382988e-20   8.690790e+05   5.271910e-38   0.000000e+00   0.000000e+00
     3472000   3.471999e-05   1.334073e+01   3.691148e+01   3.613567e+01   3.813561e+05   5.605485e+05   5.437382e+05   1.527312e+02  -1.039071e+02  -8.488589e-20   8.690790e+05   6.207854e-38   0.000000e+00   0.000000e+00
     3480000   3.479999e-05   1.337123e+01   3.695632e+01   3.617917e+01   3.813561e+05   5.605485e+05   5.437382e+05   1.768259e+02  -1.202994e+02   1.058556e-19   8.690790e+05   8.321089e-38   0.000000e+00   0.000000e+00
     3488000   3.487999e-05   1.340174e+01   3.700117e+01   3.622267e+01   3.813561e+05   5.605485e+05   5.437382e+05   1.666640e+02  -1.133860e+02   5.874640e-20   8.690790e+05   7.392439e-38   0.000000e+00   0.000000e+00
     3496000   3.495999e-05   1.343225e+01   3.704601e+01   3.626617e+01   3.813561e+05   5.605485e+05   5.437382e+05   1.651462e+02  -1.123534e+02  -8.817507e-20   8.690790e+05   7.258411e-38   0.000000e+00   0.000000e+00
     3504000   3.503999e-05   1.346276e+01   3.709086e+01   3.630967e+01   3.813561e+05   5.605485e+05   5.437382e+05   1.483081e+02  -1.008980e+02  -2.178451e-20   8.690790e+05   5.853930e-38   0.000000e+00   0.000000e+00
     3512000   3.511999e-05   1.349327e+01   3.713570e+01   3.635317e+01   3.813561e+05   5.605485e+05   5.437382e+05   1.543101e+02  -1.049813e+02   1.489038e-20   8.690790e+05   6.337268e-38   0.000000e+00   0.000000e+00
     3520000   3.519999e-05   1.352378e+01   3.718054e+01   3.639667e+01   3.813561e+05   5.605485e+05   5.437382e+05   1.484408e+02  -1.009883e+02  -2.617880e-21   8.690790e+05   5.864380e-38   0.000000e+00   0.000000e+00
     3528000   3.527999e-05   1.355429e+01   3.722539e+01   3.644017e+01   3.813561e+05   5.605485e+05   5.437382e+05   1.624644e+02  -1.105289e+02   3.752278e-21   8.690790e+05   7.024457e-38   0.000000e+00   0.000000e+00
     3536000   3.535999e-05   1.358479e+01   3.727023e+01   3.648367e+01   3.813561e+05   5.605485e+05   5.437382e+05   1.730185e+02  -1.177091e+02  -5.582857e-20   8.690790e+05   7.966757e-38   0.000000e+00   0.000000e+00
     3544000   3.543999e-05   1.361530e+01   3.731507e+01   3.652717e+01   3.813561e+05   5.605485e+05   5.437382e+05   1.490895e+02  -1.014296e+02  -6.735701e-20   8.690790e+05   5.915476e-38   0.000000e+00   0.000000e+00
     3552000   3.551999e-05   1.364581e+01   3.735992e+01   3.657067e+01   3.813561e+05   5.605485e+05   5.437382e+05   1.594920e+02  -1.085067e+02  -7.638150e-20   8.690790e+05   6.769771e-38   0.000000e+00   0.000000e+00
     3560000   3.559999e-05   1.367632e+01   3.740476e+01   3.661416e+01   3.813561e+05   5.605485e+05   5.437382e+05   1.438756e+02  -9.788240e+01  -4.163115e-20   8.690790e+05   5.509094e-38   0.000000e+00   0.000000e+00
     3568000   3.567999e-05   1.370683e+01   3.744961e+01   3.665766e+01   3.813561e+05   5.605485e+05   5.437382e+05   1.571852e+02  -1.069373e+02  -5.521832e-20   8.690790e+05   6.575200e-38   0.000000e+00   0.000000e+00
     3576000   3.575999e-05   1.373734e+01   3.749445e+01   3.670116e+01   3.813561e+05   5.605485e+05   5.437382e+05   1.653097e+02  -1.124646e+02  -1.034009e-19   8.690790e+05   7.272752e-38   0.000000e+00   0.000000e+00
     3584000   3.583999e-05   1.376784e+01   3.753929e+01   3.674466e+01   3.813561e+05   5.605485e+05   5.437382e+05   1.386162e+02  -9.430430e+01  -1.086665e-19   8.690790e+05   5.113903e-38   0.000000e+00   0.000000e+00
     3592000   3.591999e-05   1.379835e+01   3.758414e+01   3.678816e+01   3.813561e+05   5.605485e+05   5.437382e+05   1.113526e+02  -7.575615e+01   6.418265e-20   8.690790e+05   3.300126e-38   0.000000e+00   0.000000e+00
     3600000   3.599999e-05   1.382886e+01   3.762898e+01   3.683166e+01   3.813561e+05   5.605485e+05   5.437382e+05   1.593661e+02  -1.084210e+02   1.681493e-20   8.690790e+05   6.759136e-38   0.000000e+00   0.000000e+00
     3608000   3.607999e-05   1.385937e+01   3.767383e+01   3.687516e+01   3.813561e+05   5.605485e+05   5.437382e+05   1.651969e+02  -1.123879e+02   2.745145e-20   8.690790e+05   7.262789e-38   0.000000e+00   0.000000e+00
     3616000   3.615999e-05   1.388988e+01   3.771867e+01   3.691866e+01   3.813561e+05   5.605485e+05   5.437382e+05   1.472529e+02  -1.001801e+02   1.112230e-19   8.690790e+05   5.770635e-38   0.000000e+00   0.000000e+00
     3624000   3.623999e-05   1.392039e+01   3.776351e+01   3.696216e+01   3.813561e+05   5.605485e+05   5.437382e+05   1.399260e+02  -9.519541e+01   2.163847e-20   8.690790e+05   5.210788e-38   0.000000e+00   0.000000e+00
     3632000   3.631999e-05   1.395090e+01   3.780836e+01   3.700566e+01   3.813561e+05   5.605485e+05   5.437382e+05   1.422320e+02  -9.676427e+01  -6.870573e-20   8.690790e+05   5.383792e-38   0.000000e+00   0.000000e+00
     3640000   3.639999e-05   1.398140e+01   3.785320e+01   3.704915e+01   3.813561e+05   5.605485e+05   5.437382e+05   1.552769e+02  -1.056390e+02   4.471127e-20   8.690790e+05   6.416642e-38   0.000000e+00   0.000000e+00
     3648000   3.647999e-05   1.401191e+01   3.789804e+01   3.709265e+01   3.813561e+05   5.605485e+05   5.437382e+05   1.185276e+02  -8.063754e+01  -1.598948e-20   8.690790e+05   3.738993e-38   0.000000e+00   0.000000e+00
     3656000   3.655999e-05   1.404242e+01   3.794289e+01   3.713615e+01   3.813561e+05   5.605485e+05   5.437382e+05   1.270205e+02  -8.641543e+01  -3.876041e-20   8.690790e+05   4.294032e-38   0.000000e+00   0.000000e+00
     3664000   3.663999e-05   1.407293e+01   3.798773e+01   3.717965e+01   3.813561e+05   5.605485e+05   5.437382e+05   1.100459e+02  -7.486720e+01   9.136512e-20   8.690790e+05   3.223057e-38   0.000000e+00   0.000000e+00
     3672000   3.671999e-05   1.410344e+01   3.803258e+01   3.722315e+01   3.813561e+05   5.605485e+05   5.437382e+05   1.334068e+02  -9.076019e+01   1.194978e-19   8.690790e+05   4.736389e-38   0.000000e+00   0.000000e+00
     3680000   3.679999e-05   1.413395e+01   3.807742e+01   3.726665e+01   3.813561e+05   5.605485e+05   5.437382e+05   1.476046e+02  -1.004193e+02  -8.346153e-20   8.690790e+05   5.798190e-38   0.000000e+00   0.000000e+00
     3688000   3.687999e-05   1.416446e+01   3.812226e+01   3.731015e+01   3.813561e+05   5.605485e+05   5.437382e+05   1.295749e+02  -8.815326e+01  -4.290289e-20   8.690790e+05   4.468584e-38   0.000000e+00   0.000000e+00
     3696000   3.695999e-05   1.419496e+01   3.816711e+01   3.735365e+01   3.813561e+05   5.605485e+05   5.437382e+05   9.964704e+01  -6.779255e+01   1.331138e-19   8.690790e+05   2.642803e-38   0.000000e+00   0.000000e+00
     3704000   3.703999e-05   1.422547e+01   3.821195e+01   3.739715e+01   3.813561e+05   5.605485e+05   5.437382e+05   1.333736e+02  -9.073765e+01   9.099988e-20   8.690790e+05   4.734433e-38   0.000000e+00   0.000000e+00
     3712000   3.711999e-05   1.425598e+01   3.825680e+01   3.744065e+01   3.813561e+05   5.605485e+05   5.437382e+05   1.341632e+02  -9.127484e+01  -5.409884e-20   8.690790e+05   4.790417e-38   0.000000e+00   0.000000e+00
     3720000   3.719999e-05   1.428649e+01   3.830164e+01   3.748415e+01   3.813561e+05   5.605485e+05   5.437382e+05   1.322112e+02  -8.994679e+01  -3.162612e-20   8.690790e+05   4.652116e-38   0.000000e+00   0.000000e+00
     3728000   3.727999e-05   1.431700e+01   3.834648e+01   3.752764e+01   3.813561e+05   5.605485e+05   5.437382e+05   1.423277e+02  -9.682932e+01  -6.990457e-20   8.690790e+05   5.391326e-38   0.000000e+00   0.000000e+00
     3736000   3.735999e-05   1.434751e+01   3.839133e+01   3.757114e+01   3.813561e+05   5.605485e+05   5.437382e+05   1.243752e+02  -8.461577e+01   5.061847e-20   8.690790e+05   4.117052e-38   0.000000e+00   0.000000e+00
     3744000   3.743999e-05   1.437801e+01   3.843617e+01   3.761464e+01   3.813561e+05   5.605485e+05   5.437382e+05   1.103410e+02  -7.506794e+01   7.756592e-21   8.690790e+05   3.240459e-38   0.000000e+00   0.000000e+00
     3752000   3.751999e-05   1.440852e+01   3.848102e+01   3.765814e+01   3.813561e+05   5.605485e+05   5.437382e+05   1.463039e+02  -9.953445e+01  -7.727650e-21   8.690790e+05   5.696424e-38   0.000000e+00   0.000000e+00
     3760000   3.759999e-05   1.443903e+01   3.852586e+01   3.770164e+01   3.813561e+05   5.605485e+05   5.437382e+05   1.324007e+02  -9.007577e+01   9.574020e-20   8.690790e+05   4.665346e-38   0.000000e+00   0.000000e+00
     3768000   3.767999e-05   1.446954e+01   3.857070e+01   3.774514e+01   3.813561e+05   5.605485e+05   5.437382e+05   1.326430e+02  -9.024060e+01  -3.867636e-20   8.690790e+05   4.682436e-38   0.000000e+00   0.000000e+00
     3776000   3.775999e-05   1.450005e+01   3.861555e+01   3.778864e+01   3.813561e+05   5.605485e+05   5.437382e+05   1.292796e+02  -8.795238e+01   8.624681e-21   8.690790e+05   4.447995e-38   0.000000e+00   0.000000e+00
     3784000   3.783999e-05   1.453056e+01   3.866039e+01   3.783214e+01   3.813561e+05   5.605485e+05   5.437382e+05   1.159201e+02  -7.886355e+01   8.047941e-21   8.690790e+05   3.576298e-38   0.000000e+00   0.000000e+00
     3792000   3.791999e-05   1.456107e+01   3.870523e+01   3.787564e+01   3.813561e+05   5.605485e+05   5.437382e+05   1.074079e+02  -7.307245e+01  -5.699929e-20   8.690790e+05   3.070184e-38   0.000000e+00   0.000000e+00
     3800000   3.799999e-05   1.459157e+01   3.875008e+01   3.791914e+01   3.813561e+05   5.605485e+05   5.437382e+05   1.266529e+02  -8.616534e+01   6.947807e-21   8.690790e+05   4.268981e-38   0.000000e+00   0.000000e+00
     3808000   3.807999e-05   1.462208e+01   3.879492e+01   3.796263e+01   3.813561e+05   5.605485e+05   5.437382e+05   9.492872e+01  -6.458255e+01   4.672331e-20   8.690790e+05   2.398323e-38   0.000000e+00   0.000000e+00
     3816000   3.815999e-05   1.465259e+01   3.883977e+01   3.800613e+01   3.813561e+05   5.605485e+05   5.437382e+05   1.113463e+02  -7.575187e+01   1.706805e-21   8.690790e+05   3.299540e-38   0.000000e+00   0.000000e+00
     3824000   3.823999e-05   1.468310e+01   3.888461e+01   3.804963e+01   3.813561e+05   5.605485e+05   5.437382e+05   1.127351e+02  -7.669673e+01   8.723799e-20   8.690790e+05   3.382365e-38   0.000000e+00   0.000000e+00
     3832000   3.831999e-05   1.471361e+01   3.892945e+01   3.809313e+01   3.813561e+05   5.605485e+05   5.437382e+05   1.130585e+02  -7.691674e+01  -3.518682e-20   8.690790e+05   3.401843e-38   0.000000e+00   0.000000e+00
     3840000   3.839999e-05   1.474412e+01   3.897430e+01   3.813663e+01   3.813561e+05   5.605485e+05   5.437382e+05   1.022545e+02  -6.956649e+01  -1.139076e-20   8.690790e+05   2.782774e-38   0.000000e+00   0.000000e+00
     3848000   3.847999e-05   1.477463e+01   3.901914e+01   3.818013e+01   3.813561e+05   5.605485e+05   5.437382e+05   1.167786e+02  -7.944760e+01   6.425135e-20   8.690790e+05   3.629293e-38   0.000000e+00   0.000000e+00
     3856000   3.855999e-05   1.480513e+01   3.906399e+01   3.822363e+01   3.813561e+05   5.605485e+05   5.437382e+05   1.108146e+02  -7.539014e+01   4.143401e-20   8.690790e+05   3.268210e-38   0.000000e+00   0.000000e+00
     3864000   3.863999e-05   1.483564e+01   3.910883e+01   3.826713e+01   3.813561e+05   5.605485e+05   5.437382e+05   1.052986e+02  -7.163749e+01  -9.346318e-20   8.690790e+05   2.950890e-38   0.000000e+00   0.000000e+00
     3872000   3.871999e-05   1.486615e+01   3.915367e+01   3.831063e+01   3.813561e+05   5.605485e+05   5.437382e+05   1.009357e+02  -6.866925e+01   1.161278e-19   8.690790e+05   2.711355e-38   0.000000e+00   0.000000e+00
     3880000   3.879999e-05   1.489666e+01   3.919852e+01   3.835413e+01   3.813561e+05   5.605485e+05   5.437382e+05   1.069480e+02  -7.275957e+01   1.350038e-20   8.690790e+05   3.043983e-38   0.000000e+00   0.000000e+00
     3888000   3.887999e-05   1.492717e+01   3.924336e+01   3.839763e+01   3.813561e+05   5.605485e+05   5.437382e+05   8.926062e+01  -6.072639e+01  -1.482990e-20   8.690790e+05   2.120454e-38   0.000000e+00   0.000000e+00
     3896000   3.895999e-05   1.495768e+01   3.928821e+01   3.844112e+01   3.813561e+05   5.605485e+05   5.437382e+05   1.173384e+02  -7.982844e+01   2.077831e-20   8.690790e+05   3.664090e-38   0.000000e+00   0.000000e+00
     3904000   3.903999e-05   1.498818e+01   3.933305e+01   3.848462e+01   3.813561e+05   5.605485e+05   5.437382e+05   1.048824e+02  -7.135428e+01   6.593692e-20   8.690790e+05   2.927551e-38   0.000000e+00   0.000000e+00
     3912000   3.911999e-05   1.501869e+01   3.937789e+01   3.852812e+01   3.813561e+05   5.605485e+05   5.437382e+05   9.090944e+01  -6.184813e+01  -3.138609e-20   8.690790e+05   2.199544e-38   0.000000e+00   0.000000e+00
     3920000   3.919999e-05   1.504920e+01   3.942274e+01   3.857162e+01   3.813561e+05   5.605485e+05   5.437382e+05   1.020516e+02  -6.942843e+01   1.171428e-20   8.690790e+05   2.771585e-38   0.000000e+00   0.000000e+00
     3928000   3.927999e-05   1.507971e+01   3.946758e+01   3.861512e+01   3.813561e+05   5.605485e+05   5.437382e+05   1.090407e+02  -7.418330e+01   7.661321e-21   8.690790e+05   3.164272e-38   0.000000e+00   0.000000e+00
     3936000   3.935999e-05   1.511022e+01   3.951242e+01   3.865862e+01   3.813561e+05   5.605485e+05   5.437382e+05   9.938040e+01  -6.761115e+01  -2.916086e-20   8.690790e+05   2.628416e-38   0.000000e+00   0.000000e+00
     3944000   3.943999e-05   1.514073e+01   3.955727e+01   3.870212e+01   3.813561e+05   5.605485e+05   5.437382e+05   8.481593e+01  -5.770255e+01   1.185701e-20   8.690790e+05   1.914623e-38   0.000000e+00   0.000000e+00
     3952000   3.951999e-05   1.517124e+01   3.960211e+01   3.874562e+01   3.813561e+05   5.605485e+05   5.437382e+05   1.044977e+02  -7.109257e+01  -3.669498e-21   8.690790e+05   2.906053e-38   0.000000e+00   0.000000e+00
     3960000   3.959999e-05   1.520174e+01   3.964696e+01   3.878912e+01   3.813561e+05   5.605485e+05   5.437382e+05   7.960989e+01  -5.416074e+01   4.342943e-20   8.690790e+05   1.686857e-38   0.000000e+00   0.000000e+00
     3968000   3.967999e-05   1.523225e+01   3.969180e+01   3.883262e+01   3.813561e+05   5.605485e+05   5.437382e+05   8.077699e+01  -5.495475e+01   3.044004e-20   8.690790e+05   1.736543e-38   0.000000e+00   0.000000e+00
     3976000   3.975999e-05   1.526276e+01   3.973664e+01   3.887611e+01   3.813561e+05   5.605485e+05   5.437382e+05   8.777426e+01  -5.971519e+01   6.225578e-20   8.690790e+05   2.050355e-38   0.000000e+00   0.000000e+00
     3984000   3.983999e-05   1.529327e+01   3.978149e+01   3.891961e+01   3.813561e+05   5.605485e+05   5.437382e+05   1.054929e+02  -7.176963e+01  -6.535107e-20   8.690790e+05   2.961643e-38   0.000000e+00   0.000000e+00
     3992000   3.991999e-05   1.532378e+01   3.982633e+01   3.896311e+01   3.813561e+05   5.605485e+05   5.437382e+05   7.710589e+01  -5.245720e+01  -2.371000e-20   8.690790e+05   1.582240e-38   0.000000e+00   0.000000e+00
     4000000   3.999999e-05   1.535429e+01   3.987118e+01   3.900661e+01   3.813561e+05   5.605485e+05   5.437382e+05   8.754601e+01  -5.955989e+01  -1.618163e-20   8.690790e+05   2.039690e-38   0.000000e+00   0.000000e+00
     4008000   4.007999e-05   1.538479e+01   3.991602e+01   3.905011e+01   3.813561e+05   5.605485e+05   5.437382e+05   7.808858e+01  -5.312575e+01  -7.879735e-21   8.690790e+05   1.622857e-38   0.000000e+00   0.000000e+00
     4016000   4.015999e-05   1.541530e+01   3.996086e+01   3.909361e+01   3.813561e+05   5.605485e+05   5.437382e+05   9.187114e+01  -6.250240e+01  -4.202429e-20   8.690790e+05   2.246201e-38   0.000000e+00   0.000000e+00
     4024000   4.023999e-05   1.544581e+01   4.000571e+01   3.913711e+01   3.813561e+05   5.605485e+05   5.437382e+05   8.718607e+01  -5.931502e+01  -3.063899e-20   8.690790e+05   2.022939e-38   0.000000e+00   0.000000e+00
     4032000   4.031999e-05   1.547632e+01   4.005055e+01   3.918061e+01   3.813561e+05   5.605485e+05   5.437382e+05   9.889499e+01  -6.728092e+01   1.135746e-20   8.690790e+05   2.602789e-38   0.000000e+00   0.000000e+00
     4040000   4.039999e-05   1.550683e+01   4.009539e+01   3.922411e+01   3.813561e+05   5.605485e+05   5.437382e+05   7.133016e+01  -4.852782e+01   5.442982e-20   8.690790e+05   1.354161e-38   0.000000e+00   0.000000e+00
     4048000   4.047999e-05   1.553734e+01   4.014024e+01   3.926761e+01   3.813561e+05   5.605485e+05   5.437382e+05   7.326630e+01  -4.984503e+01   4.165638e-20   8.690790e+05   1.428590e-38   0.000000e+00   0.000000e+00
     4056000   4.055999e-05   1.556785e+01   4.018508e+01   3.931111e+01   3.813561e+05   5.605485e+05   5.437382e+05   7.739058e+01  -5.265088e+01  -3.258060e-21   8.690790e+05   1.593932e-38   0.000000e+00   0.000000e+00
     4064000   4.063999e-05   1.559835e+01   4.022993e+01   3.935460e+01   3.813561e+05   5.605485e+05   5.437382e+05   9.603282e+01  -6.533370e+01   2.648192e-20   8.690790e+05   2.454263e-38   0.000000e+00   0.000000e+00
     4072000   4.071999e-05   1.562886e+01   4.027477e+01   3.939810e+01   3.813561e+05   5.605485e+05   5.437382e+05   4.227072e+01  -2.875791e+01  -3.227318e-21   8.690790e+05   4.756096e-39   0.000000e+00   0.000000e+00
     4080000   4.079999e-05   1.565937e+01   4.031961e+01   3.944160e+01   3.813561e+05   5.605485e+05   5.437382e+05   6.765023e+01  -4.602427e+01   3.732059e-20   8.690790e+05   1.217916e-38   0.000000e+00   0.000000e+00
     4088000   4.087999e-05   1.568988e+01   4.036446e+01   3.948510e+01   3.813561e+05   5.605485e+05   5.437382e+05   8.291584e+01  -5.640987e+01   1.188085e-20   8.690790e+05   1.829609e-38   0.000000e+00   0.000000e+00
     4096000   4.095999e-05   1.572039e+01   4.040930e+01   3.952860e+01   3.813561e+05   5.605485e+05   5.437382e+05   6.079533e+01  -4.136069e+01  -4.565243e-21   8.690790e+05   9.836764e-39   0.000000e+00   0.000000e+00
     4104000   4.103999e-05   1.575090e+01   4.045415e+01   3.957210e+01   3.813561e+05   5.605485e+05   5.437382e+05   5.600372e+01  -3.810083e+01   5.600182e-20   8.690790e+05   8.347306e-39   0.000000e+00   0.000000e+00
     4112000   4.111999e-05   1.578141e+01   4.049899e+01   3.961560e+01   3.813561e+05   5.605485e+05   5.437382e+05   6.850416e+01  -4.660521e+01   3.617408e-20   8.690790e+05   1.248883e-38   0.000000e+00   0.000000e+00
     4120000   4.119999e-05   1.581191e+01   4.054383e+01   3.965910e+01   3.813561e+05   5.605485e+05   5.437382e+05   6.539365e+01  -4.448905e+01   1.451148e-20   8.690790e+05   1.138110e-38   0.000000e+00   0.000000e+00
     4128000   4.127999e-05   1.584242e+01   4.058868e+01   3.970260e+01   3.813561e+05   5.605485e+05   5.437382e+05   4.774784e+01  -3.248414e+01  -2.268292e-20   8.690790e+05   6.067993e-39   0.000000e+00   0.000000e+00
     4136000   4.135999e-05   1.587293e+01   4.063352e+01   3.974610e+01   3.813561e+05   5.605485e+05   5.437382e+05   6.275918e+01  -4.269675e+01   4.990349e-20   8.690790e+05   1.048191e-38   0.000000e+00   0.000000e+00
     4144000   4.143999e-05   1.590344e+01   4.067837e+01   3.978960e+01   3.813561e+05   5.605485e+05   5.437382e+05   3.814768e+01  -2.595289e+01   9.426407e-21   8.690790e+05   3.873221e-39   0.000000e+00   0.000000e+00
     4152000   4.151999e-05   1.593395e+01   4.072321e+01   3.983309e+01   3.813561e+05   5.605485e+05   5.437382e+05   5.455542e+01  -3.711551e+01  -9.223266e-21   8.690790e+05   7.921343e-39   0.000000e+00   0.000000e+00
     4160000   4.159999e-05   1.596446e+01   4.076805e+01   3.987659e+01   3.813561e+05   5.605485e+05   5.437382e+05   4.461066e+01  -3.034983e+01  -9.140368e-21   8.690790e+05   5.296694e-39   0.000000e+00   0.000000e+00
     4168000   4.167999e-05   1.599496e+01   4.081290e+01   3.992009e+01   3.813561e+05   5.605485e+05   5.437382e+05   6.392651e+01  -4.349092e+01  -1.670152e-20   8.690790e+05   1.087608e-38   0.000000e+00   0.000000e+00
     4176000   4.175999e-05   1.602547e+01   4.085774e+01   3.996359e+01   3.813561e+05   5.605485e+05   5.437382e+05   4.853421e+01  -3.301913e+01  -4.640954e-21   8.690790e+05   6.269523e-39   0.000000e+00   0.000000e+00
     4184000   4.183999e-05   1.605598e+01   4.090258e+01   4.000709e+01   3.813561e+05   5.605485e+05   5.437382e+05   5.455945e+01  -3.711825e+01   1.207115e-20   8.690790e+05   7.922653e-39   0.000000e+00   0.000000e+00
     4192000   4.191999e-05   1.608649e+01   4.094743e+01   4.005059e+01   3.813561e+05   5.605485e+05   5.437382e+05   4.076562e+01  -2.773395e+01   3.854505e-20   8.690790e+05   4.423114e-39   0.000000e+00   0.000000e+00
     4200000   4.199999e-05   1.611700e+01   4.099227e+01   4.009409e+01   3.813561e+05   5.605485e+05   5.437382e+05   5.607098e+01  -3.814659e+01  -3.052691e-21   8.690790e+05   8.367302e-39   0.000000e+00   0.000000e+00
     4208000   4.207999e-05   1.614751e+01   4.103712e+01   4.013759e+01   3.813561e+05   5.605485e+05   5.437382e+05   5.008485e+01  -3.407406e+01  -1.847958e-20   8.690790e+05   6.675696e-39   0.000000e+00   0.000000e+00
     4216000   4.215999e-05   1.617802e+01   4.108196e+01   4.018109e+01   3.813561e+05   5.605485e+05   5.437382e+05   5.904122e+01  -4.016733e+01  -7.222334e-20   8.690790e+05   9.276785e-39   0.000000e+00   0.000000e+00
     4224000   4.223999e-05   1.620852e+01   4.112680e+01   4.022459e+01   3.813561e+05   5.605485e+05   5.437382e+05   3.582015e+01  -2.436941e+01  -9.467513e-23   8.690790e+05   3.414753e-39   0.000000e+00   0.000000e+00
     4232000   4.231999e-05   1.623903e+01   4.117165e+01   4.026808e+01   3.813561e+05   5.605485e+05   5.437382e+05   3.542858e+01  -2.410301e+01   3.496497e-21   8.690790e+05   3.340504e-39   0.000000e+00   0.000000e+00
     4240000   4.239999e-05   1.626954e+01   4.121649e+01   4.031158e+01   3.813561e+05   5.605485e+05   5.437382e+05   2.959379e+01  -2.013345e+01   8.762335e-21   8.690790e+05   2.331010e-39   0.000000e+00   0.000000e+00
     4248000   4.247999e-05   1.630005e+01   4.126134e+01   4.035508e+01   3.813561e+05   5.605485e+05   5.437382e+05   5.116232e+01  -3.480710e+01  -1.727331e-20   8.690790e+05   6.965562e-39   0.000000e+00   0.000000e+00
     4256000   4.255999e-05   1.633056e+01   4.130618e+01   4.039858e+01   3.813561e+05   5.605485e+05   5.437382e+05   4.527393e+01  -3.080107e+01   2.116900e-20   8.690790e+05   5.455424e-39   0.000000e+00   0.000000e+00
     4264000   4.263999e-05   1.636107e+01   4.135102e+01   4.044208e+01   3.813561e+05   5.605485e+05   5.437382e+05   3.425251e+01  -2.330290e+01  -4.253948e-21   8.690790e+05   3.122652e-39   0.000000e+00   0.000000e+00
     4272000   4.271999e-05   1.639158e+01   4.139587e+01   4.048558e+01   3.813561e+05   5.605485e+05   5.437382e+05   2.307072e+01  -1.569563e+01  -2.701384e-21   8.690790e+05   1.416701e-39   0.000000e+00   0.000000e+00
     4280000   4.279999e-05   1.642208e+01   4.144071e+01   4.052908e+01   3.813561e+05   5.605485e+05   5.437382e+05   4.076081e+01  -2.773067e+01  -4.860167e-21   8.690790e+05   4.421491e-39   0.000000e+00   0.000000e+00
     4288000   4.287999e-05   1.645259e+01   4.148556e+01   4.057258e+01   3.813561e+05   5.605485e+05   5.437382e+05   4.831483e+01  -3.286988e+01  -2.296806e-20   8.690790e+05   6.212227e-39   0.000000e+00   0.000000e+00
