     timestep     time              x             y              z              vx             vy             vz             ax             ay             az         v_magnitude      ELoss        Electronic      Nuclear
           0   0.000000e+00   1.000000e-01   8.013681e+00   1.617539e+01   6.968757e+05  -2.595347e+05   4.497825e+05   0.000000e+00   0.000000e+00   0.000000e+00   8.690790e+05   0.000000e+00   0.000000e+00   0.000000e+00
        8000   7.999000e-08   1.557501e-01   7.992918e+00   1.621137e+01   6.968757e+05  -2.595347e+05   4.497825e+05   0.000000e+00   0.000000e+00   0.000000e+00   8.690790e+05   0.000000e+00   0.000000e+00   0.000000e+00
       16000   1.599900e-07   2.115001e-01   7.972155e+00   1.624736e+01   6.968757e+05  -2.595347e+05   4.497825e+05   0.000000e+00   0.000000e+00   0.000000e+00   8.690790e+05   0.000000e+00   0.000000e+00   0.000000e+00
       24000   2.399900e-07   2.672502e-01   7.951393e+00   1.628334e+01   6.968757e+05  -2.595347e+05   4.497825e+05   0.000000e+00   0.000000e+00   0.000000e+00   8.690790e+05   0.000000e+00   0.000000e+00   0.000000e+00
       32000   3.199900e-07   3.230002e-01   7.930630e+00   1.631932e+01   6.968757e+05  -2.595347e+05   4.497825e+05   0.000000e+00   0.000000e+00   0.000000e+00   8.690790e+05   0.000000e+00   0.000000e+00   0.000000e+00
       40000   3.999900e-07   3.787503e-01   7.909867e+00   1.635530e+01   6.968757e+05  -2.595347e+05   4.497825e+05   0.000000e+00   0.000000e+00   0.000000e+00   8.690790e+05   0.000000e+00   0.000000e+00   0.000000e+00
       48000   4.799900e-07   4.345003e-01   7.889104e+00   1.639129e+01   6.968757e+05  -2.595347e+05   4.497825e+05   0.000000e+00   0.000000e+00   0.000000e+00   8.690790e+05   0.000000e+00   0.000000e+00   0.000000e+00
       56000   5.599900e-07   4.902504e-01   7.868342e+00   1.642727e+01   6.968757e+05  -2.595347e+05   4.497825e+05   0.000000e+00   0.000000e+00   0.000000e+00   8.690790e+05   0.000000e+00   0.000000e+00   0.000000e+00
       64000   6.399900e-07   5.460004e-01   7.847579e+00   1.646325e+01   6.968757e+05  -2.595347e+05   4.497825e+05   0.000000e+00   0.000000e+00   0.000000e+00   8.690790e+05   0.000000e+00   0.000000e+00   0.000000e+00
       72000   7.199900e-07   6.017505e-01   7.826816e+00   1.649924e+01   6.968757e+05  -2.595347e+05   4.497825e+05   0.000000e+00   0.000000e+00   0.000000e+00   8.690790e+05   0.000000e+00   0.000000e+00   0.000000e+00
       80000   7.999900e-07   6.575006e-01   7.806053e+00   1.653522e+01   6.968757e+05  -2.595347e+05   4.497825e+05   0.000000e+00   0.000000e+00   0.000000e+00   8.690790e+05   0.000000e+00   0.000000e+00   0.000000e+00
       88000   8.799900e-07   7.132506e-01   7.785290e+00   1.657120e+01   6.968757e+05  -2.595347e+05   4.497825e+05   0.000000e+00   0.000000e+00   0.000000e+00   8.690790e+05   0.000000e+00   0.000000e+00   0.000000e+00
       96000   9.599900e-07   7.690007e-01   7.764528e+00   1.660718e+01   6.968757e+05  -2.595347e+05   4.497825e+05   0.000000e+00   0.000000e+00   0.000000e+00   8.690790e+05   0.000000e+00   0.000000e+00   0.000000e+00
      104000   1.039990e-06   8.247507e-01   7.743765e+00   1.664317e+01   6.968757e+05  -2.595347e+05   4.497825e+05   0.000000e+00   0.000000e+00   0.000000e+00   8.690790e+05   0.000000e+00   0.000000e+00   0.000000e+00
      112000   1.119990e-06   8.805008e-01   7.723002e+00   1.667915e+01   6.968757e+05  -2.595347e+05   4.497825e+05   0.000000e+00   0.000000e+00   0.000000e+00   8.690790e+05   0.000000e+00   0.000000e+00   0.000000e+00
      120000   1.199990e-06   9.362508e-01   7.702239e+00   1.671513e+01   6.968757e+05  -2.595347e+05   4.497825e+05   0.000000e+00   0.000000e+00   0.000000e+00   8.690790e+05   0.000000e+00   0.000000e+00   0.000000e+00
      128000   1.279990e-06   9.920009e-01   7.681477e+00   1.675111e+01   6.968757e+05  -2.595347e+05   4.497825e+05   0.000000e+00   0.000000e+00   0.000000e+00   8.690790e+05   0.000000e+00   0.000000e+00   0.000000e+00
      136000   1.359990e-06   1.047751e+00   7.660714e+00   1.678710e+01   6.968757e+05  -2.595347e+05   4.497825e+05   0.000000e+00   0.000000e+00   0.000000e+00   8.690790e+05   0.000000e+00   0.000000e+00   0.000000e+00
      144000   1.439990e-06   1.103501e+00   7.639951e+00   1.682308e+01   6.968757e+05  -2.595347e+05   4.497825e+05   0.000000e+00   0.000000e+00   0.000000e+00   8.690790e+05   0.000000e+00   0.000000e+00   0.000000e+00
      152000   1.519990e-06   1.159251e+00   7.619188e+00   1.685906e+01   6.968757e+05  -2.595347e+05   4.497825e+05   0.000000e+00   0.000000e+00   0.000000e+00   8.690790e+05   0.000000e+00   0.000000e+00   0.000000e+00
      160000   1.599990e-06   1.215001e+00   7.598425e+00   1.689504e+01   6.968757e+05  -2.595347e+05   4.497825e+05   0.000000e+00   0.000000e+00   0.000000e+00   8.690790e+05   0.000000e+00   0.000000e+00   0.000000e+00
      168000   1.679990e-06   1.270751e+00   7.577663e+00   1.693103e+01   6.968757e+05  -2.595347e+05   4.497825e+05   0.000000e+00   0.000000e+00   0.000000e+00   8.690790e+05   0.000000e+00   0.000000e+00   0.000000e+00
      176000   1.759990e-06   1.326501e+00   7.556900e+00   1.696701e+01   6.968757e+05  -2.595347e+05   4.497825e+05   0.000000e+00   0.000000e+00   0.000000e+00   8.690790e+05   0.000000e+00   0.000000e+00   0.000000e+00
      184000   1.839990e-06   1.382251e+00   7.536137e+00   1.700299e+01   6.968757e+05  -2.595347e+05   4.497825e+05   0.000000e+00   0.000000e+00   0.000000e+00   8.690790e+05   0.000000e+00   0.000000e+00   0.000000e+00
      192000   1.919990e-06   1.438001e+00   7.515374e+00   1.703897e+01   6.968757e+05  -2.595347e+05   4.497825e+05   0.000000e+00   0.000000e+00   0.000000e+00   8.690790e+05   0.000000e+00   0.000000e+00   0.000000e+00
      200000   1.999990e-06   1.493751e+00   7.494612e+00   1.707496e+01   6.968757e+05  -2.595347e+05   4.497825e+05   0.000000e+00   0.000000e+00   0.000000e+00   8.690790e+05   0.000000e+00   0.000000e+00   0.000000e+00
      208000   2.079990e-06   1.549501e+00   7.473849e+00   1.711094e+01   6.968757e+05  -2.595347e+05   4.497825e+05   0.000000e+00   0.000000e+00   0.000000e+00   8.690790e+05   0.000000e+00   0.000000e+00   0.000000e+00
      216000   2.159990e-06   1.605252e+00   7.453086e+00   1.714692e+01   6.968757e+05  -2.595347e+05   4.497825e+05   0.000000e+00   0.000000e+00   0.000000e+00   8.690790e+05   0.000000e+00   0.000000e+00   0.000000e+00
      224000   2.239990e-06   1.661002e+00   7.432323e+00   1.718290e+01   6.968757e+05  -2.595347e+05   4.497825e+05   0.000000e+00   0.000000e+00   0.000000e+00   8.690790e+05   0.000000e+00   0.000000e+00   0.000000e+00
      232000   2.319990e-06   1.716752e+00   7.411560e+00   1.721889e+01   6.968757e+05  -2.595347e+05   4.497825e+05   0.000000e+00   0.000000e+00   0.000000e+00   8.690790e+05   0.000000e+00   0.000000e+00   0.000000e+00
      240000   2.399990e-06   1.772502e+00   7.390798e+00   1.725487e+01   6.968757e+05  -2.595347e+05   4.497825e+05   0.000000e+00   0.000000e+00   0.000000e+00   8.690790e+05   0.000000e+00   0.000000e+00   0.000000e+00
      248000   2.479990e-06   1.828252e+00   7.370035e+00   1.729085e+01   6.968757e+05  -2.595347e+05   4.497825e+05   0.000000e+00   0.000000e+00   0.000000e+00   8.690790e+05   0.000000e+00   0.000000e+00   0.000000e+00
      256000   2.559990e-06   1.884002e+00   7.349272e+00   1.732684e+01   6.968757e+05  -2.595347e+05   4.497825e+05   0.000000e+00   0.000000e+00   0.000000e+00   8.690790e+05   0.000000e+00   0.000000e+00   0.000000e+00
      264000   2.639990e-06   1.939752e+00   7.328509e+00   1.736282e+01   6.968757e+05  -2.595347e+05   4.497825e+05   0.000000e+00   0.000000e+00   0.000000e+00   8.690790e+05   0.000000e+00   0.000000e+00   0.000000e+00
      272000   2.719990e-06   1.995502e+00   7.307747e+00   1.739880e+01   6.968757e+05  -2.595347e+05   4.497825e+05   0.000000e+00   0.000000e+00   0.000000e+00   8.690790e+05   0.000000e+00   0.000000e+00   0.000000e+00
      280000   2.799990e-06   2.051252e+00   7.286984e+00   1.743478e+01   6.968757e+05  -2.595347e+05   4.497825e+05   0.000000e+00   0.000000e+00   0.000000e+00   8.690790e+05   0.000000e+00   0.000000e+00   0.000000e+00
      288000   2.879990e-06   2.107002e+00   7.266221e+00   1.747077e+01   6.968757e+05  -2.595347e+05   4.497825e+05   0.000000e+00   0.000000e+00   0.000000e+00   8.690790e+05   0.000000e+00   0.000000e+00   0.000000e+00
      296000   2.959990e-06   2.162752e+00   7.245458e+00   1.750675e+01   6.968757e+05  -2.595347e+05   4.497825e+05   0.000000e+00   0.000000e+00   0.000000e+00   8.690790e+05   0.000000e+00   0.000000e+00   0.000000e+00
      304000   3.039990e-06   2.218502e+00   7.224695e+00   1.754273e+01   6.968757e+05  -2.595347e+05   4.497825e+05   0.000000e+00   0.000000e+00   0.000000e+00   8.690790e+05   0.000000e+00   0.000000e+00   0.000000e+00
      312000   3.119990e-06   2.274252e+00   7.203933e+00   1.757871e+01   6.968757e+05  -2.595347e+05   4.497825e+05   0.000000e+00   0.000000e+00   0.000000e+00   8.690790e+05   0.000000e+00   0.000000e+00   0.000000e+00
      320000   3.199990e-06   2.330002e+00   7.183170e+00   1.761470e+01   6.968757e+05  -2.595347e+05   4.497825e+05   0.000000e+00   0.000000e+00   0.000000e+00   8.690790e+05   0.000000e+00   0.000000e+00   0.000000e+00
      328000   3.279990e-06   2.385752e+00   7.162407e+00   1.765068e+01   6.968757e+05  -2.595347e+05   4.497825e+05   0.000000e+00   0.000000e+00   0.000000e+00   8.690790e+05   0.000000e+00   0.000000e+00   0.000000e+00
      336000   3.359990e-06   2.441502e+00   7.141644e+00   1.768666e+01   6.968757e+05  -2.595347e+05   4.497825e+05   0.000000e+00   0.000000e+00   0.000000e+00   8.690790e+05   0.000000e+00   0.000000e+00   0.000000e+00
      344000   3.439990e-06   2.497252e+00   7.120882e+00   1.772264e+01   6.968757e+05  -2.595347e+05   4.497825e+05   0.000000e+00   0.000000e+00   0.000000e+00   8.690790e+05   0.000000e+00   0.000000e+00   0.000000e+00
      352000   3.519990e-06   2.553002e+00   7.100119e+00   1.775863e+01   6.968757e+05  -2.595347e+05   4.497825e+05   0.000000e+00   0.000000e+00   0.000000e+00   8.690790e+05   0.000000e+00   0.000000e+00   0.000000e+00
      360000   3.599990e-06   2.608753e+00   7.079356e+00   1.779461e+01   6.968757e+05  -2.595347e+05   4.497825e+05   0.000000e+00   0.000000e+00   0.000000e+00   8.690790e+05   0.000000e+00   0.000000e+00   0.000000e+00
      368000   3.679990e-06   2.664503e+00   7.058593e+00   1.783059e+01   6.968757e+05  -2.595347e+05   4.497825e+05   0.000000e+00   0.000000e+00   0.000000e+00   8.690790e+05   0.000000e+00   0.000000e+00   0.000000e+00
      376000   3.759990e-06   2.720253e+00   7.037831e+00   1.786657e+01   6.968757e+05  -2.595347e+05   4.497825e+05   0.000000e+00   0.000000e+00   0.000000e+00   8.690790e+05   0.000000e+00   0.000000e+00   0.000000e+00
      384000   3.839990e-06   2.776003e+00   7.017068e+00   1.790256e+01   6.968757e+05  -2.595347e+05   4.497825e+05   0.000000e+00   0.000000e+00   0.000000e+00   8.690790e+05   0.000000e+00   0.000000e+00   0.000000e+00
      392000   3.919990e-06   2.831753e+00   6.996305e+00   1.793854e+01   6.968757e+05  -2.595347e+05   4.497825e+05   0.000000e+00   0.000000e+00   0.000000e+00   8.690790e+05   0.000000e+00   0.000000e+00   0.000000e+00
      400000   3.999990e-06   2.887503e+00   6.975542e+00   1.797452e+01   6.968757e+05  -2.595347e+05   4.497825e+05   0.000000e+00   0.000000e+00   0.000000e+00   8.690790e+05   0.000000e+00   0.000000e+00   0.000000e+00
      408000   4.079990e-06   2.943253e+00   6.954779e+00   1.801050e+01   6.968757e+05  -2.595347e+05   4.497825e+05   0.000000e+00   0.000000e+00   0.000000e+00   8.690790e+05   0.000000e+00   0.000000e+00   0.000000e+00
      416000   4.159990e-06   2.999003e+00   6.934017e+00   1.804649e+01   6.968757e+05  -2.595347e+05   4.497825e+05   0.000000e+00   0.000000e+00   0.000000e+00   8.690790e+05   0.000000e+00   0.000000e+00   0.000000e+00
      424000   4.239990e-06   3.054753e+00   6.913254e+00   1.808247e+01   6.968757e+05  -2.595347e+05   4.497825e+05   0.000000e+00   0.000000e+00   0.000000e+00   8.690790e+05   0.000000e+00   0.000000e+00   0.000000e+00
      432000   4.319990e-06   3.110503e+00   6.892491e+00   1.811845e+01   6.968757e+05  -2.595347e+05   4.497825e+05   0.000000e+00   0.000000e+00   0.000000e+00   8.690790e+05   0.000000e+00   0.000000e+00   0.000000e+00
      440000   4.399990e-06   3.166253e+00   6.871728e+00   1.815443e+01   6.968757e+05  -2.595347e+05   4.497825e+05   0.000000e+00   0.000000e+00   0.000000e+00   8.690790e+05   0.000000e+00   0.000000e+00   0.000000e+00
      448000   4.479990e-06   3.222003e+00   6.850966e+00   1.819042e+01   6.968757e+05  -2.595347e+05   4.497825e+05   0.000000e+00   0.000000e+00   0.000000e+00   8.690790e+05   0.000000e+00   0.000000e+00   0.000000e+00
      456000   4.559990e-06   3.277753e+00   6.830203e+00   1.822640e+01   6.968757e+05  -2.595347e+05   4.497825e+05   0.000000e+00   0.000000e+00   0.000000e+00   8.690790e+05   0.000000e+00   0.000000e+00   0.000000e+00
      464000   4.639990e-06   3.333503e+00   6.809440e+00   1.826238e+01   6.968757e+05  -2.595347e+05   4.497825e+05   0.000000e+00   0.000000e+00   0.000000e+00   8.690790e+05   0.000000e+00   0.000000e+00   0.000000e+00
      472000   4.719990e-06   3.389253e+00   6.788677e+00   1.829837e+01   6.968757e+05  -2.595347e+05   4.497825e+05   0.000000e+00   0.000000e+00   0.000000e+00   8.690790e+05   0.000000e+00   0.000000e+00   0.000000e+00
      480000   4.799990e-06   3.445003e+00   6.767914e+00   1.833435e+01   6.968757e+05  -2.595347e+05   4.497825e+05   0.000000e+00   0.000000e+00   0.000000e+00   8.690790e+05   0.000000e+00   0.000000e+00   0.000000e+00
      488000   4.879990e-06   3.500753e+00   6.747152e+00   1.837033e+01   6.968757e+05  -2.595347e+05   4.497825e+05   0.000000e+00   0.000000e+00   0.000000e+00   8.690790e+05   0.000000e+00   0.000000e+00   0.000000e+00
      496000   4.959990e-06   3.556503e+00   6.726389e+00   1.840631e+01   6.968757e+05  -2.595347e+05   4.497825e+05   0.000000e+00   0.000000e+00   0.000000e+00   8.690790e+05   0.000000e+00   0.000000e+00   0.000000e+00
      504000   5.039990e-06   3.612254e+00   6.705626e+00   1.844230e+01   6.968757e+05  -2.595347e+05   4.497825e+05   0.000000e+00   0.000000e+00   0.000000e+00   8.690790e+05   0.000000e+00   0.000000e+00   0.000000e+00
      512000   5.119990e-06   3.668004e+00   6.684863e+00   1.847828e+01   6.968757e+05  -2.595347e+05   4.497825e+05   0.000000e+00   0.000000e+00   0.000000e+00   8.690790e+05   0.000000e+00   0.000000e+00   0.000000e+00
      520000   5.199990e-06   3.723754e+00   6.664101e+00   1.851426e+01   6.968757e+05  -2.595347e+05   4.497825e+05   0.000000e+00   0.000000e+00   0.000000e+00   8.690790e+05   0.000000e+00   0.000000e+00   0.000000e+00
      528000   5.279990e-06   3.779504e+00   6.643338e+00   1.855024e+01   6.968757e+05  -2.595347e+05   4.497825e+05   0.000000e+00   0.000000e+00   0.000000e+00   8.690790e+05   0.000000e+00   0.000000e+00   0.000000e+00
      536000   5.359990e-06   3.835254e+00   6.622575e+00   1.858623e+01   6.968757e+05  -2.595347e+05   4.497825e+05   0.000000e+00   0.000000e+00   0.000000e+00   8.690790e+05   0.000000e+00   0.000000e+00   0.000000e+00
      544000   5.439990e-06   3.891004e+00   6.601812e+00   1.862221e+01   6.968757e+05  -2.595347e+05   4.497825e+05   0.000000e+00   0.000000e+00   0.000000e+00   8.690790e+05   0.000000e+00   0.000000e+00   0.000000e+00
      552000   5.519990e-06   3.946754e+00   6.581049e+00   1.865819e+01   6.968757e+05  -2.595347e+05   4.497825e+05   0.000000e+00   0.000000e+00   0.000000e+00   8.690790e+05   0.000000e+00   0.000000e+00   0.000000e+00
      560000   5.599990e-06   4.002504e+00   6.560287e+00   1.869417e+01   6.968757e+05  -2.595347e+05   4.497825e+05   0.000000e+00   0.000000e+00   0.000000e+00   8.690790e+05   0.000000e+00   0.000000e+00   0.000000e+00
      568000   5.679990e-06   4.058254e+00   6.539524e+00   1.873016e+01   6.968757e+05  -2.595347e+05   4.497825e+05   0.000000e+00   0.000000e+00   0.000000e+00   8.690790e+05   0.000000e+00   0.000000e+00   0.000000e+00
      576000   5.759990e-06   4.114004e+00   6.518761e+00   1.876614e+01   6.968757e+05  -2.595347e+05   4.497825e+05   0.000000e+00   0.000000e+00   0.000000e+00   8.690790e+05   0.000000e+00   0.000000e+00   0.000000e+00
      584000   5.839990e-06   4.169754e+00   6.497998e+00   1.880212e+01   6.968757e+05  -2.595347e+05   4.497825e+05   0.000000e+00   0.000000e+00   0.000000e+00   8.690790e+05   0.000000e+00   0.000000e+00   0.000000e+00
      592000   5.919990e-06   4.225504e+00   6.477236e+00   1.883810e+01   6.968757e+05  -2.595347e+05   4.497825e+05   0.000000e+00   0.000000e+00   0.000000e+00   8.690790e+05   0.000000e+00   0.000000e+00   0.000000e+00
      600000   5.999990e-06   4.281254e+00   6.456473e+00   1.887409e+01   6.968757e+05  -2.595347e+05   4.497825e+05   0.000000e+00   0.000000e+00   0.000000e+00   8.690790e+05   0.000000e+00   0.000000e+00   0.000000e+00
      608000   6.079990e-06   4.337004e+00   6.435710e+00   1.891007e+01   6.968757e+05  -2.595347e+05   4.497825e+05   0.000000e+00   0.000000e+00   0.000000e+00   8.690790e+05   0.000000e+00   0.000000e+00   0.000000e+00
      616000   6.159990e-06   4.392754e+00   6.414947e+00   1.894605e+01   6.968757e+05  -2.595347e+05   4.497825e+05   0.000000e+00   0.000000e+00   0.000000e+00   8.690790e+05   0.000000e+00   0.000000e+00   0.000000e+00
      624000   6.239990e-06   4.448504e+00   6.394184e+00   1.898203e+01   6.968757e+05  -2.595347e+05   4.497825e+05   0.000000e+00   0.000000e+00   0.000000e+00   8.690790e+05   0.000000e+00   0.000000e+00   0.000000e+00
      632000   6.319990e-06   4.504254e+00   6.373422e+00   1.901802e+01   6.968757e+05  -2.595347e+05   4.497825e+05   0.000000e+00   0.000000e+00   0.000000e+00   8.690790e+05   0.000000e+00   0.000000e+00   0.000000e+00
      640000   6.399990e-06   4.560004e+00   6.352659e+00   1.905400e+01   6.968757e+05  -2.595347e+05   4.497825e+05   0.000000e+00   0.000000e+00   0.000000e+00   8.690790e+05   0.000000e+00   0.000000e+00   0.000000e+00
      648000   6.479990e-06   4.615755e+00   6.331896e+00   1.908998e+01   6.968757e+05  -2.595347e+05   4.497825e+05   0.000000e+00   0.000000e+00   0.000000e+00   8.690790e+05   0.000000e+00   0.000000e+00   0.000000e+00
      656000   6.559990e-06   4.671505e+00   6.311133e+00   1.912597e+01   6.968757e+05  -2.595347e+05   4.497825e+05   0.000000e+00   0.000000e+00   0.000000e+00   8.690790e+05   0.000000e+00   0.000000e+00   0.000000e+00
      664000   6.639990e-06   4.727255e+00   6.290371e+00   1.916195e+01   6.968757e+05  -2.595347e+05   4.497825e+05   0.000000e+00   0.000000e+00   0.000000e+00   8.690790e+05   0.000000e+00   0.000000e+00   0.000000e+00
      672000   6.719990e-06   4.783005e+00   6.269608e+00   1.919793e+01   6.968757e+05  -2.595347e+05   4.497825e+05   0.000000e+00   0.000000e+00   0.000000e+00   8.690790e+05   0.000000e+00   0.000000e+00   0.000000e+00
      680000   6.799990e-06   4.838755e+00   6.248845e+00   1.923391e+01   6.968757e+05  -2.595347e+05   4.497825e+05   0.000000e+00   0.000000e+00   0.000000e+00   8.690790e+05   0.000000e+00   0.000000e+00   0.000000e+00
      688000   6.879990e-06   4.894505e+00   6.228082e+00   1.926990e+01   6.968757e+05  -2.595347e+05   4.497825e+05   0.000000e+00   0.000000e+00   0.000000e+00   8.690790e+05   0.000000e+00   0.000000e+00   0.000000e+00
      696000   6.959990e-06   4.950255e+00   6.207319e+00   1.930588e+01   6.968757e+05  -2.595347e+05   4.497825e+05   0.000000e+00   0.000000e+00   0.000000e+00   8.690790e+05   0.000000e+00   0.000000e+00   0.000000e+00
      704000   7.039990e-06   5.006005e+00   6.186557e+00   1.934186e+01   6.968757e+05  -2.595347e+05   4.497825e+05   0.000000e+00   0.000000e+00   0.000000e+00   8.690790e+05   0.000000e+00   0.000000e+00   0.000000e+00
      712000   7.119990e-06   5.061755e+00   6.165794e+00   1.937784e+01   6.968757e+05  -2.595347e+05   4.497825e+05   0.000000e+00   0.000000e+00   0.000000e+00   8.690790e+05   0.000000e+00   0.000000e+00   0.000000e+00
      720000   7.199990e-06   5.117505e+00   6.145031e+00   1.941383e+01   6.968757e+05  -2.595347e+05   4.497825e+05   0.000000e+00   0.000000e+00   0.000000e+00   8.690790e+05   0.000000e+00   0.000000e+00   0.000000e+00
      728000   7.279990e-06   5.173255e+00   6.124268e+00   1.944981e+01   6.968757e+05  -2.595347e+05   4.497825e+05   0.000000e+00   0.000000e+00   0.000000e+00   8.690790e+05   0.000000e+00   0.000000e+00   0.000000e+00
      736000   7.359990e-06   5.229005e+00   6.103506e+00   1.948579e+01   6.968757e+05  -2.595347e+05   4.497825e+05   0.000000e+00   0.000000e+00   0.000000e+00   8.690790e+05   0.000000e+00   0.000000e+00   0.000000e+00
      744000   7.439990e-06   5.284755e+00   6.082743e+00   1.952177e+01   6.968757e+05  -2.595347e+05   4.497825e+05   0.000000e+00   0.000000e+00   0.000000e+00   8.690790e+05   0.000000e+00   0.000000e+00   0.000000e+00
      752000   7.519990e-06   5.340505e+00   6.061980e+00   1.955776e+01   6.968755e+05  -2.595345e+05   4.497829e+05  -4.049840e+06   4.199834e+06   8.698055e+06   8.690790e+05   1.995392e-28   0.000000e+00   0.000000e+00
      760000   7.599990e-06   5.396255e+00   6.041217e+00   1.959374e+01   6.968751e+05  -2.595341e+05   4.497838e+05  -6.573136e+06   6.816585e+06   1.411743e+07   8.690790e+05   5.256804e-28   0.000000e+00   0.000000e+00
      768000   7.679990e-06   5.452005e+00   6.020455e+00   1.962972e+01   6.968743e+05  -2.595333e+05   4.497855e+05  -1.983174e+07   2.044973e+07   4.252609e+07   8.690790e+05   4.765278e-27   0.000000e+00   0.000000e+00
      776000   7.759990e-06   5.507755e+00   5.999692e+00   1.966570e+01   6.968721e+05  -2.595310e+05   4.497901e+05  -4.030417e+07   4.118794e+07   8.620999e+07   8.690790e+05   1.956056e-26   0.000000e+00   0.000000e+00
      784000   7.839990e-06   5.563505e+00   5.978930e+00   1.970169e+01   6.968683e+05  -2.595271e+05   4.497984e+05  -9.688882e+06   9.912206e+06   2.073009e+07   8.690790e+05   1.131490e-27   0.000000e+00   0.000000e+00
      792000   7.919990e-06   5.619254e+00   5.958168e+00   1.973767e+01   6.968664e+05  -2.595251e+05   4.498024e+05  -5.730265e+07   5.831283e+07   1.224225e+08   8.690790e+05   3.942260e-26   0.000000e+00   0.000000e+00
      800000   7.999990e-06   5.675003e+00   5.937406e+00   1.977366e+01   6.968609e+05  -2.595195e+05   4.498142e+05  -8.049046e+07   8.166342e+07   1.718130e+08   8.690790e+05   7.761922e-26   0.000000e+00   0.000000e+00
      808000   8.079990e-06   5.730752e+00   5.916644e+00   1.980964e+01   6.968553e+05  -2.595139e+05   4.498262e+05  -5.714465e+07   5.770333e+07   1.218168e+08   8.690790e+05   3.899937e-26   0.000000e+00   0.000000e+00
      816000   8.159990e-06   5.786500e+00   5.895883e+00   1.984563e+01   6.968511e+05  -2.595097e+05   4.498351e+05  -6.489243e+07   6.526616e+07   1.381786e+08   8.690790e+05   5.014780e-26   0.000000e+00   0.000000e+00
      824000   8.239990e-06   5.842248e+00   5.875123e+00   1.988162e+01   6.968484e+05  -2.595070e+05   4.498408e+05  -1.606228e+07   1.616335e+07   3.420649e+07   8.690790e+05   3.074396e-27   0.000000e+00   0.000000e+00
      832000   8.319990e-06   5.897996e+00   5.854362e+00   1.991760e+01   6.968458e+05  -2.595043e+05   4.498464e+05  -5.654954e+07   5.644868e+07   1.201632e+08   8.690790e+05   3.788348e-26   0.000000e+00   0.000000e+00
      840000   8.399990e-06   5.953743e+00   5.833602e+00   1.995359e+01   6.968450e+05  -2.595036e+05   4.498480e+05   4.768441e+06  -4.759753e+06  -1.013240e+07   8.690790e+05   2.689972e-28   0.000000e+00   0.000000e+00
      848000   8.479990e-06   6.009491e+00   5.812842e+00   1.998958e+01   6.968459e+05  -2.595045e+05   4.498460e+05  -8.112111e+06   8.034659e+06   1.720127e+07   8.690790e+05   7.753564e-28   0.000000e+00   0.000000e+00
      856000   8.559990e-06   6.065239e+00   5.792081e+00   2.002557e+01   6.968457e+05  -2.595043e+05   4.498464e+05   1.673892e+01  -3.411414e+01  -4.560936e+01   8.690790e+05   6.411147e-39   0.000000e+00   0.000000e+00
      864000   8.639990e-06   6.120986e+00   5.771321e+00   2.006155e+01   6.968457e+05  -2.595043e+05   4.498464e+05  -1.256554e+01  -4.381268e+01  -5.809396e+00   8.690790e+05   3.840527e-39   0.000000e+00   0.000000e+00
      872000   8.719990e-06   6.176734e+00   5.750561e+00   2.009754e+01   6.968457e+05  -2.595043e+05   4.498464e+05  -1.697030e+01  -6.080928e+01  -8.790980e+00   8.690790e+05   7.391387e-39   0.000000e+00   0.000000e+00
      880000   8.799990e-06   6.232482e+00   5.729800e+00   2.013353e+01   6.968457e+05  -2.595043e+05   4.498464e+05  -1.035359e+01  -2.643547e+01   7.885720e-01   8.690790e+05   1.467415e-39   0.000000e+00   0.000000e+00
      888000   8.879990e-06   6.288229e+00   5.709040e+00   2.016952e+01   6.968457e+05  -2.595043e+05   4.498464e+05  -1.396568e+01  -3.584401e+01   9.564283e-01   8.690790e+05   2.693753e-39   0.000000e+00   0.000000e+00
      896000   8.959990e-06   6.343977e+00   5.688280e+00   2.020551e+01   6.968457e+05  -2.595043e+05   4.498464e+05  -1.676070e+01  -4.500744e+01  -7.236429e-21   8.690790e+05   4.196220e-39   0.000000e+00   0.000000e+00
      904000   9.039990e-06   6.399725e+00   5.667519e+00   2.024149e+01   6.968457e+05  -2.595043e+05   4.498464e+05  -1.945225e+01  -5.223504e+01   1.258385e-20   8.690790e+05   5.652178e-39   0.000000e+00   0.000000e+00
      912000   9.119990e-06   6.455472e+00   5.646759e+00   2.027748e+01   6.968457e+05  -2.595043e+05   4.498464e+05  -1.630053e+01  -4.377173e+01  -1.028772e-22   8.690790e+05   3.969054e-39   0.000000e+00   0.000000e+00
      920000   9.199990e-06   6.511220e+00   5.625999e+00   2.031347e+01   6.968457e+05  -2.595043e+05   4.498464e+05  -1.259734e+01  -3.382757e+01   7.233203e-21   8.690790e+05   2.370048e-39   0.000000e+00   0.000000e+00
      928000   9.279990e-06   6.566968e+00   5.605238e+00   2.034946e+01   6.968457e+05  -2.595043e+05   4.498464e+05  -2.320191e+01  -6.230399e+01   8.785223e-21   8.690790e+05   8.040612e-39   0.000000e+00   0.000000e+00
      936000   9.359990e-06   6.622715e+00   5.584478e+00   2.038544e+01   6.968457e+05  -2.595043e+05   4.498464e+05  -2.727131e+01  -7.323154e+01  -7.697370e-22   8.690790e+05   1.110945e-38   0.000000e+00   0.000000e+00
      944000   9.439990e-06   6.678463e+00   5.563718e+00   2.042143e+01   6.968457e+05  -2.595043e+05   4.498464e+05  -8.805149e+00  -2.364443e+01  -8.101295e-21   8.690790e+05   1.158274e-39   0.000000e+00   0.000000e+00
      952000   9.519990e-06   6.734211e+00   5.542957e+00   2.045742e+01   6.968457e+05  -2.595043e+05   4.498464e+05  -1.263947e+01  -3.394072e+01  -3.932593e-21   8.690790e+05   2.386258e-39   0.000000e+00   0.000000e+00
      960000   9.599990e-06   6.789958e+00   5.522197e+00   2.049341e+01   6.968457e+05  -2.595043e+05   4.498464e+05  -1.631085e+01  -4.379944e+01  -7.086653e-21   8.690790e+05   3.973925e-39   0.000000e+00   0.000000e+00
      968000   9.679990e-06   6.845706e+00   5.501437e+00   2.052939e+01   6.968457e+05  -2.595043e+05   4.498464e+05  -7.954389e+00  -2.135988e+01  -3.233259e-21   8.690790e+05   9.453017e-40   0.000000e+00   0.000000e+00
      976000   9.759990e-06   6.901454e+00   5.480676e+00   2.056538e+01   6.968457e+05  -2.595043e+05   4.498464e+05  -7.105210e+00  -1.907959e+01  -1.669303e-21   8.690790e+05   7.542703e-40   0.000000e+00   0.000000e+00
      984000   9.839990e-06   6.957201e+00   5.459916e+00   2.060137e+01   6.968457e+05  -2.595043e+05   4.498464e+05  -1.132290e+01  -3.040533e+01   3.936939e-21   8.690790e+05   1.915294e-39   0.000000e+00   0.000000e+00
      992000   9.919990e-06   7.012949e+00   5.439156e+00   2.063736e+01   6.968457e+05  -2.595043e+05   4.498464e+05  -4.199745e+00  -1.127756e+01   4.380238e-22   8.690790e+05   2.635290e-40   0.000000e+00   0.000000e+00
     1000000   9.999990e-06   7.068697e+00   5.418395e+00   2.067335e+01   6.968457e+05  -2.595043e+05   4.498464e+05  -6.620124e-01  -1.777699e+00   2.352409e-22   8.690790e+05   6.555465e-42   0.000000e+00   0.000000e+00
     1008000   1.007999e-05   7.124444e+00   5.397635e+00   2.070933e+01   6.968457e+05  -2.595043e+05   4.498464e+05  -7.870557e+00  -2.113477e+01  -1.533935e-20   8.690790e+05   9.254329e-40   0.000000e+00   0.000000e+00
     1016000   1.015999e-05   7.180192e+00   5.376874e+00   2.074532e+01   6.968457e+05  -2.595043e+05   4.498464e+05  -4.762159e+00  -1.278780e+01   1.388206e-21   8.690790e+05   3.388205e-40   0.000000e+00   0.000000e+00
     1024000   1.023999e-05   7.235940e+00   5.356114e+00   2.078131e+01   6.968457e+05  -2.595043e+05   4.498464e+05  -1.030348e+01  -2.766788e+01   9.331750e-21   8.690790e+05   1.585798e-39   0.000000e+00   0.000000e+00
     1032000   1.031999e-05   7.291687e+00   5.335354e+00   2.081730e+01   6.968457e+05  -2.595043e+05   4.498464e+05  -1.949851e+01  -5.235926e+01  -3.606332e-21   8.690790e+05   5.679014e-39   0.000000e+00   0.000000e+00
     1040000   1.039999e-05   7.347435e+00   5.314593e+00   2.085328e+01   6.968457e+05  -2.595043e+05   4.498464e+05  -1.293915e+01  -3.474543e+01   1.457885e-20   8.690790e+05   2.500969e-39   0.000000e+00   0.000000e+00
     1048000   1.047999e-05   7.403183e+00   5.293833e+00   2.088927e+01   6.968457e+05  -2.595043e+05   4.498464e+05  -2.269112e+01  -6.093237e+01  -6.228762e-21   8.690790e+05   7.691071e-39   0.000000e+00   0.000000e+00
     1056000   1.055999e-05   7.458930e+00   5.273073e+00   2.092526e+01   6.968457e+05  -2.595043e+05   4.498464e+05  -1.310988e+01  -3.520390e+01   1.121269e-21   8.690790e+05   2.567593e-39   0.000000e+00   0.000000e+00
     1064000   1.063999e-05   7.514678e+00   5.252312e+00   2.096125e+01   6.968457e+05  -2.595043e+05   4.498464e+05  -6.386358e+00  -1.714926e+01   1.760192e-21   8.690790e+05   6.093289e-40   0.000000e+00   0.000000e+00
     1072000   1.071999e-05   7.570426e+00   5.231552e+00   2.099724e+01   6.968457e+05  -2.595043e+05   4.498464e+05  -3.206570e+00  -8.610587e+00  -2.521621e-21   8.690790e+05   1.536315e-40   0.000000e+00   0.000000e+00
     1080000   1.079999e-05   7.626173e+00   5.210792e+00   2.103322e+01   6.968457e+05  -2.595043e+05   4.498464e+05  -3.867869e+00  -1.038637e+01  -1.246702e-22   8.690790e+05   2.234600e-40   0.000000e+00   0.000000e+00
     1088000   1.087999e-05   7.681921e+00   5.190031e+00   2.106921e+01   6.968457e+05  -2.595043e+05   4.498464e+05   1.264050e+01   3.394348e+01  -7.361809e-21   8.690790e+05   2.386532e-39   0.000000e+00   0.000000e+00
     1096000   1.095999e-05   7.737669e+00   5.169271e+00   2.110520e+01   6.968457e+05  -2.595043e+05   4.498464e+05  -7.859836e+00  -2.110598e+01  -2.179849e-21   8.690790e+05   9.228238e-40   0.000000e+00   0.000000e+00
     1104000   1.103999e-05   7.793416e+00   5.148511e+00   2.114119e+01   6.968457e+05  -2.595043e+05   4.498464e+05  -7.816039e+00  -2.098837e+01  -1.177983e-21   8.690790e+05   9.125679e-40   0.000000e+00   0.000000e+00
     1112000   1.111999e-05   7.849164e+00   5.127750e+00   2.117717e+01   6.968457e+05  -2.595043e+05   4.498464e+05  -1.606455e+01  -4.313805e+01  -4.460122e-21   8.690790e+05   3.854871e-39   0.000000e+00   0.000000e+00
     1120000   1.119999e-05   7.904912e+00   5.106990e+00   2.121316e+01   6.968457e+05  -2.595043e+05   4.498464e+05  -1.355637e+01  -3.640286e+01  -2.484235e-20   8.690790e+05   2.745121e-39   0.000000e+00   0.000000e+00
     1128000   1.127999e-05   7.960659e+00   5.086230e+00   2.124915e+01   6.968457e+05  -2.595043e+05   4.498464e+05  -9.110028e+00  -2.446312e+01   4.426857e-21   8.690790e+05   1.239847e-39   0.000000e+00   0.000000e+00
     1136000   1.135999e-05   8.016407e+00   5.065469e+00   2.128514e+01   6.968457e+05  -2.595043e+05   4.498464e+05  -1.370421e+01  -3.679985e+01   9.316187e-21   8.690790e+05   2.805294e-39   0.000000e+00   0.000000e+00
     1144000   1.143999e-05   8.072154e+00   5.044709e+00   2.132112e+01   6.968457e+05  -2.595043e+05   4.498464e+05  -1.098065e+01  -2.948628e+01   1.638072e-21   8.690790e+05   1.801144e-39   0.000000e+00   0.000000e+00
     1152000   1.151999e-05   8.127902e+00   5.023949e+00   2.135711e+01   6.968457e+05  -2.595043e+05   4.498464e+05  -1.490168e+01  -4.001542e+01  -7.977212e-21   8.690790e+05   3.316905e-39   0.000000e+00   0.000000e+00
     1160000   1.159999e-05   8.183650e+00   5.003188e+00   2.139310e+01   6.968457e+05  -2.595043e+05   4.498464e+05  -1.883582e+01  -5.057974e+01   8.697804e-21   8.690790e+05   5.299533e-39   0.000000e+00   0.000000e+00
     1168000   1.167999e-05   8.239397e+00   4.982428e+00   2.142909e+01   6.968457e+05  -2.595043e+05   4.498464e+05  -1.998146e+01  -5.365612e+01  -8.285457e-21   8.690790e+05   5.963915e-39   0.000000e+00   0.000000e+00
     1176000   1.175999e-05   8.295145e+00   4.961668e+00   2.146508e+01   6.968457e+05  -2.595043e+05   4.498464e+05  -2.258560e+01  -6.064900e+01  -9.781885e-21   8.690790e+05   7.619770e-39   0.000000e+00   0.000000e+00
     1184000   1.183999e-05   8.350893e+00   4.940907e+00   2.150106e+01   6.968457e+05  -2.595043e+05   4.498464e+05  -1.247013e+01  -3.348599e+01  -4.746985e-21   8.690790e+05   2.322906e-39   0.000000e+00   0.000000e+00
     1192000   1.191999e-05   8.406640e+00   4.920147e+00   2.153705e+01   6.968457e+05  -2.595043e+05   4.498464e+05  -1.025420e+01  -2.753556e+01   1.646555e-21   8.690790e+05   1.570798e-39   0.000000e+00   0.000000e+00
     1200000   1.199999e-05   8.462388e+00   4.899387e+00   2.157304e+01   6.968457e+05  -2.595043e+05   4.498464e+05  -9.849837e+00  -2.644972e+01   4.225834e-22   8.690790e+05   1.449371e-39   0.000000e+00   0.000000e+00
     1208000   1.207999e-05   8.518136e+00   4.878626e+00   2.160903e+01   6.968457e+05  -2.595043e+05   4.498464e+05  -1.238254e+01  -3.325077e+01  -2.605044e-21   8.690790e+05   2.290349e-39   0.000000e+00   0.000000e+00
     1216000   1.215999e-05   8.573883e+00   4.857866e+00   2.164501e+01   6.968457e+05  -2.595043e+05   4.498464e+05  -1.339334e+01  -3.596508e+01   1.028417e-21   8.690790e+05   2.679544e-39   0.000000e+00   0.000000e+00
     1224000   1.223999e-05   8.629631e+00   4.837106e+00   2.168100e+01   6.968457e+05  -2.595043e+05   4.498464e+05  -8.538474e+00  -2.292833e+01   1.222604e-21   8.690790e+05   1.089117e-39   0.000000e+00   0.000000e+00
     1232000   1.231999e-05   8.685379e+00   4.816345e+00   2.171699e+01   6.968457e+05  -2.595043e+05   4.498464e+05  -1.429609e+01  -3.838923e+01  -4.143429e-21   8.690790e+05   3.052738e-39   0.000000e+00   0.000000e+00
     1240000   1.239999e-05   8.741126e+00   4.795585e+00   2.175298e+01   6.968457e+05  -2.595043e+05   4.498464e+05  -1.137486e+01  -3.054487e+01  -8.506633e-21   8.690790e+05   1.932857e-39   0.000000e+00   0.000000e+00
     1248000   1.247999e-05   8.796874e+00   4.774824e+00   2.178896e+01   6.968457e+05  -2.595043e+05   4.498464e+05  -9.686352e+00  -2.601072e+01  -2.419971e-21   8.690790e+05   1.401621e-39   0.000000e+00   0.000000e+00
     1256000   1.255999e-05   8.852622e+00   4.754064e+00   2.182495e+01   6.968457e+05  -2.595043e+05   4.498464e+05  -1.404344e+01  -3.771078e+01   1.460738e-20   8.690790e+05   2.946131e-39   0.000000e+00   0.000000e+00
     1264000   1.263999e-05   8.908369e+00   4.733304e+00   2.186094e+01   6.968457e+05  -2.595043e+05   4.498464e+05  -1.190124e+01  -3.195834e+01  -5.477393e-21   8.690790e+05   2.115924e-39   0.000000e+00   0.000000e+00
     1272000   1.271999e-05   8.964117e+00   4.712543e+00   2.189693e+01   6.968457e+05  -2.595043e+05   4.498464e+05  -9.205530e+00  -2.471957e+01  -2.986302e-21   8.690790e+05   1.265962e-39   0.000000e+00   0.000000e+00
     1280000   1.279999e-05   9.019865e+00   4.691783e+00   2.193292e+01   6.968457e+05  -2.595043e+05   4.498464e+05  -1.178958e+01  -3.165850e+01   8.360397e-21   8.690790e+05   2.076218e-39   0.000000e+00   0.000000e+00
     1288000   1.287999e-05   9.075612e+00   4.671023e+00   2.196890e+01   6.968457e+05  -2.595043e+05   4.498464e+05  -1.339153e+01  -3.596021e+01   2.283837e-20   8.690790e+05   2.678789e-39   0.000000e+00   0.000000e+00
     1296000   1.295999e-05   9.131360e+00   4.650262e+00   2.200489e+01   6.968457e+05  -2.595043e+05   4.498464e+05  -9.417650e+00  -2.528917e+01   2.535501e-21   8.690790e+05   1.324842e-39   0.000000e+00   0.000000e+00
     1304000   1.303999e-05   9.187108e+00   4.629502e+00   2.204088e+01   6.968457e+05  -2.595043e+05   4.498464e+05  -1.048183e+01  -2.814681e+01  -1.112727e-20   8.690790e+05   1.641173e-39   0.000000e+00   0.000000e+00
     1312000   1.311999e-05   9.242855e+00   4.608742e+00   2.207687e+01   6.968457e+05  -2.595043e+05   4.498464e+05  -1.319974e+01  -3.544520e+01   5.650618e-21   8.690790e+05   2.602491e-39   0.000000e+00   0.000000e+00
     1320000   1.319999e-05   9.298603e+00   4.587981e+00   2.211285e+01   6.968457e+05  -2.595043e+05   4.498464e+05  -9.839691e+00  -2.642248e+01  -5.114783e-21   8.690790e+05   1.446270e-39   0.000000e+00   0.000000e+00
     1328000   1.327999e-05   9.354351e+00   4.567221e+00   2.214884e+01   6.968457e+05  -2.595043e+05   4.498464e+05  -9.532305e+00  -2.559705e+01  -3.396477e-21   8.690790e+05   1.357479e-39   0.000000e+00   0.000000e+00
     1336000   1.335999e-05   9.410098e+00   4.546461e+00   2.218483e+01   6.968457e+05  -2.595043e+05   4.498464e+05  -6.307849e+00  -1.693844e+01   1.240288e-21   8.690790e+05   5.943936e-40   0.000000e+00   0.000000e+00
     1344000   1.343999e-05   9.465846e+00   4.525700e+00   2.222082e+01   6.968457e+05  -2.595043e+05   4.498464e+05  -9.858564e+00  -2.647316e+01  -1.566814e-22   8.690790e+05   1.451770e-39   0.000000e+00   0.000000e+00
     1352000   1.351999e-05   9.521594e+00   4.504940e+00   2.225681e+01   6.968457e+05  -2.595043e+05   4.498464e+05  -9.390210e+00  -2.521549e+01   4.953720e-21   8.690790e+05   1.317218e-39   0.000000e+00   0.000000e+00
     1360000   1.359999e-05   9.577341e+00   4.484180e+00   2.229279e+01   6.968457e+05  -2.595043e+05   4.498464e+05  -7.587729e+00  -2.037529e+01   2.852089e-21   8.690790e+05   8.600388e-40   0.000000e+00   0.000000e+00
     1368000   1.367999e-05   9.633089e+00   4.463419e+00   2.232878e+01   6.968457e+05  -2.595043e+05   4.498464e+05  -1.045089e+01  -2.806373e+01  -2.562298e-23   8.690790e+05   1.631598e-39   0.000000e+00   0.000000e+00
     1376000   1.375999e-05   9.688837e+00   4.442659e+00   2.236477e+01   6.968457e+05  -2.595043e+05   4.498464e+05  -8.982116e+00  -2.411963e+01  -2.184599e-21   8.690790e+05   1.205220e-39   0.000000e+00   0.000000e+00
     1384000   1.383999e-05   9.744584e+00   4.421899e+00   2.240076e+01   6.968457e+05  -2.595043e+05   4.498464e+05  -1.366774e+01  -3.670192e+01  -1.597097e-21   8.690790e+05   2.790454e-39   0.000000e+00   0.000000e+00
     1392000   1.391999e-05   9.800332e+00   4.401138e+00   2.243674e+01   6.968457e+05  -2.595043e+05   4.498464e+05  -1.457934e+01  -3.914983e+01   6.731964e-21   8.690790e+05   3.175465e-39   0.000000e+00   0.000000e+00
     1400000   1.399999e-05   9.856080e+00   4.380378e+00   2.247273e+01   6.968457e+05  -2.595043e+05   4.498464e+05  -1.164922e+01  -3.128158e+01  -8.085346e-21   8.690790e+05   2.027249e-39   0.000000e+00   0.000000e+00
     1408000   1.407999e-05   9.911827e+00   4.359618e+00   2.250872e+01   6.968457e+05  -2.595043e+05   4.498464e+05  -1.041978e+01  -2.798019e+01  -1.796296e-21   8.690790e+05   1.621730e-39   0.000000e+00   0.000000e+00
     1416000   1.415999e-05   9.967575e+00   4.338857e+00   2.254471e+01   6.968457e+05  -2.595043e+05   4.498464e+05  -1.327894e+01  -3.565788e+01  -7.746431e-21   8.690790e+05   2.633872e-39   0.000000e+00   0.000000e+00
     1424000   1.423999e-05   1.002332e+01   4.318097e+00   2.258069e+01   6.968457e+05  -2.595043e+05   4.498464e+05  -7.063511e+00  -1.896762e+01   2.030020e-22   8.690790e+05   7.453144e-40   0.000000e+00   0.000000e+00
     1432000   1.431999e-05   1.007907e+01   4.297337e+00   2.261668e+01   6.968457e+05  -2.595043e+05   4.498464e+05  -4.213128e+00  -1.131349e+01  -3.249646e-22   8.690790e+05   2.651334e-40   0.000000e+00   0.000000e+00
     1440000   1.439999e-05   1.013482e+01   4.276576e+00   2.265267e+01   6.968457e+05  -2.595043e+05   4.498464e+05  -8.276680e+00  -2.222533e+01   3.016534e-21   8.690790e+05   1.023375e-39   0.000000e+00   0.000000e+00
     1448000   1.447999e-05   1.019057e+01   4.255816e+00   2.268866e+01   6.968457e+05  -2.595043e+05   4.498464e+05  -5.885936e+00  -1.580548e+01   2.681807e-22   8.690790e+05   5.175667e-40   0.000000e+00   0.000000e+00
     1456000   1.455999e-05   1.024631e+01   4.235056e+00   2.272465e+01   6.968457e+05  -2.595043e+05   4.498464e+05  -1.012073e+01  -2.717716e+01  -5.134937e-21   8.690790e+05   1.530144e-39   0.000000e+00   0.000000e+00
     1464000   1.463999e-05   1.030206e+01   4.214295e+00   2.276063e+01   6.968457e+05  -2.595043e+05   4.498464e+05  -1.219705e+01  -3.275267e+01  -1.588951e-20   8.690790e+05   2.222314e-39   0.000000e+00   0.000000e+00
     1472000   1.471999e-05   1.035781e+01   4.193535e+00   2.279662e+01   6.968457e+05  -2.595043e+05   4.498464e+05  -8.095065e-02  -2.173764e-01   7.653571e-23   8.690790e+05   9.970613e-44   0.000000e+00   0.000000e+00
     1480000   1.479999e-05   1.041356e+01   4.172774e+00   2.283261e+01   6.968457e+05  -2.595043e+05   4.498464e+05  -1.143283e+01  -3.070053e+01   3.560552e-22   8.690790e+05   1.952418e-39   0.000000e+00   0.000000e+00
     1488000   1.487999e-05   1.046930e+01   4.152014e+00   2.286860e+01   6.968457e+05  -2.595043e+05   4.498464e+05  -1.418117e+01  -3.808062e+01   1.022830e-20   8.690790e+05   3.003960e-39   0.000000e+00   0.000000e+00
     1496000   1.495999e-05   1.052505e+01   4.131254e+00   2.290458e+01   6.968457e+05  -2.595043e+05   4.498464e+05  -1.142207e+01  -3.067164e+01   2.590392e-21   8.690790e+05   1.948924e-39   0.000000e+00   0.000000e+00
     1504000   1.503999e-05   1.058080e+01   4.110493e+00   2.294057e+01   6.968457e+05  -2.595043e+05   4.498464e+05  -9.984440e+00  -2.681117e+01  -6.893624e-22   8.690790e+05   1.489204e-39   0.000000e+00   0.000000e+00
     1512000   1.511999e-05   1.063655e+01   4.089733e+00   2.297656e+01   6.968457e+05  -2.595043e+05   4.498464e+05  -8.189551e+00  -2.199136e+01  -3.176265e-21   8.690790e+05   1.001926e-39   0.000000e+00   0.000000e+00
     1520000   1.519999e-05   1.069229e+01   4.068973e+00   2.301255e+01   6.968457e+05  -2.595043e+05   4.498464e+05  -2.855698e+00  -7.668392e+00  -1.208005e-21   8.690790e+05   1.218609e-40   0.000000e+00   0.000000e+00
     1528000   1.527999e-05   1.074804e+01   4.048212e+00   2.304853e+01   6.968457e+05  -2.595043e+05   4.498464e+05  -1.144094e+01  -3.072229e+01   1.436805e-21   8.690790e+05   1.955174e-39   0.000000e+00   0.000000e+00
     1536000   1.535999e-05   1.080379e+01   4.027452e+00   2.308452e+01   6.968457e+05  -2.595043e+05   4.498464e+05  -1.121553e+01  -3.011702e+01  -5.313175e-21   8.690790e+05   1.879151e-39   0.000000e+00   0.000000e+00
     1544000   1.543999e-05   1.085954e+01   4.006692e+00   2.312051e+01   6.968457e+05  -2.595043e+05   4.498464e+05  -1.084843e+01  -2.913124e+01   2.004117e-21   8.690790e+05   1.758035e-39   0.000000e+00   0.000000e+00
     1552000   1.551999e-05   1.091529e+01   3.985931e+00   2.315650e+01   6.968457e+05  -2.595043e+05   4.498464e+05  -1.066531e+01  -2.863950e+01   1.293037e-20   8.690790e+05   1.699185e-39   0.000000e+00   0.000000e+00
     1560000   1.559999e-05   1.097103e+01   3.965171e+00   2.319249e+01   6.968457e+05  -2.595043e+05   4.498464e+05  -1.039579e+01  -2.791578e+01  -7.816254e-21   8.690790e+05   1.614393e-39   0.000000e+00   0.000000e+00
     1568000   1.567999e-05   1.102678e+01   3.944411e+00   2.322847e+01   6.968457e+05  -2.595043e+05   4.498464e+05  -1.109254e+01  -2.978674e+01   1.058814e-20   8.690790e+05   1.837933e-39   0.000000e+00   0.000000e+00
     1576000   1.575999e-05   1.108253e+01   3.923650e+00   2.326446e+01   6.968457e+05  -2.595043e+05   4.498464e+05  -1.346732e+01  -3.616374e+01  -6.350566e-21   8.690790e+05   2.709159e-39   0.000000e+00   0.000000e+00
     1584000   1.583999e-05   1.113828e+01   3.902890e+00   2.330045e+01   6.968457e+05  -2.595043e+05   4.498464e+05  -1.233050e+01  -3.311102e+01   2.180357e-21   8.690790e+05   2.271147e-39   0.000000e+00   0.000000e+00
     1592000   1.591999e-05   1.119402e+01   3.882130e+00   2.333644e+01   6.968457e+05  -2.595043e+05   4.498464e+05  -9.225752e+00  -2.477387e+01   2.404934e-21   8.690790e+05   1.271508e-39   0.000000e+00   0.000000e+00
     1600000   1.599999e-05   1.124977e+01   3.861369e+00   2.337242e+01   6.968457e+05  -2.595043e+05   4.498464e+05  -1.330611e+01  -3.573084e+01  -2.196909e-20   8.690790e+05   2.644768e-39   0.000000e+00   0.000000e+00
     1608000   1.607999e-05   1.130552e+01   3.840609e+00   2.340841e+01   6.968457e+05  -2.595043e+05   4.498464e+05  -1.018790e+01  -2.735752e+01  -7.407341e-21   8.690790e+05   1.550492e-39   0.000000e+00   0.000000e+00
     1616000   1.615999e-05   1.136127e+01   3.819849e+00   2.344440e+01   6.968457e+05  -2.595043e+05   4.498464e+05  -9.320113e+00  -2.502726e+01  -2.856926e-21   8.690790e+05   1.297608e-39   0.000000e+00   0.000000e+00
     1624000   1.623999e-05   1.141701e+01   3.799088e+00   2.348039e+01   6.968457e+05  -2.595043e+05   4.498464e+05  -5.806725e+00  -1.559277e+01  -8.104485e-22   8.690790e+05   5.037347e-40   0.000000e+00   0.000000e+00
     1632000   1.631999e-05   1.147276e+01   3.778328e+00   2.351638e+01   6.968457e+05  -2.595043e+05   4.498464e+05  -1.429902e+01  -3.839709e+01  -5.479040e-21   8.690790e+05   3.054088e-39   0.000000e+00   0.000000e+00
     1640000   1.639999e-05   1.152851e+01   3.757568e+00   2.355236e+01   6.968457e+05  -2.595043e+05   4.498464e+05  -6.475925e+00  -1.738977e+01   5.452050e-21   8.690790e+05   6.265573e-40   0.000000e+00   0.000000e+00
     1648000   1.647999e-05   1.158426e+01   3.736807e+00   2.358835e+01   6.968457e+05  -2.595043e+05   4.498464e+05  -2.542081e+00  -6.826238e+00   1.082739e-21   8.690790e+05   9.656902e-41   0.000000e+00   0.000000e+00
     1656000   1.655999e-05   1.164000e+01   3.716047e+00   2.362434e+01   6.968457e+05  -2.595043e+05   4.498464e+05  -6.968166e+00  -1.871159e+01  -3.738547e-21   8.690790e+05   7.254188e-40   0.000000e+00   0.000000e+00
     1664000   1.663999e-05   1.169575e+01   3.695287e+00   2.366033e+01   6.968457e+05  -2.595043e+05   4.498464e+05  -1.709202e+01  -4.589711e+01   3.540224e-21   8.690790e+05   4.363716e-39   0.000000e+00   0.000000e+00
     1672000   1.671999e-05   1.175150e+01   3.674526e+00   2.369631e+01   6.968457e+05  -2.595043e+05   4.498464e+05   3.025831e+00   8.125251e+00  -2.541110e-21   8.690790e+05   1.367205e-40   0.000000e+00   0.000000e+00
     1680000   1.679999e-05   1.180725e+01   3.653766e+00   2.373230e+01   6.968457e+05  -2.595043e+05   4.498464e+05  -9.977100e+00  -2.679146e+01  -1.414155e-20   8.690790e+05   1.487143e-39   0.000000e+00   0.000000e+00
     1688000   1.687999e-05   1.186300e+01   3.633006e+00   2.376829e+01   6.968457e+05  -2.595043e+05   4.498464e+05  -5.105973e+00  -1.371105e+01   1.334156e-21   8.690790e+05   3.895398e-40   0.000000e+00   0.000000e+00
     1696000   1.695999e-05   1.191874e+01   3.612245e+00   2.380428e+01   6.968457e+05  -2.595043e+05   4.498464e+05  -9.968138e+00  -2.676740e+01  -4.943099e-21   8.690790e+05   1.484346e-39   0.000000e+00   0.000000e+00
     1704000   1.703999e-05   1.197449e+01   3.591485e+00   2.384026e+01   6.968457e+05  -2.595043e+05   4.498464e+05  -1.064677e+01  -2.858971e+01  -2.499293e-21   8.690790e+05   1.693300e-39   0.000000e+00   0.000000e+00
     1712000   1.711999e-05   1.203024e+01   3.570724e+00   2.387625e+01   6.968457e+05  -2.595043e+05   4.498464e+05  -8.702630e+00  -2.336913e+01   5.950030e-21   8.690790e+05   1.131319e-39   0.000000e+00   0.000000e+00
     1720000   1.719999e-05   1.208599e+01   3.549964e+00   2.391224e+01   6.968457e+05  -2.595043e+05   4.498464e+05  -7.244964e+00  -1.945487e+01   1.501809e-21   8.690790e+05   7.840894e-40   0.000000e+00   0.000000e+00
     1728000   1.727999e-05   1.214173e+01   3.529204e+00   2.394823e+01   6.968457e+05  -2.595043e+05   4.498464e+05  -6.478080e+00  -1.739556e+01  -5.141878e-21   8.690790e+05   6.269100e-40   0.000000e+00   0.000000e+00
     1736000   1.735999e-05   1.219748e+01   3.508443e+00   2.398422e+01   6.968457e+05  -2.595043e+05   4.498464e+05  -5.198424e+00  -1.395930e+01   5.180504e-21   8.690790e+05   4.037024e-40   0.000000e+00   0.000000e+00
     1744000   1.743999e-05   1.225323e+01   3.487683e+00   2.402020e+01   6.968457e+05  -2.595043e+05   4.498464e+05  -1.593463e+00  -4.278919e+00   8.671709e-22   8.690790e+05   3.793804e-41   0.000000e+00   0.000000e+00
     1752000   1.751999e-05   1.230898e+01   3.466923e+00   2.405619e+01   6.968457e+05  -2.595043e+05   4.498464e+05  -9.750888e+00  -2.618402e+01   9.874947e-21   8.690790e+05   1.420182e-39   0.000000e+00   0.000000e+00
     1760000   1.759999e-05   1.236472e+01   3.446162e+00   2.409218e+01   6.968457e+05  -2.595043e+05   4.498464e+05  -1.295035e+01  -3.477551e+01   9.300414e-21   8.690790e+05   2.505113e-39   0.000000e+00   0.000000e+00
     1768000   1.767999e-05   1.242047e+01   3.425402e+00   2.412817e+01   6.968457e+05  -2.595043e+05   4.498464e+05  -9.106521e+00  -2.445370e+01  -6.367497e-22   8.690790e+05   1.238710e-39   0.000000e+00   0.000000e+00
     1776000   1.775999e-05   1.247622e+01   3.404642e+00   2.416415e+01   6.968457e+05  -2.595043e+05   4.498464e+05  -1.132556e+01  -3.041249e+01  -1.063960e-21   8.690790e+05   1.915974e-39   0.000000e+00   0.000000e+00
     1784000   1.783999e-05   1.253197e+01   3.383881e+00   2.420014e+01   6.968457e+05  -2.595043e+05   4.498464e+05  -6.573443e+00  -1.765164e+01  -5.104162e-21   8.690790e+05   6.455849e-40   0.000000e+00   0.000000e+00
     1792000   1.791999e-05   1.258771e+01   3.363121e+00   2.423613e+01   6.968457e+05  -2.595043e+05   4.498464e+05  -1.951938e+00  -5.241530e+00  -1.724948e-21   8.690790e+05   5.694823e-41   0.000000e+00   0.000000e+00
     1800000   1.799999e-05   1.264346e+01   3.342361e+00   2.427212e+01   6.968457e+05  -2.595043e+05   4.498464e+05  -8.082414e+00  -2.170367e+01  -9.343510e-21   8.690790e+05   9.757992e-40   0.000000e+00   0.000000e+00
     1808000   1.807999e-05   1.269921e+01   3.321600e+00   2.430810e+01   6.968457e+05  -2.595043e+05   4.498464e+05  -8.589320e+00  -2.306486e+01  -3.463462e-22   8.690790e+05   1.102032e-39   0.000000e+00   0.000000e+00
     1816000   1.815999e-05   1.275496e+01   3.300840e+00   2.434409e+01   6.968457e+05  -2.595043e+05   4.498464e+05  -8.750191e+00  -2.349685e+01  -6.419268e-21   8.690790e+05   1.143711e-39   0.000000e+00   0.000000e+00
     1824000   1.823999e-05   1.281071e+01   3.280080e+00   2.438008e+01   6.968457e+05  -2.595043e+05   4.498464e+05  -5.843540e+00  -1.569163e+01  -2.938456e-21   8.690790e+05   5.101755e-40   0.000000e+00   0.000000e+00
     1832000   1.831999e-05   1.286645e+01   3.259319e+00   2.441607e+01   6.968457e+05  -2.595043e+05   4.498464e+05  -6.179051e+00  -1.659258e+01   5.325005e-21   8.690790e+05   5.703377e-40   0.000000e+00   0.000000e+00
     1840000   1.839999e-05   1.292220e+01   3.238559e+00   2.445206e+01   6.968457e+05  -2.595043e+05   4.498464e+05  -4.394405e+00  -1.180028e+01   4.337037e-21   8.690790e+05   2.884565e-40   0.000000e+00   0.000000e+00
     1848000   1.847999e-05   1.297795e+01   3.217799e+00   2.448804e+01   6.968457e+05  -2.595043e+05   4.498464e+05  -4.842076e+00  -1.300240e+01  -1.532654e-21   8.690790e+05   3.502227e-40   0.000000e+00   0.000000e+00
     1856000   1.855999e-05   1.303370e+01   3.197038e+00   2.452403e+01   6.968457e+05  -2.595043e+05   4.498464e+05  -9.648962e+00  -2.591031e+01   3.918257e-21   8.690790e+05   1.390867e-39   0.000000e+00   0.000000e+00
     1864000   1.863999e-05   1.308944e+01   3.176278e+00   2.456002e+01   6.968457e+05  -2.595043e+05   4.498464e+05  -6.703017e+00  -1.799958e+01   1.360147e-21   8.690790e+05   6.712427e-40   0.000000e+00   0.000000e+00
     1872000   1.871999e-05   1.314519e+01   3.155518e+00   2.459601e+01   6.968457e+05  -2.595043e+05   4.498464e+05  -4.321186e+00  -1.160366e+01  -2.165145e-21   8.690790e+05   2.789224e-40   0.000000e+00   0.000000e+00
     1880000   1.879999e-05   1.320094e+01   3.134757e+00   2.463199e+01   6.968457e+05  -2.595043e+05   4.498464e+05  -3.516417e+00  -9.442618e+00   1.009901e-21   8.690790e+05   1.846840e-40   0.000000e+00   0.000000e+00
     1888000   1.887999e-05   1.325669e+01   3.113997e+00   2.466798e+01   6.968457e+05  -2.595043e+05   4.498464e+05  -5.545529e+00  -1.489138e+01  -2.646282e-21   8.690790e+05   4.593434e-40   0.000000e+00   0.000000e+00
     1896000   1.895999e-05   1.331243e+01   3.093237e+00   2.470397e+01   6.968457e+05  -2.595043e+05   4.498464e+05  -9.369097e+00  -2.515879e+01  -5.502069e-21   8.690790e+05   1.311405e-39   0.000000e+00   0.000000e+00
     1904000   1.903999e-05   1.336818e+01   3.072476e+00   2.473996e+01   6.968457e+05  -2.595043e+05   4.498464e+05  -5.035092e+00  -1.352071e+01  -5.080047e-22   8.690790e+05   3.787909e-40   0.000000e+00   0.000000e+00
     1912000   1.911999e-05   1.342393e+01   3.051716e+00   2.477595e+01   6.968457e+05  -2.595043e+05   4.498464e+05  -7.149525e+00  -1.919859e+01  -6.343608e-21   8.690790e+05   7.634705e-40   0.000000e+00   0.000000e+00
     1920000   1.919999e-05   1.347968e+01   3.030956e+00   2.481193e+01   6.968457e+05  -2.595043e+05   4.498464e+05  -6.893616e+00  -1.851140e+01   8.532816e-22   8.690790e+05   7.099275e-40   0.000000e+00   0.000000e+00
     1928000   1.927999e-05   1.353543e+01   3.010195e+00   2.484792e+01   6.968457e+05  -2.595043e+05   4.498464e+05  -4.378973e+00  -1.175884e+01   1.880192e-21   8.690790e+05   2.864746e-40   0.000000e+00   0.000000e+00
     1936000   1.935999e-05   1.359117e+01   2.989435e+00   2.488391e+01   6.968457e+05  -2.595043e+05   4.498464e+05  -7.743502e+00  -2.079359e+01  -2.050351e-21   8.690790e+05   8.956837e-40   0.000000e+00   0.000000e+00
     1944000   1.943999e-05   1.364692e+01   2.968674e+00   2.491990e+01   6.968457e+05  -2.595043e+05   4.498464e+05   3.083121e+00   8.279090e+00  -3.997386e-22   8.690790e+05   1.419544e-40   0.000000e+00   0.000000e+00
     1952000   1.951999e-05   1.370267e+01   2.947914e+00   2.495588e+01   6.968457e+05  -2.595043e+05   4.498464e+05  -2.977013e+00  -7.994160e+00  -8.061546e-22   8.690790e+05   1.323269e-40   0.000000e+00   0.000000e+00
     1960000   1.959999e-05   1.375842e+01   2.927154e+00   2.499187e+01   6.968457e+05  -2.595043e+05   4.498464e+05  -8.587489e+00  -2.305994e+01   3.737564e-22   8.690790e+05   1.101419e-39   0.000000e+00   0.000000e+00
     1968000   1.967999e-05   1.381416e+01   2.906393e+00   2.502786e+01   6.968457e+05  -2.595043e+05   4.498464e+05  -7.189428e+00  -1.930574e+01   1.032356e-20   8.690790e+05   7.721506e-40   0.000000e+00   0.000000e+00
     1976000   1.975999e-05   1.386991e+01   2.885633e+00   2.506385e+01   6.968457e+05  -2.595043e+05   4.498464e+05  -2.523368e+00  -6.775989e+00   2.890803e-22   8.690790e+05   9.515591e-41   0.000000e+00   0.000000e+00
     1984000   1.983999e-05   1.392566e+01   2.864873e+00   2.509983e+01   6.968457e+05  -2.595043e+05   4.498464e+05  -1.016938e+01  -2.730778e+01  -1.621388e-21   8.690790e+05   1.544743e-39   0.000000e+00   0.000000e+00
     1992000   1.991999e-05   1.398141e+01   2.844112e+00   2.513582e+01   6.968457e+05  -2.595043e+05   4.498464e+05   2.811346e+00   7.549296e+00   8.732962e-22   8.690790e+05   1.180052e-40   0.000000e+00   0.000000e+00
     2000000   1.999999e-05   1.403715e+01   2.823352e+00   2.517181e+01   6.968457e+05  -2.595043e+05   4.498464e+05  -6.127799e+00  -1.645495e+01   1.246124e-21   8.690790e+05   5.608532e-40   0.000000e+00   0.000000e+00
     2008000   2.007999e-05   1.409290e+01   2.802592e+00   2.520780e+01   6.968457e+05  -2.595043e+05   4.498464e+05  -2.302746e+00  -6.183553e+00  -4.909958e-22   8.690790e+05   7.923321e-41   0.000000e+00   0.000000e+00
     2016000   2.015999e-05   1.414865e+01   2.781831e+00   2.524379e+01   6.968457e+05  -2.595043e+05   4.498464e+05  -3.267244e+00  -8.773514e+00  -1.546736e-21   8.690790e+05   1.594514e-40   0.000000e+00   0.000000e+00
     2024000   2.023999e-05   1.420440e+01   2.761071e+00   2.527977e+01   6.968457e+05  -2.595043e+05   4.498464e+05  -2.152577e+00  -5.780304e+00  -1.788032e-21   8.690790e+05   6.922007e-41   0.000000e+00   0.000000e+00
     2032000   2.031999e-05   1.426014e+01   2.740311e+00   2.531576e+01   6.968457e+05  -2.595043e+05   4.498464e+05  -6.168452e+00  -1.656411e+01   7.759049e-22   8.690790e+05   5.682993e-40   0.000000e+00   0.000000e+00
     2040000   2.039999e-05   1.431589e+01   2.719550e+00   2.535175e+01   6.968457e+05  -2.595043e+05   4.498464e+05  -3.046020e+00  -8.179465e+00   1.150345e-21   8.690790e+05   1.386461e-40   0.000000e+00   0.000000e+00
     2048000   2.047999e-05   1.437164e+01   2.698790e+00   2.538774e+01   6.968457e+05  -2.595043e+05   4.498464e+05  -1.259696e+01  -3.382656e+01  -2.028446e-22   8.690790e+05   2.370358e-39   0.000000e+00   0.000000e+00
     2056000   2.055999e-05   1.442739e+01   2.678030e+00   2.542372e+01   6.968457e+05  -2.595043e+05   4.498464e+05  -1.982898e+00  -5.324667e+00  -8.161180e-22   8.690790e+05   5.871278e-41   0.000000e+00   0.000000e+00
     2064000   2.063999e-05   1.448314e+01   2.657269e+00   2.545971e+01   6.968457e+05  -2.595043e+05   4.498464e+05  -4.892348e+00  -1.313740e+01   2.074291e-21   8.690790e+05   3.574879e-40   0.000000e+00   0.000000e+00
     2072000   2.071999e-05   1.453888e+01   2.636509e+00   2.549570e+01   6.968457e+05  -2.595043e+05   4.498464e+05   2.349531e+00   6.309186e+00  -3.195403e-22   8.690790e+05   8.242062e-41   0.000000e+00   0.000000e+00
     2080000   2.079999e-05   1.459463e+01   2.615749e+00   2.553169e+01   6.968457e+05  -2.595043e+05   4.498464e+05   3.243839e-01   8.710666e-01  -3.642181e-22   8.690790e+05   1.570766e-42   0.000000e+00   0.000000e+00
     2088000   2.087999e-05   1.465038e+01   2.594988e+00   2.556767e+01   6.968457e+05  -2.595043e+05   4.498464e+05   9.060455e-01   2.433000e+00  -5.036911e-22   8.690790e+05   1.226412e-41   0.000000e+00   0.000000e+00
     2096000   2.095999e-05   1.470613e+01   2.574228e+00   2.560366e+01   6.968457e+05  -2.595043e+05   4.498464e+05  -9.364833e-01  -2.514734e+00   3.358087e-22   8.690790e+05   1.310467e-41   0.000000e+00   0.000000e+00
     2104000   2.103999e-05   1.476187e+01   2.553468e+00   2.563965e+01   6.968457e+05  -2.595043e+05   4.498464e+05   2.254779e-01   6.054748e-01   1.215303e-22   8.690790e+05   7.584720e-43   0.000000e+00   0.000000e+00
     2112000   2.111999e-05   1.481762e+01   2.532707e+00   2.567564e+01   6.968457e+05  -2.595043e+05   4.498464e+05  -2.283880e+00  -6.132892e+00  -4.362099e-22   8.690790e+05   7.790204e-41   0.000000e+00   0.000000e+00
     2120000   2.119999e-05   1.487337e+01   2.511947e+00   2.571163e+01   6.968457e+05  -2.595043e+05   4.498464e+05  -1.251747e+00  -3.361309e+00   9.847343e-23   8.690790e+05   2.341276e-41   0.000000e+00   0.000000e+00
     2128000   2.127999e-05   1.492912e+01   2.491187e+00   2.574761e+01   6.968457e+05  -2.595043e+05   4.498464e+05   5.794818e-01   1.556080e+00   8.320622e-23   8.690790e+05   5.015157e-42   0.000000e+00   0.000000e+00
     2136000   2.135999e-05   1.498486e+01   2.470426e+00   2.578360e+01   6.968457e+05  -2.595043e+05   4.498464e+05   1.039654e+00   2.791778e+00  -2.388271e-22   8.690790e+05   1.614436e-41   0.000000e+00   0.000000e+00
     2144000   2.143999e-05   1.504061e+01   2.449666e+00   2.581959e+01   6.968457e+05  -2.595043e+05   4.498464e+05  -4.768155e+00  -1.280390e+01   4.088643e-21   8.690790e+05   3.395669e-40   0.000000e+00   0.000000e+00
     2152000   2.151999e-05   1.509636e+01   2.428906e+00   2.585558e+01   6.968457e+05  -2.595043e+05   4.498464e+05  -7.691540e+00  -2.065406e+01  -3.719286e-21   8.690790e+05   8.836423e-40   0.000000e+00   0.000000e+00
     2160000   2.159999e-05   1.515211e+01   2.408145e+00   2.589156e+01   6.968457e+05  -2.595043e+05   4.498464e+05  -3.420189e-01  -9.184218e-01   1.372231e-22   8.690790e+05   1.751759e-42   0.000000e+00   0.000000e+00
     2168000   2.167999e-05   1.520785e+01   2.387385e+00   2.592755e+01   6.968457e+05  -2.595043e+05   4.498464e+05   6.544947e-01   1.757512e+00   3.998394e-22   8.690790e+05   6.394398e-42   0.000000e+00   0.000000e+00
     2176000   2.175999e-05   1.526360e+01   2.366624e+00   2.596354e+01   6.968457e+05  -2.595043e+05   4.498464e+05   2.485675e+00   6.674771e+00   1.237325e-23   8.690790e+05   9.227834e-41   0.000000e+00   0.000000e+00
     2184000   2.183999e-05   1.531935e+01   2.345864e+00   2.599953e+01   6.968457e+05  -2.595043e+05   4.498464e+05  -3.200057e+00  -8.593097e+00  -8.310589e-22   8.690790e+05   1.529522e-40   0.000000e+00   0.000000e+00
     2192000   2.191999e-05   1.537510e+01   2.325104e+00   2.603552e+01   6.968457e+05  -2.595043e+05   4.498464e+05  -3.492384e+00  -9.378082e+00  -1.457547e-21   8.690790e+05   1.821824e-40   0.000000e+00   0.000000e+00
     2200000   2.199999e-05   1.543085e+01   2.304343e+00   2.607150e+01   6.968457e+05  -2.595043e+05   4.498464e+05  -2.972533e+00  -7.982130e+00  -1.227687e-22   8.690790e+05   1.320036e-40   0.000000e+00   0.000000e+00
     2208000   2.207999e-05   1.548659e+01   2.283583e+00   2.610749e+01   6.968457e+05  -2.595043e+05   4.498464e+05  -6.339882e+00  -1.702446e+01  -1.224533e-22   8.690790e+05   6.004081e-40   0.000000e+00   0.000000e+00
     2216000   2.215999e-05   1.554234e+01   2.262823e+00   2.614348e+01   6.968457e+05  -2.595043e+05   4.498464e+05   9.914257e-01   2.662271e+00  -1.637901e-22   8.690790e+05   1.467591e-41   0.000000e+00   0.000000e+00
     2224000   2.223999e-05   1.559809e+01   2.242062e+00   2.617947e+01   6.968457e+05  -2.595043e+05   4.498464e+05   2.877604e+00   7.727218e+00  -4.667488e-22   8.690790e+05   1.236751e-40   0.000000e+00   0.000000e+00
     2232000   2.231999e-05   1.565384e+01   2.221302e+00   2.621545e+01   6.968457e+05  -2.595043e+05   4.498464e+05   1.577093e+00   4.234961e+00   3.525239e-22   8.690790e+05   3.717379e-41   0.000000e+00   0.000000e+00
     2240000   2.239999e-05   1.570958e+01   2.200542e+00   2.625144e+01   6.968457e+05  -2.595043e+05   4.498464e+05   4.751200e-02   1.275838e-01   1.245568e-24   8.690790e+05   3.299377e-44   0.000000e+00   0.000000e+00
     2248000   2.247999e-05   1.576533e+01   2.179781e+00   2.628743e+01   6.968457e+05  -2.595043e+05   4.498464e+05  -3.015287e+00  -8.096936e+00   2.493141e-22   8.690790e+05   1.357997e-40   0.000000e+00   0.000000e+00
     2256000   2.255999e-05   1.582108e+01   2.159021e+00   2.632342e+01   6.968457e+05  -2.595043e+05   4.498464e+05   1.764542e+00   4.738316e+00  -9.617098e-22   8.690790e+05   4.649912e-41   0.000000e+00   0.000000e+00
     2264000   2.263999e-05   1.587683e+01   2.138261e+00   2.635940e+01   6.968457e+05  -2.595043e+05   4.498464e+05   3.557985e+00   9.554242e+00  -7.527377e-24   8.690790e+05   1.890796e-40   0.000000e+00   0.000000e+00
     2272000   2.271999e-05   1.593257e+01   2.117500e+00   2.639539e+01   6.968457e+05  -2.595043e+05   4.498464e+05   5.316349e+00   1.427597e+01   7.775173e-22   8.690790e+05   4.221999e-40   0.000000e+00   0.000000e+00
     2280000   2.279999e-05   1.598832e+01   2.096740e+00   2.643138e+01   6.968457e+05  -2.595043e+05   4.498464e+05   3.150121e+00   8.459007e+00  -1.082073e-21   8.690790e+05   1.482723e-40   0.000000e+00   0.000000e+00
     2288000   2.287999e-05   1.604407e+01   2.075980e+00   2.646737e+01   6.968457e+05  -2.595043e+05   4.498464e+05  -1.973077e+00  -5.298295e+00   2.520377e-21   8.690790e+05   5.817120e-41   0.000000e+00   0.000000e+00
     2296000   2.295999e-05   1.609982e+01   2.055219e+00   2.650336e+01   6.968457e+05  -2.595043e+05   4.498464e+05   5.639744e+00   1.514438e+01  -1.073214e-21   8.690790e+05   4.750622e-40   0.000000e+00   0.000000e+00
     2304000   2.303999e-05   1.615557e+01   2.034459e+00   2.653934e+01   6.968457e+05  -2.595043e+05   4.498464e+05   6.886985e+00   1.849359e+01   1.088355e-22   8.690790e+05   7.084305e-40   0.000000e+00   0.000000e+00
     2312000   2.311999e-05   1.621131e+01   2.013699e+00   2.657533e+01   6.968457e+05  -2.595043e+05   4.498464e+05   3.465936e+00   9.307061e+00  -3.136665e-21   8.690790e+05   1.795124e-40   0.000000e+00   0.000000e+00
     2320000   2.319999e-05   1.626706e+01   1.992938e+00   2.661132e+01   6.968457e+05  -2.595043e+05   4.498464e+05   5.763812e-01   1.547754e+00   2.355301e-22   8.690790e+05   4.971439e-42   0.000000e+00   0.000000e+00
     2328000   2.327999e-05   1.632281e+01   1.972178e+00   2.664731e+01   6.968457e+05  -2.595043e+05   4.498464e+05   3.871497e-01   1.039611e+00   2.689289e-22   8.690790e+05   2.237691e-42   0.000000e+00   0.000000e+00
     2336000   2.335999e-05   1.637856e+01   1.951418e+00   2.668329e+01   6.968457e+05  -2.595043e+05   4.498464e+05   1.275004e+00   3.423763e+00  -3.289648e-22   8.690790e+05   2.427945e-41   0.000000e+00   0.000000e+00
     2344000   2.343999e-05   1.643430e+01   1.930657e+00   2.671928e+01   6.968457e+05  -2.595043e+05   4.498464e+05   4.961931e+00   1.332425e+01  -2.074186e-21   8.690790e+05   3.676866e-40   0.000000e+00   0.000000e+00
     2352000   2.351999e-05   1.649005e+01   1.909897e+00   2.675527e+01   6.968457e+05  -2.595043e+05   4.498464e+05   1.020618e+01   2.740660e+01  -1.358384e-20   8.690790e+05   1.555828e-39   0.000000e+00   0.000000e+00
     2360000   2.359999e-05   1.654580e+01   1.889137e+00   2.679126e+01   6.968457e+05  -2.595043e+05   4.498464e+05   1.202232e+01   3.228348e+01  -3.517406e-21   8.690790e+05   2.159001e-39   0.000000e+00   0.000000e+00
     2368000   2.367999e-05   1.660155e+01   1.868376e+00   2.682724e+01   6.968457e+05  -2.595043e+05   4.498464e+05   2.537524e+00   6.814002e+00  -1.545869e-21   8.690790e+05   9.615064e-41   0.000000e+00   0.000000e+00
     2376000   2.375999e-05   1.665729e+01   1.847616e+00   2.686323e+01   6.968457e+05  -2.595043e+05   4.498464e+05   6.262258e+00   1.681601e+01   8.734802e-21   8.690790e+05   5.857179e-40   0.000000e+00   0.000000e+00
     2384000   2.383999e-05   1.671304e+01   1.826856e+00   2.689922e+01   6.968457e+05  -2.595043e+05   4.498464e+05   1.563390e+00   4.198165e+00   9.672523e-23   8.690790e+05   3.652534e-41   0.000000e+00   0.000000e+00
     2392000   2.391999e-05   1.676879e+01   1.806095e+00   2.693521e+01   6.968457e+05  -2.595043e+05   4.498464e+05   7.201774e+00   1.933889e+01  -8.444837e-22   8.690790e+05   7.746743e-40   0.000000e+00   0.000000e+00
     2400000   2.399999e-05   1.682454e+01   1.785335e+00   2.697120e+01   6.968457e+05  -2.595043e+05   4.498464e+05   4.115922e+00   1.105247e+01   2.629352e-21   8.690790e+05   2.530883e-40   0.000000e+00   0.000000e+00
     2408000   2.407999e-05   1.688028e+01   1.764574e+00   2.700718e+01   6.968457e+05  -2.595043e+05   4.498464e+05   7.592891e+00   2.038916e+01  -4.587535e-21   8.690790e+05   8.611038e-40   0.000000e+00   0.000000e+00
     2416000   2.415999e-05   1.693603e+01   1.743814e+00   2.704317e+01   6.968457e+05  -2.595043e+05   4.498464e+05   3.602048e+00   9.672562e+00  -9.221933e-22   8.690790e+05   1.938624e-40   0.000000e+00   0.000000e+00
     2424000   2.423999e-05   1.699178e+01   1.723054e+00   2.707916e+01   6.968457e+05  -2.595043e+05   4.498464e+05   1.656652e-01   4.448599e-01  -5.229498e-23   8.690790e+05   4.121002e-43   0.000000e+00   0.000000e+00
     2432000   2.431999e-05   1.704753e+01   1.702293e+00   2.711515e+01   6.968457e+05  -2.595043e+05   4.498464e+05   3.314092e+00   8.899316e+00  -2.720881e-21   8.690790e+05   1.641247e-40   0.000000e+00   0.000000e+00
     2440000   2.439999e-05   1.710328e+01   1.681533e+00   2.715113e+01   6.968457e+05  -2.595043e+05   4.498464e+05   1.255190e+00   3.370557e+00   9.593262e-22   8.690790e+05   2.353291e-41   0.000000e+00   0.000000e+00
     2448000   2.447999e-05   1.715902e+01   1.660773e+00   2.718712e+01   6.968457e+05  -2.595043e+05   4.498464e+05   1.658084e+00   4.452446e+00   2.049080e-22   8.690790e+05   4.106558e-41   0.000000e+00   0.000000e+00
     2456000   2.455999e-05   1.721477e+01   1.640012e+00   2.722311e+01   6.968457e+05  -2.595043e+05   4.498464e+05   6.771070e+00   1.818232e+01   1.081626e-21   8.690790e+05   6.848090e-40   0.000000e+00   0.000000e+00
     2464000   2.463999e-05   1.727052e+01   1.619252e+00   2.725910e+01   6.968457e+05  -2.595043e+05   4.498464e+05   9.035218e+00   2.426223e+01   4.027513e-21   8.690790e+05   1.219386e-39   0.000000e+00   0.000000e+00
     2472000   2.471999e-05   1.732627e+01   1.598492e+00   2.729509e+01   6.968457e+05  -2.595043e+05   4.498464e+05   8.660710e+00   2.325657e+01   5.941758e-21   8.690790e+05   1.120516e-39   0.000000e+00   0.000000e+00
     2480000   2.479999e-05   1.738201e+01   1.577731e+00   2.733107e+01   6.968457e+05  -2.595043e+05   4.498464e+05   1.056036e+01   2.835769e+01   9.284746e-21   8.690790e+05   1.665905e-39   0.000000e+00   0.000000e+00
     2488000   2.487999e-05   1.743776e+01   1.556971e+00   2.736706e+01   6.968457e+05  -2.595043e+05   4.498464e+05   2.447040e+00   6.571024e+00  -8.043056e-22   8.690790e+05   8.944923e-41   0.000000e+00   0.000000e+00
     2496000   2.495999e-05   1.749351e+01   1.536211e+00   2.740305e+01   6.968457e+05  -2.595043e+05   4.498464e+05   8.106282e+00   2.176776e+01  -4.095776e-21   8.690790e+05   9.815395e-40   0.000000e+00   0.000000e+00
     2504000   2.503999e-05   1.754926e+01   1.515450e+00   2.743904e+01   6.968457e+05  -2.595043e+05   4.498464e+05   4.268790e+00   1.146296e+01  -3.615077e-21   8.690790e+05   2.722483e-40   0.000000e+00   0.000000e+00
     2512000   2.511999e-05   1.760500e+01   1.494690e+00   2.747502e+01   6.968457e+05  -2.595043e+05   4.498464e+05   6.109720e+00   1.640640e+01   4.473126e-21   8.690790e+05   5.575873e-40   0.000000e+00   0.000000e+00
     2520000   2.519999e-05   1.766075e+01   1.473930e+00   2.751101e+01   6.968457e+05  -2.595043e+05   4.498464e+05  -4.039860e-01  -1.084822e+00   1.553996e-22   8.690790e+05   2.430784e-42   0.000000e+00   0.000000e+00
     2528000   2.527999e-05   1.771650e+01   1.453169e+00   2.754700e+01   6.968457e+05  -2.595043e+05   4.498464e+05   6.522118e+00   1.751381e+01   2.240330e-22   8.690790e+05   6.353236e-40   0.000000e+00   0.000000e+00
     2536000   2.535999e-05   1.777225e+01   1.432409e+00   2.758299e+01   6.968457e+05  -2.595043e+05   4.498464e+05   1.093855e+01   2.937324e+01  -4.473722e-21   8.690790e+05   1.787174e-39   0.000000e+00   0.000000e+00
     2544000   2.543999e-05   1.782799e+01   1.411649e+00   2.761897e+01   6.968457e+05  -2.595043e+05   4.498464e+05   5.726310e+00   1.537683e+01   2.987301e-21   8.690790e+05   4.898932e-40   0.000000e+00   0.000000e+00
     2552000   2.551999e-05   1.788374e+01   1.390888e+00   2.765496e+01   6.968457e+05  -2.595043e+05   4.498464e+05   4.851711e+00   1.302828e+01   5.685915e-22   8.690790e+05   3.516651e-40   0.000000e+00   0.000000e+00
     2560000   2.559999e-05   1.793949e+01   1.370128e+00   2.769095e+01   6.968457e+05  -2.595043e+05   4.498464e+05   4.209464e+00   1.130366e+01  -2.097372e-21   8.690790e+05   2.646585e-40   0.000000e+00   0.000000e+00
     2568000   2.567999e-05   1.799524e+01   1.349368e+00   2.772694e+01   6.968457e+05  -2.595043e+05   4.498464e+05   6.224309e+00   1.671411e+01  -5.827559e-21   8.690790e+05   5.786840e-40   0.000000e+00   0.000000e+00
     2576000   2.575999e-05   1.805099e+01   1.328607e+00   2.776293e+01   6.968457e+05  -2.595043e+05   4.498464e+05   8.151423e+00   2.188898e+01   3.015272e-21   8.690790e+05   9.925214e-40   0.000000e+00   0.000000e+00
     2584000   2.583999e-05   1.810673e+01   1.307847e+00   2.779891e+01   6.968457e+05  -2.595043e+05   4.498464e+05   6.125824e+00   1.644965e+01   6.555952e-21   8.690790e+05   5.605663e-40   0.000000e+00   0.000000e+00
     2592000   2.591999e-05   1.816248e+01   1.287087e+00   2.783490e+01   6.968457e+05  -2.595043e+05   4.498464e+05   1.043585e+01   2.802335e+01   4.869280e-21   8.690790e+05   1.626710e-39   0.000000e+00   0.000000e+00
     2600000   2.599999e-05   1.821823e+01   1.266326e+00   2.787089e+01   6.968457e+05  -2.595043e+05   4.498464e+05   1.006190e+01   2.701918e+01  -3.275235e-22   8.690790e+05   1.512385e-39   0.000000e+00   0.000000e+00
     2608000   2.607999e-05   1.827398e+01   1.245566e+00   2.790688e+01   6.968457e+05  -2.595043e+05   4.498464e+05   9.786840e+00   2.628056e+01   3.842650e-21   8.690790e+05   1.430729e-39   0.000000e+00   0.000000e+00
     2616000   2.615999e-05   1.832972e+01   1.224806e+00   2.794286e+01   6.968457e+05  -2.595043e+05   4.498464e+05   7.620901e+00   2.046437e+01  -9.486758e-23   8.690790e+05   8.675991e-40   0.000000e+00   0.000000e+00
     2624000   2.623999e-05   1.838547e+01   1.204045e+00   2.797885e+01   6.968457e+05  -2.595043e+05   4.498464e+05   6.547305e+00   1.758145e+01  -2.363257e-21   8.690790e+05   6.403746e-40   0.000000e+00   0.000000e+00
     2632000   2.631999e-05   1.844122e+01   1.183285e+00   2.801484e+01   6.968457e+05  -2.595043e+05   4.498464e+05   8.660040e+00   2.325477e+01   4.071363e-21   8.690790e+05   1.120289e-39   0.000000e+00   0.000000e+00
     2640000   2.639999e-05   1.849697e+01   1.162524e+00   2.805083e+01   6.968457e+05  -2.595043e+05   4.498464e+05   8.728952e+00   2.343981e+01   9.526813e-21   8.690790e+05   1.138189e-39   0.000000e+00   0.000000e+00
     2648000   2.647999e-05   1.855271e+01   1.141764e+00   2.808681e+01   6.968457e+05  -2.595043e+05   4.498464e+05   4.047003e+00   1.086740e+01   5.762626e-21   8.690790e+05   2.446900e-40   0.000000e+00   0.000000e+00
     2656000   2.655999e-05   1.860846e+01   1.121004e+00   2.812280e+01   6.968457e+05  -2.595043e+05   4.498464e+05   7.938634e+00   2.131758e+01   1.154656e-21   8.690790e+05   9.415139e-40   0.000000e+00   0.000000e+00
     2664000   2.663999e-05   1.866421e+01   1.100243e+00   2.815879e+01   6.968457e+05  -2.595043e+05   4.498464e+05   4.719477e+00   1.267319e+01   1.566917e-21   8.690790e+05   3.327767e-40   0.000000e+00   0.000000e+00
     2672000   2.671999e-05   1.871996e+01   1.079483e+00   2.819478e+01   6.968457e+05  -2.595043e+05   4.498464e+05   1.299946e+01   3.490738e+01  -6.771292e-21   8.690790e+05   2.523985e-39   0.000000e+00   0.000000e+00
     2680000   2.679999e-05   1.877570e+01   1.058723e+00   2.823077e+01   6.968457e+05  -2.595043e+05   4.498464e+05   5.059742e+00   1.358690e+01  -5.599986e-21   8.690790e+05   3.824949e-40   0.000000e+00   0.000000e+00
     2688000   2.687999e-05   1.883145e+01   1.037962e+00   2.826675e+01   6.968457e+05  -2.595043e+05   4.498464e+05   1.060174e+01   2.846881e+01  -6.580295e-21   8.690790e+05   1.678881e-39   0.000000e+00   0.000000e+00
     2696000   2.695999e-05   1.888720e+01   1.017202e+00   2.830274e+01   6.968457e+05  -2.595043e+05   4.498464e+05   8.507166e+00   2.284425e+01  -5.400314e-21   8.690790e+05   1.081189e-39   0.000000e+00   0.000000e+00
     2704000   2.703999e-05   1.894295e+01   9.964417e-01   2.833873e+01   6.968457e+05  -2.595043e+05   4.498464e+05   5.636895e+00   1.513673e+01  -1.360866e-21   8.690790e+05   4.747096e-40   0.000000e+00   0.000000e+00
     2712000   2.711999e-05   1.899870e+01   9.756814e-01   2.837472e+01   6.968457e+05  -2.595043e+05   4.498464e+05   2.681451e+00   7.200489e+00   1.366553e-21   8.690790e+05   1.074362e-40   0.000000e+00   0.000000e+00
     2720000   2.719999e-05   1.905444e+01   9.549211e-01   2.841070e+01   6.968457e+05  -2.595043e+05   4.498464e+05   8.035012e+00   2.157638e+01  -7.836689e-21   8.690790e+05   9.643770e-40   0.000000e+00   0.000000e+00
     2728000   2.727999e-05   1.911019e+01   9.341607e-01   2.844669e+01   6.968457e+05  -2.595043e+05   4.498464e+05   8.536147e+00   2.292208e+01   1.845823e-22   8.690790e+05   1.088338e-39   0.000000e+00   0.000000e+00
     2736000   2.735999e-05   1.916594e+01   9.134004e-01   2.848268e+01   6.968457e+05  -2.595043e+05   4.498464e+05   1.255375e+01   3.371053e+01   9.324319e-21   8.690790e+05   2.353983e-39   0.000000e+00   0.000000e+00
     2744000   2.743999e-05   1.922169e+01   8.926400e-01   2.851867e+01   6.968457e+05  -2.595043e+05   4.498464e+05   1.100681e+01   2.955653e+01  -6.734067e-21   8.690790e+05   1.809810e-39   0.000000e+00   0.000000e+00
     2752000   2.751999e-05   1.927743e+01   8.718797e-01   2.855466e+01   6.968457e+05  -2.595043e+05   4.498464e+05   9.090531e+00   2.441076e+01  -5.034234e-21   8.690790e+05   1.234504e-39   0.000000e+00   0.000000e+00
     2760000   2.759999e-05   1.933318e+01   8.511193e-01   2.859064e+01   6.968457e+05  -2.595043e+05   4.498464e+05   8.328550e+00   2.236462e+01   7.192281e-21   8.690790e+05   1.036034e-39   0.000000e+00   0.000000e+00
     2768000   2.767999e-05   1.938893e+01   8.303590e-01   2.862663e+01   6.968457e+05  -2.595043e+05   4.498464e+05   1.259197e+01   3.381315e+01  -7.356305e-21   8.690790e+05   2.368361e-39   0.000000e+00   0.000000e+00
     2776000   2.775999e-05   1.944468e+01   8.095986e-01   2.866262e+01   6.968457e+05  -2.595043e+05   4.498464e+05   1.236616e+01   3.320679e+01  -9.384050e-22   8.690790e+05   2.284396e-39   0.000000e+00   0.000000e+00
     2784000   2.783999e-05   1.950042e+01   7.888383e-01   2.869861e+01   6.968457e+05  -2.595043e+05   4.498464e+05   3.767024e+00   1.011557e+01   2.054811e-21   8.690790e+05   2.120576e-40   0.000000e+00   0.000000e+00
     2792000   2.791999e-05   1.955617e+01   7.680779e-01   2.873459e+01   6.968457e+05  -2.595043e+05   4.498464e+05   1.146077e+01   3.077554e+01  -1.454857e-21   8.690790e+05   1.961940e-39   0.000000e+00   0.000000e+00
     2800000   2.799999e-05   1.961192e+01   7.473176e-01   2.877058e+01   6.968457e+05  -2.595043e+05   4.498464e+05   7.710619e+00   2.070529e+01   1.232593e-22   8.690790e+05   8.881702e-40   0.000000e+00   0.000000e+00
     2808000   2.807999e-05   1.966767e+01   7.265573e-01   2.880657e+01   6.968457e+05  -2.595043e+05   4.498464e+05   1.170494e+01   3.143122e+01   7.267519e-21   8.690790e+05   2.046419e-39   0.000000e+00   0.000000e+00
     2816000   2.815999e-05   1.972342e+01   7.057969e-01   2.884256e+01   6.968457e+05  -2.595043e+05   4.498464e+05   1.184082e+01   3.179611e+01   8.116156e-21   8.690790e+05   2.094290e-39   0.000000e+00   0.000000e+00
     2824000   2.823999e-05   1.977916e+01   6.850366e-01   2.887854e+01   6.968457e+05  -2.595043e+05   4.498464e+05   1.182993e+01   3.176687e+01   6.501569e-21   8.690790e+05   2.090542e-39   0.000000e+00   0.000000e+00
     2832000   2.831999e-05   1.983491e+01   6.642762e-01   2.891453e+01   6.968457e+05  -2.595043e+05   4.498464e+05   1.549323e+01   4.160390e+01  -3.331386e-21   8.690790e+05   3.585398e-39   0.000000e+00   0.000000e+00
     2840000   2.839999e-05   1.989066e+01   6.435159e-01   2.895052e+01   6.968457e+05  -2.595043e+05   4.498464e+05   2.089333e+01   5.610475e+01   2.418295e-20   8.690790e+05   6.520460e-39   0.000000e+00   0.000000e+00
     2848000   2.847999e-05   1.994641e+01   6.227555e-01   2.898651e+01   6.968457e+05  -2.595043e+05   4.498464e+05   8.777627e+00   2.357052e+01  -3.920430e-21   8.690790e+05   1.151041e-39   0.000000e+00   0.000000e+00
     2856000   2.855999e-05   2.000215e+01   6.019952e-01   2.902250e+01   6.968457e+05  -2.595043e+05   4.498464e+05   9.553122e+00   2.565295e+01  -6.827235e-21   8.690790e+05   1.363258e-39   0.000000e+00   0.000000e+00
     2864000   2.863999e-05   2.005790e+01   5.812348e-01   2.905848e+01   6.968457e+05  -2.595043e+05   4.498464e+05   1.213984e+01   3.259906e+01  -7.953259e-23   8.690790e+05   2.201433e-39   0.000000e+00   0.000000e+00
     2872000   2.871999e-05   2.011365e+01   5.604745e-01   2.909447e+01   6.968457e+05  -2.595043e+05   4.498464e+05   1.340187e+01   3.598798e+01   1.216680e-20   8.690790e+05   2.683017e-39   0.000000e+00   0.000000e+00
     2880000   2.879999e-05   2.016940e+01   5.397142e-01   2.913046e+01   6.968457e+05  -2.595043e+05   4.498464e+05   1.109633e+01   2.979693e+01   1.176942e-20   8.690790e+05   1.839337e-39   0.000000e+00   0.000000e+00
     2888000   2.887999e-05   2.022514e+01   5.189538e-01   2.916645e+01   6.968457e+05  -2.595043e+05   4.498464e+05   9.703635e+00   2.605713e+01   3.516809e-21   8.690790e+05   1.406553e-39   0.000000e+00   0.000000e+00
     2896000   2.895999e-05   2.028089e+01   4.981935e-01   2.920243e+01   6.968457e+05  -2.595043e+05   4.498464e+05   1.157986e+01   3.109535e+01   4.925889e-21   8.690790e+05   2.003027e-39   0.000000e+00   0.000000e+00
     2904000   2.903999e-05   2.033664e+01   4.774331e-01   2.923842e+01   6.968457e+05  -2.595043e+05   4.498464e+05   1.021774e+01   2.743766e+01   2.944239e-21   8.690790e+05   1.559499e-39   0.000000e+00   0.000000e+00
     2912000   2.911999e-05   2.039239e+01   4.566728e-01   2.927441e+01   6.968457e+05  -2.595043e+05   4.498464e+05   1.171739e+01   3.146466e+01  -9.465964e-21   8.690790e+05   2.050875e-39   0.000000e+00   0.000000e+00
     2920000   2.919999e-05   2.044813e+01   4.359124e-01   2.931040e+01   6.968457e+05  -2.595043e+05   4.498464e+05   1.028198e+01   2.761015e+01   1.049939e-25   8.690790e+05   1.579328e-39   0.000000e+00   0.000000e+00
     2928000   2.927999e-05   2.050388e+01   4.151521e-01   2.934638e+01   6.968457e+05  -2.595043e+05   4.498464e+05   1.050116e+01   2.819871e+01  -7.465632e-21   8.690790e+05   1.647296e-39   0.000000e+00   0.000000e+00
     2936000   2.935999e-05   2.055963e+01   3.943917e-01   2.938237e+01   6.968457e+05  -2.595043e+05   4.498464e+05   1.525929e+01   4.097570e+01  -8.046684e-21   8.690790e+05   3.478033e-39   0.000000e+00   0.000000e+00
     2944000   2.943999e-05   2.061538e+01   3.736314e-01   2.941836e+01   6.968457e+05  -2.595043e+05   4.498464e+05   1.043483e+01   2.802060e+01   6.863898e-21   8.690790e+05   1.626485e-39   0.000000e+00   0.000000e+00
     2952000   2.951999e-05   2.067113e+01   3.528711e-01   2.945435e+01   6.968457e+05  -2.595043e+05   4.498464e+05   1.158157e+01   3.109995e+01   5.729940e-21   8.690790e+05   2.003621e-39   0.000000e+00   0.000000e+00
     2960000   2.959999e-05   2.072687e+01   3.321107e-01   2.949034e+01   6.968457e+05  -2.595043e+05   4.498464e+05   9.363800e+00   2.514457e+01   1.144463e-20   8.690790e+05   1.309795e-39   0.000000e+00   0.000000e+00
     2968000   2.967999e-05   2.078262e+01   3.113504e-01   2.952632e+01   6.968457e+05  -2.595043e+05   4.498464e+05   1.207822e+01   3.243359e+01  -1.943583e-21   8.690790e+05   2.179125e-39   0.000000e+00   0.000000e+00
     2976000   2.975999e-05   2.083837e+01   2.905900e-01   2.956231e+01   6.968456e+05  -2.595048e+05   4.498464e+05  -5.641621e+06  -1.514939e+07  -5.828163e-15   8.690790e+05   4.753494e-28   0.000000e+00   0.000000e+00
     2984000   2.983999e-05   2.089412e+01   2.698296e-01   2.959830e+01   6.968449e+05  -2.595064e+05   4.498464e+05  -1.002928e+07  -2.693132e+07  -8.285546e-15   8.690790e+05   1.502366e-27   0.000000e+00   0.000000e+00
     2992000   2.991999e-05   2.094986e+01   2.490691e-01   2.963429e+01   6.968449e+05  -2.595065e+05   4.498464e+05  -2.055623e+06  -5.519901e+06   1.433589e-15   8.690790e+05   6.308682e-29   0.000000e+00   0.000000e+00
     3000000   2.999999e-05   2.100561e+01   2.283085e-01   2.967027e+01   6.968447e+05  -2.595072e+05   4.498464e+05   4.702643e+06   1.262783e+07  -7.115460e-01   8.690790e+05   3.302435e-28   0.000000e+00   0.000000e+00
     3008000   3.007999e-05   2.106136e+01   2.075480e-01   2.970626e+01   6.968452e+05  -2.595058e+05   4.498464e+05   1.539449e+06   4.133846e+06  -4.428226e-01   8.690790e+05   3.542636e-29   0.000000e+00   0.000000e+00
     3016000   3.015999e-05   2.111711e+01   1.867876e-01   2.974225e+01   6.968458e+05  -2.595038e+05   4.498466e+05  -8.993783e+06  -2.415101e+07   2.699952e-01   8.690790e+05   1.207846e-27   0.000000e+00   0.000000e+00
     3024000   3.023999e-05   2.117285e+01   1.660272e-01   2.977824e+01   6.968446e+05  -2.595072e+05   4.498466e+05  -2.274180e+07  -6.106765e+07   3.949441e-01   8.690790e+05   7.724408e-27   0.000000e+00   0.000000e+00
     3032000   3.031999e-05   2.122860e+01   1.452665e-01   2.981423e+01   6.968441e+05  -2.595081e+05   4.498469e+05   8.546850e+06   2.658590e+07   2.097232e+06   8.690790e+05   1.427383e-27   0.000000e+00   0.000000e+00
     3040000   3.039999e-05   2.128435e+01   1.245059e-01   2.985021e+01   6.968444e+05  -2.595077e+05   4.498465e+05   8.514512e+04  -1.779031e+07  -1.039478e+07   8.690790e+05   7.719740e-28   0.000000e+00   0.000000e+00
     3048000   3.047999e-05   2.134010e+01   1.037453e-01   2.988620e+01   6.968447e+05  -2.595071e+05   4.498465e+05   5.310070e+06   2.648336e+07   7.052020e+06   8.690790e+05   1.417530e-27   0.000000e+00   0.000000e+00
     3056000   3.055999e-05   2.139584e+01   8.298480e-02   2.992219e+01   6.968475e+05  -2.595050e+05   4.498434e+05   2.517456e+07   2.010733e+07  -2.739814e+07   8.690790e+05   3.253049e-27   0.000000e+00   0.000000e+00
     3064000   3.063999e-05   2.145159e+01   6.222451e-02   2.995818e+01   6.968498e+05  -2.595018e+05   4.498416e+05   4.050491e+07   5.521752e+07  -3.089263e+07   8.690790e+05   1.026664e-26   0.000000e+00   0.000000e+00
     3072000   3.071999e-05   2.150734e+01   4.146457e-02   2.999416e+01   6.968543e+05  -2.594964e+05   4.498376e+05   9.906449e+07   6.456462e+07  -1.162180e+08   8.690790e+05   5.000614e-26   0.000000e+00   0.000000e+00
     3080000   3.079999e-05   2.156309e+01   2.070517e-02   3.003015e+01   6.968603e+05  -2.594877e+05   4.498334e+05   5.997036e+07   1.328332e+08  -1.627796e+07   8.690790e+05   3.912487e-26   0.000000e+00   0.000000e+00
