     timestep     time              x             y              z              vx             vy             vz             ax             ay             az         v_magnitude      ELoss        Electronic      Nuclear
           0   0.000000e+00   1.000000e-01   1.663329e+01   1.813546e+01   7.635870e+05   1.032657e+06   1.308025e+06   0.000000e+00   0.000000e+00   0.000000e+00   1.833133e+06   0.000000e+00   0.000000e+00   0.000000e+00
        8000   7.999000e-08   1.610870e-01   1.671590e+01   1.824011e+01   7.635870e+05   1.032657e+06   1.308025e+06   0.000000e+00   0.000000e+00   0.000000e+00   1.833133e+06   0.000000e+00   0.000000e+00   0.000000e+00
       16000   1.599900e-07   2.221739e-01   1.679852e+01   1.834475e+01   7.635870e+05   1.032657e+06   1.308025e+06   0.000000e+00   0.000000e+00   0.000000e+00   1.833133e+06   0.000000e+00   0.000000e+00   0.000000e+00
       24000   2.399900e-07   2.832609e-01   1.688113e+01   1.844939e+01   7.635870e+05   1.032657e+06   1.308025e+06   0.000000e+00   0.000000e+00   0.000000e+00   1.833133e+06   0.000000e+00   0.000000e+00   0.000000e+00
       32000   3.199900e-07   3.443479e-01   1.696374e+01   1.855403e+01   7.635870e+05   1.032657e+06   1.308025e+06   0.000000e+00   0.000000e+00   0.000000e+00   1.833133e+06   0.000000e+00   0.000000e+00   0.000000e+00
       40000   3.999900e-07   4.054348e-01   1.704635e+01   1.865867e+01   7.635870e+05   1.032657e+06   1.308025e+06   0.000000e+00   0.000000e+00   0.000000e+00   1.833133e+06   0.000000e+00   0.000000e+00   0.000000e+00
       48000   4.799900e-07   4.665218e-01   1.712897e+01   1.876332e+01   7.635870e+05   1.032657e+06   1.308025e+06   0.000000e+00   0.000000e+00   0.000000e+00   1.833133e+06   0.000000e+00   0.000000e+00   0.000000e+00
       56000   5.599900e-07   5.276087e-01   1.721158e+01   1.886796e+01   7.635870e+05   1.032657e+06   1.308025e+06   0.000000e+00   0.000000e+00   0.000000e+00   1.833133e+06   0.000000e+00   0.000000e+00   0.000000e+00
       64000   6.399900e-07   5.886957e-01   1.729419e+01   1.897260e+01   7.635870e+05   1.032657e+06   1.308025e+06   0.000000e+00   0.000000e+00   0.000000e+00   1.833133e+06   0.000000e+00   0.000000e+00   0.000000e+00
       72000   7.199900e-07   6.497827e-01   1.737680e+01   1.907724e+01   7.635870e+05   1.032657e+06   1.308025e+06   0.000000e+00   0.000000e+00   0.000000e+00   1.833133e+06   0.000000e+00   0.000000e+00   0.000000e+00
       80000   7.999900e-07   7.108696e-01   1.745942e+01   1.918188e+01   7.635870e+05   1.032657e+06   1.308025e+06   0.000000e+00   0.000000e+00   0.000000e+00   1.833133e+06   0.000000e+00   0.000000e+00   0.000000e+00
       88000   8.799900e-07   7.719566e-01   1.754203e+01   1.928653e+01   7.635870e+05   1.032657e+06   1.308025e+06   0.000000e+00   0.000000e+00   0.000000e+00   1.833133e+06   0.000000e+00   0.000000e+00   0.000000e+00
       96000   9.599900e-07   8.330436e-01   1.762464e+01   1.939117e+01   7.635870e+05   1.032657e+06   1.308025e+06   0.000000e+00   0.000000e+00   0.000000e+00   1.833133e+06   0.000000e+00   0.000000e+00   0.000000e+00
      104000   1.039990e-06   8.941305e-01   1.770725e+01   1.949581e+01   7.635870e+05   1.032657e+06   1.308025e+06   0.000000e+00   0.000000e+00   0.000000e+00   1.833133e+06   0.000000e+00   0.000000e+00   0.000000e+00
      112000   1.119990e-06   9.552175e-01   1.778987e+01   1.960045e+01   7.635870e+05   1.032657e+06   1.308025e+06  -1.353344e+07   4.542306e+07  -2.796008e+07   1.833133e+06   2.447587e-26   0.000000e+00   0.000000e+00
      120000   1.199990e-06   1.016304e+00   1.787248e+01   1.970509e+01   7.635852e+05   1.032663e+06   1.308021e+06  -3.245994e+07   1.101526e+08  -6.801463e+07   1.833133e+06   1.442281e-25   0.000000e+00   0.000000e+00
      128000   1.279990e-06   1.077391e+00   1.795509e+01   1.980974e+01   7.635799e+05   1.032681e+06   1.308010e+06  -8.339304e+07   2.860267e+08  -1.771371e+08   1.833133e+06   9.725374e-25   0.000000e+00   0.000000e+00
      136000   1.359990e-06   1.138477e+00   1.803771e+01   1.991438e+01   7.635751e+05   1.032698e+06   1.308000e+06  -1.950345e+07   6.752256e+07  -4.192512e+07   1.833133e+06   5.428869e-26   0.000000e+00   0.000000e+00
      144000   1.439990e-06   1.199563e+00   1.812032e+01   2.001902e+01   7.635762e+05   1.032694e+06   1.308002e+06  -1.041756e+01  -1.917586e+01   2.122121e+01   1.833133e+06   7.496050e-39   0.000000e+00   0.000000e+00
      152000   1.519990e-06   1.260649e+00   1.820294e+01   2.012366e+01   7.635762e+05   1.032694e+06   1.308002e+06  -3.276627e+01   2.427372e+01  -3.652749e-02   1.833133e+06   1.345893e-38   0.000000e+00   0.000000e+00
      160000   1.599990e-06   1.321735e+00   1.828555e+01   2.022830e+01   7.635762e+05   1.032694e+06   1.308002e+06  -2.617834e+01   1.935633e+01   5.561829e-20   1.833133e+06   8.583414e-39   0.000000e+00   0.000000e+00
      168000   1.679990e-06   1.382822e+00   1.836817e+01   2.033294e+01   7.635762e+05   1.032694e+06   1.308002e+06  -1.868519e+01   1.381587e+01  -2.822945e-20   1.833133e+06   4.371109e-39   0.000000e+00   0.000000e+00
      176000   1.759990e-06   1.443908e+00   1.845079e+01   2.043758e+01   7.635762e+05   1.032694e+06   1.308002e+06  -3.844538e+01   2.842660e+01  -1.976494e-20   1.833133e+06   1.850492e-38   0.000000e+00   0.000000e+00
      184000   1.839990e-06   1.504994e+00   1.853340e+01   2.054222e+01   7.635762e+05   1.032694e+06   1.308002e+06  -3.279834e+01   2.425117e+01  -1.986308e-21   1.833133e+06   1.347109e-38   0.000000e+00   0.000000e+00
      192000   1.919990e-06   1.566080e+00   1.861602e+01   2.064686e+01   7.635762e+05   1.032694e+06   1.308002e+06  -3.229639e+01   2.388003e+01  -4.205958e-20   1.833133e+06   1.306074e-38   0.000000e+00   0.000000e+00
      200000   1.999990e-06   1.627166e+00   1.869863e+01   2.075150e+01   7.635762e+05   1.032694e+06   1.308002e+06  -3.014991e+01   2.229291e+01  -8.008318e-20   1.833133e+06   1.138147e-38   0.000000e+00   0.000000e+00
      208000   2.079990e-06   1.688252e+00   1.878125e+01   2.085614e+01   7.635762e+05   1.032694e+06   1.308002e+06  -4.669399e+01   3.452565e+01  -2.324686e-20   1.833133e+06   2.729643e-38   0.000000e+00   0.000000e+00
      216000   2.159990e-06   1.749338e+00   1.886386e+01   2.096078e+01   7.635762e+05   1.032694e+06   1.308002e+06  -4.049347e+01   2.994097e+01  -1.157801e-20   1.833133e+06   2.052964e-38   0.000000e+00   0.000000e+00
      224000   2.239990e-06   1.810424e+00   1.894648e+01   2.106542e+01   7.635762e+05   1.032694e+06   1.308002e+06  -4.392858e+01   3.248089e+01  -2.990565e-20   1.833133e+06   2.415822e-38   0.000000e+00   0.000000e+00
      232000   2.319990e-06   1.871510e+00   1.902909e+01   2.117006e+01   7.635762e+05   1.032694e+06   1.308002e+06  -3.168481e+01   2.342782e+01   1.212646e-20   1.833133e+06   1.257230e-38   0.000000e+00   0.000000e+00
      240000   2.399990e-06   1.932596e+00   1.911171e+01   2.127470e+01   7.635762e+05   1.032694e+06   1.308002e+06  -5.380162e+01   3.978104e+01   1.140753e-20   1.833133e+06   3.623221e-38   0.000000e+00   0.000000e+00
      248000   2.479990e-06   1.993683e+00   1.919433e+01   2.137934e+01   7.635762e+05   1.032694e+06   1.308002e+06  -2.158651e+01   1.596111e+01   9.309147e-20   1.833133e+06   5.836326e-39   0.000000e+00   0.000000e+00
      256000   2.559990e-06   2.054769e+00   1.927694e+01   2.148398e+01   7.635762e+05   1.032694e+06   1.308002e+06  -3.600711e+01   2.662374e+01  -2.894894e-20   1.833133e+06   1.623198e-38   0.000000e+00   0.000000e+00
      264000   2.639990e-06   2.115855e+00   1.935956e+01   2.158862e+01   7.635762e+05   1.032694e+06   1.308002e+06  -4.336101e+01   3.206123e+01   3.421024e-20   1.833133e+06   2.354538e-38   0.000000e+00   0.000000e+00
      272000   2.719990e-06   2.176941e+00   1.944217e+01   2.169326e+01   7.635762e+05   1.032694e+06   1.308002e+06  -5.209925e+01   3.852230e+01   7.425267e-20   1.833133e+06   3.398297e-38   0.000000e+00   0.000000e+00
      280000   2.799990e-06   2.238027e+00   1.952479e+01   2.179790e+01   7.635762e+05   1.032694e+06   1.308002e+06  -4.139446e+01   3.060716e+01  -1.836241e-20   1.833133e+06   2.145459e-38   0.000000e+00   0.000000e+00
      288000   2.879990e-06   2.299113e+00   1.960740e+01   2.190254e+01   7.635762e+05   1.032694e+06   1.308002e+06  -3.431621e+01   2.537348e+01   8.760417e-20   1.833133e+06   1.474490e-38   0.000000e+00   0.000000e+00
      296000   2.959990e-06   2.360199e+00   1.969002e+01   2.200718e+01   7.635762e+05   1.032694e+06   1.308002e+06  -5.549147e+01   4.103052e+01  -9.220796e-20   1.833133e+06   3.855799e-38   0.000000e+00   0.000000e+00
      304000   3.039990e-06   2.421285e+00   1.977263e+01   2.211182e+01   7.635762e+05   1.032694e+06   1.308002e+06  -5.538331e+01   4.095055e+01   5.584314e-21   1.833133e+06   3.839329e-38   0.000000e+00   0.000000e+00
      312000   3.119990e-06   2.482371e+00   1.985525e+01   2.221646e+01   7.635762e+05   1.032694e+06   1.308002e+06  -3.693382e+01   2.730895e+01  -6.125476e-20   1.833133e+06   1.708250e-38   0.000000e+00   0.000000e+00
      320000   3.199990e-06   2.543457e+00   1.993787e+01   2.232110e+01   7.635762e+05   1.032694e+06   1.308002e+06  -5.755182e+01   4.255395e+01   6.395772e-21   1.833133e+06   4.146733e-38   0.000000e+00   0.000000e+00
      328000   3.279990e-06   2.604544e+00   2.002048e+01   2.242574e+01   7.635762e+05   1.032694e+06   1.308002e+06  -5.515160e+01   4.077922e+01  -1.283922e-20   1.833133e+06   3.809300e-38   0.000000e+00   0.000000e+00
      336000   3.359990e-06   2.665630e+00   2.010310e+01   2.253038e+01   7.635762e+05   1.032694e+06   1.308002e+06  -3.090886e+01   2.285408e+01   4.103530e-20   1.833133e+06   1.196840e-38   0.000000e+00   0.000000e+00
      344000   3.439990e-06   2.726716e+00   2.018571e+01   2.263502e+01   7.635762e+05   1.032694e+06   1.308002e+06  -8.437539e+01   6.238736e+01   2.378852e-21   1.833133e+06   8.912275e-38   0.000000e+00   0.000000e+00
      352000   3.519990e-06   2.787802e+00   2.026833e+01   2.273966e+01   7.635762e+05   1.032694e+06   1.308002e+06  -6.330535e+01   4.680812e+01  -8.136461e-21   1.833133e+06   5.017923e-38   0.000000e+00   0.000000e+00
      360000   3.599990e-06   2.848888e+00   2.035094e+01   2.284430e+01   7.635762e+05   1.032694e+06   1.308002e+06  -7.061990e+01   5.221652e+01   3.808752e-20   1.833133e+06   6.243301e-38   0.000000e+00   0.000000e+00
      368000   3.679990e-06   2.909974e+00   2.043356e+01   2.294894e+01   7.635762e+05   1.032694e+06   1.308002e+06  -5.837039e+01   4.315920e+01   6.086218e-21   1.833133e+06   4.265183e-38   0.000000e+00   0.000000e+00
      376000   3.759990e-06   2.971060e+00   2.051617e+01   2.305358e+01   7.635762e+05   1.032694e+06   1.308002e+06  -5.540686e+01   4.096796e+01  -6.898243e-21   1.833133e+06   3.843540e-38   0.000000e+00   0.000000e+00
      384000   3.839990e-06   3.032146e+00   2.059879e+01   2.315822e+01   7.635762e+05   1.032694e+06   1.308002e+06  -7.886721e+01   5.831460e+01  -1.854859e-20   1.833133e+06   7.787189e-38   0.000000e+00   0.000000e+00
      392000   3.919990e-06   3.093232e+00   2.068140e+01   2.326286e+01   7.635762e+05   1.032694e+06   1.308002e+06  -6.920636e+01   5.117134e+01   5.714867e-20   1.833133e+06   5.996312e-38   0.000000e+00   0.000000e+00
      400000   3.999990e-06   3.154318e+00   2.076402e+01   2.336750e+01   7.635762e+05   1.032694e+06   1.308002e+06  -8.772953e+01   6.486742e+01  -2.978014e-19   1.833133e+06   9.635301e-38   0.000000e+00   0.000000e+00
      408000   4.079990e-06   3.215404e+00   2.084664e+01   2.347214e+01   7.635762e+05   1.032694e+06   1.308002e+06  -5.471604e+01   4.045716e+01  -1.409308e-19   1.833133e+06   3.748151e-38   0.000000e+00   0.000000e+00
      416000   4.159990e-06   3.276491e+00   2.092925e+01   2.357678e+01   7.635762e+05   1.032694e+06   1.308002e+06  -6.249565e+01   4.620943e+01  -1.270311e-19   1.833133e+06   4.890975e-38   0.000000e+00   0.000000e+00
      424000   4.239990e-06   3.337577e+00   2.101187e+01   2.368142e+01   7.635762e+05   1.032694e+06   1.308002e+06  -7.503680e+01   5.548238e+01  -9.668865e-20   1.833133e+06   7.048697e-38   0.000000e+00   0.000000e+00
      432000   4.319990e-06   3.398663e+00   2.109448e+01   2.378606e+01   7.635762e+05   1.032694e+06   1.308002e+06  -9.187369e+01   6.793162e+01  -2.409148e-21   1.833133e+06   1.056735e-37   0.000000e+00   0.000000e+00
      440000   4.399990e-06   3.459749e+00   2.117710e+01   2.389070e+01   7.635762e+05   1.032694e+06   1.308002e+06  -7.760376e+01   5.738040e+01   1.200106e-19   1.833133e+06   7.539711e-38   0.000000e+00   0.000000e+00
      448000   4.479990e-06   3.520835e+00   2.125971e+01   2.399534e+01   7.635762e+05   1.032694e+06   1.308002e+06  -8.199990e+01   6.063092e+01   1.731317e-19   1.833133e+06   8.418669e-38   0.000000e+00   0.000000e+00
      456000   4.559990e-06   3.581921e+00   2.134233e+01   2.409998e+01   7.635762e+05   1.032694e+06   1.308002e+06  -7.749432e+01   5.729948e+01  -1.298110e-19   1.833133e+06   7.519187e-38   0.000000e+00   0.000000e+00
      464000   4.639990e-06   3.643007e+00   2.142494e+01   2.420462e+01   7.635762e+05   1.032694e+06   1.308002e+06  -9.508494e+01   7.030603e+01  -2.204644e-19   1.833133e+06   1.131941e-37   0.000000e+00   0.000000e+00
      472000   4.719990e-06   3.704093e+00   2.150756e+01   2.430926e+01   7.635762e+05   1.032694e+06   1.308002e+06  -9.670190e+01   7.150161e+01  -2.865790e-19   1.833133e+06   1.170836e-37   0.000000e+00   0.000000e+00
      480000   4.799990e-06   3.765179e+00   2.159018e+01   2.441390e+01   7.635762e+05   1.032694e+06   1.308002e+06  -6.227502e+01   4.604630e+01   1.940698e-19   1.833133e+06   4.856264e-38   0.000000e+00   0.000000e+00
      488000   4.879990e-06   3.826265e+00   2.167279e+01   2.451854e+01   7.635762e+05   1.032694e+06   1.308002e+06  -1.056562e+02   7.812245e+01   1.911195e-19   1.833133e+06   1.397648e-37   0.000000e+00   0.000000e+00
      496000   4.959990e-06   3.887352e+00   2.175541e+01   2.462318e+01   7.635762e+05   1.032694e+06   1.308002e+06  -5.863116e+01   4.335201e+01  -4.916532e-20   1.833133e+06   4.305193e-38   0.000000e+00   0.000000e+00
      504000   5.039990e-06   3.948438e+00   2.183802e+01   2.472782e+01   7.635762e+05   1.032694e+06   1.308002e+06  -1.126184e+02   8.327031e+01  -4.199644e-19   1.833133e+06   1.587726e-37   0.000000e+00   0.000000e+00
      512000   5.119990e-06   4.009524e+00   2.192064e+01   2.483246e+01   7.635762e+05   1.032694e+06   1.308002e+06  -9.472585e+01   7.004051e+01  -1.313251e-19   1.833133e+06   1.123533e-37   0.000000e+00   0.000000e+00
      520000   5.199990e-06   4.070610e+00   2.200325e+01   2.493710e+01   7.635762e+05   1.032694e+06   1.308002e+06  -1.105095e+02   8.171101e+01   4.907670e-20   1.833133e+06   1.529055e-37   0.000000e+00   0.000000e+00
      528000   5.279990e-06   4.131696e+00   2.208587e+01   2.504174e+01   7.635762e+05   1.032694e+06   1.308002e+06  -9.471221e+01   7.003043e+01   2.416050e-19   1.833133e+06   1.123102e-37   0.000000e+00   0.000000e+00
      536000   5.359990e-06   4.192782e+00   2.216848e+01   2.514638e+01   7.635762e+05   1.032694e+06   1.308002e+06  -1.514269e+02   1.119654e+02   1.991668e-19   1.833133e+06   2.870462e-37   0.000000e+00   0.000000e+00
      544000   5.439990e-06   4.253868e+00   2.225110e+01   2.525103e+01   7.635762e+05   1.032694e+06   1.308002e+06  -9.867979e+01   7.296407e+01  -8.363689e-20   1.833133e+06   1.219235e-37   0.000000e+00   0.000000e+00
      552000   5.519990e-06   4.314954e+00   2.233371e+01   2.535567e+01   7.635762e+05   1.032694e+06   1.308002e+06  -1.043355e+02   7.714594e+01  -8.343950e-20   1.833133e+06   1.362776e-37   0.000000e+00   0.000000e+00
      560000   5.599990e-06   4.376040e+00   2.241633e+01   2.546031e+01   7.635762e+05   1.032694e+06   1.308002e+06  -9.837318e+01   7.273736e+01  -2.272937e-19   1.833133e+06   1.211717e-37   0.000000e+00   0.000000e+00
      568000   5.679990e-06   4.437126e+00   2.249895e+01   2.556495e+01   7.635762e+05   1.032694e+06   1.308002e+06  -7.685199e+01   5.682454e+01   3.305053e-20   1.833133e+06   7.395330e-38   0.000000e+00   0.000000e+00
      576000   5.759990e-06   4.498213e+00   2.258156e+01   2.566959e+01   7.635762e+05   1.032694e+06   1.308002e+06  -1.276992e+02   9.442112e+01   3.128473e-19   1.833133e+06   2.041630e-37   0.000000e+00   0.000000e+00
      584000   5.839990e-06   4.559299e+00   2.266418e+01   2.577423e+01   7.635762e+05   1.032694e+06   1.308002e+06  -1.346895e+02   9.958976e+01   1.979576e-20   1.833133e+06   2.271114e-37   0.000000e+00   0.000000e+00
      592000   5.919990e-06   4.620385e+00   2.274679e+01   2.587887e+01   7.635762e+05   1.032694e+06   1.308002e+06  -1.324873e+02   9.796141e+01  -2.330071e-20   1.833133e+06   2.197498e-37   0.000000e+00   0.000000e+00
      600000   5.999990e-06   4.681471e+00   2.282941e+01   2.598351e+01   7.635762e+05   1.032694e+06   1.308002e+06  -1.477397e+02   1.092391e+02  -6.246944e-20   1.833133e+06   2.732726e-37   0.000000e+00   0.000000e+00
      608000   6.079990e-06   4.742557e+00   2.291202e+01   2.608815e+01   7.635762e+05   1.032694e+06   1.308002e+06  -1.033442e+02   7.641293e+01   2.332088e-19   1.833133e+06   1.337166e-37   0.000000e+00   0.000000e+00
      616000   6.159990e-06   4.803643e+00   2.299464e+01   2.619279e+01   7.635762e+05   1.032694e+06   1.308002e+06  -1.050201e+02   7.765210e+01   7.807611e-20   1.833133e+06   1.380983e-37   0.000000e+00   0.000000e+00
      624000   6.239990e-06   4.864729e+00   2.307725e+01   2.629743e+01   7.635762e+05   1.032694e+06   1.308002e+06  -1.367796e+02   1.011352e+02  -6.249748e-20   1.833133e+06   2.342288e-37   0.000000e+00   0.000000e+00
      632000   6.319990e-06   4.925815e+00   2.315987e+01   2.640207e+01   7.635762e+05   1.032694e+06   1.308002e+06  -1.294973e+02   9.575062e+01  -3.619420e-19   1.833133e+06   2.099522e-37   0.000000e+00   0.000000e+00
      640000   6.399990e-06   4.986901e+00   2.324249e+01   2.650671e+01   7.635762e+05   1.032694e+06   1.308002e+06  -1.150790e+02   8.508968e+01  -1.477247e-19   1.833133e+06   1.658020e-37   0.000000e+00   0.000000e+00
      648000   6.479990e-06   5.047987e+00   2.332510e+01   2.661135e+01   7.635762e+05   1.032694e+06   1.308002e+06  -1.433927e+02   1.060249e+02   7.847202e-20   1.833133e+06   2.574545e-37   0.000000e+00   0.000000e+00
      656000   6.559990e-06   5.109074e+00   2.340772e+01   2.671599e+01   7.635762e+05   1.032694e+06   1.308002e+06  -1.311277e+02   9.695609e+01   1.674005e-19   1.833133e+06   2.152748e-37   0.000000e+00   0.000000e+00
      664000   6.639990e-06   5.170160e+00   2.349033e+01   2.682063e+01   7.635762e+05   1.032694e+06   1.308002e+06  -2.023306e+02   1.496037e+02  -2.527041e-19   1.833133e+06   5.124835e-37   0.000000e+00   0.000000e+00
      672000   6.719990e-06   5.231246e+00   2.357295e+01   2.692527e+01   7.635762e+05   1.032694e+06   1.308002e+06  -1.288776e+02   9.529240e+01   1.332856e-19   1.833133e+06   2.079674e-37   0.000000e+00   0.000000e+00
      680000   6.799990e-06   5.292332e+00   2.365556e+01   2.702991e+01   7.635762e+05   1.032694e+06   1.308002e+06  -1.464187e+02   1.082624e+02   1.634268e-19   1.833133e+06   2.684219e-37   0.000000e+00   0.000000e+00
      688000   6.879990e-06   5.353418e+00   2.373818e+01   2.713455e+01   7.635762e+05   1.032694e+06   1.308002e+06  -1.426500e+02   1.054758e+02   2.534577e-19   1.833133e+06   2.547937e-37   0.000000e+00   0.000000e+00
      696000   6.959990e-06   5.414504e+00   2.382079e+01   2.723919e+01   7.635762e+05   1.032694e+06   1.308002e+06  -1.521146e+02   1.124739e+02   3.029147e-19   1.833133e+06   2.896979e-37   0.000000e+00   0.000000e+00
      704000   7.039990e-06   5.475590e+00   2.390341e+01   2.734383e+01   7.635762e+05   1.032694e+06   1.308002e+06  -1.774556e+02   1.312111e+02   4.228602e-19   1.833133e+06   3.942571e-37   0.000000e+00   0.000000e+00
      712000   7.119990e-06   5.536676e+00   2.398603e+01   2.744847e+01   7.635762e+05   1.032694e+06   1.308002e+06  -1.640745e+02   1.213171e+02   1.299096e-19   1.833133e+06   3.370520e-37   0.000000e+00   0.000000e+00
      720000   7.199990e-06   5.597762e+00   2.406864e+01   2.755311e+01   7.635762e+05   1.032694e+06   1.308002e+06  -1.268107e+02   9.376411e+01   5.667984e-20   1.833133e+06   2.013500e-37   0.000000e+00   0.000000e+00
      728000   7.279990e-06   5.658848e+00   2.415126e+01   2.765775e+01   7.635762e+05   1.032694e+06   1.308002e+06  -1.618662e+02   1.196842e+02  -7.159926e-19   1.833133e+06   3.280396e-37   0.000000e+00   0.000000e+00
      736000   7.359990e-06   5.719935e+00   2.423387e+01   2.776239e+01   7.635762e+05   1.032694e+06   1.308002e+06  -1.592385e+02   1.177413e+02   1.932875e-19   1.833133e+06   3.174797e-37   0.000000e+00   0.000000e+00
      744000   7.439990e-06   5.781021e+00   2.431649e+01   2.786703e+01   7.635762e+05   1.032694e+06   1.308002e+06  -1.386795e+02   1.025400e+02  -2.052178e-19   1.833133e+06   2.408223e-37   0.000000e+00   0.000000e+00
      752000   7.519990e-06   5.842107e+00   2.439910e+01   2.797167e+01   7.635762e+05   1.032694e+06   1.308002e+06  -1.764289e+02   1.304519e+02   2.166205e-20   1.833133e+06   3.897114e-37   0.000000e+00   0.000000e+00
      760000   7.599990e-06   5.903193e+00   2.448172e+01   2.807631e+01   7.635762e+05   1.032694e+06   1.308002e+06  -1.393789e+02   1.030571e+02   7.233456e-19   1.833133e+06   2.432678e-37   0.000000e+00   0.000000e+00
      768000   7.679990e-06   5.964279e+00   2.456433e+01   2.818095e+01   7.635762e+05   1.032694e+06   1.308002e+06  -1.615122e+02   1.194225e+02   2.618628e-19   1.833133e+06   3.266067e-37   0.000000e+00   0.000000e+00
      776000   7.759990e-06   6.025365e+00   2.464695e+01   2.828559e+01   7.635762e+05   1.032694e+06   1.308002e+06  -2.067029e+02   1.528366e+02  -4.053404e-21   1.833133e+06   5.349330e-37   0.000000e+00   0.000000e+00
      784000   7.839990e-06   6.086451e+00   2.472956e+01   2.839023e+01   7.635762e+05   1.032694e+06   1.308002e+06  -2.303264e+02   1.703038e+02  -3.531208e-19   1.833133e+06   6.641366e-37   0.000000e+00   0.000000e+00
      792000   7.919990e-06   6.147537e+00   2.481218e+01   2.849487e+01   7.635762e+05   1.032694e+06   1.308002e+06  -1.852334e+02   1.369620e+02  -5.740891e-20   1.833133e+06   4.295764e-37   0.000000e+00   0.000000e+00
      800000   7.999990e-06   6.208623e+00   2.489480e+01   2.859951e+01   7.635762e+05   1.032694e+06   1.308002e+06  -1.933979e+02   1.429988e+02   8.327459e-20   1.833133e+06   4.682807e-37   0.000000e+00   0.000000e+00
      808000   8.079990e-06   6.269709e+00   2.497741e+01   2.870415e+01   7.635762e+05   1.032694e+06   1.308002e+06  -1.923285e+02   1.422082e+02  -3.761790e-21   1.833133e+06   4.631383e-37   0.000000e+00   0.000000e+00
      816000   8.159990e-06   6.330795e+00   2.506003e+01   2.880879e+01   7.635762e+05   1.032694e+06   1.308002e+06  -1.870273e+02   1.382885e+02   4.933352e-20   1.833133e+06   4.379673e-37   0.000000e+00   0.000000e+00
      824000   8.239990e-06   6.391882e+00   2.514264e+01   2.891343e+01   7.635762e+05   1.032694e+06   1.308002e+06  -1.742834e+02   1.288656e+02   4.342083e-19   1.833133e+06   3.802816e-37   0.000000e+00   0.000000e+00
      832000   8.319990e-06   6.452968e+00   2.522526e+01   2.901807e+01   7.635762e+05   1.032694e+06   1.308002e+06  -2.039230e+02   1.507811e+02   9.990304e-20   1.833133e+06   5.206351e-37   0.000000e+00   0.000000e+00
      840000   8.399990e-06   6.514054e+00   2.530787e+01   2.912271e+01   7.635762e+05   1.032694e+06   1.308002e+06  -2.149667e+02   1.589469e+02   1.655577e-19   1.833133e+06   5.785722e-37   0.000000e+00   0.000000e+00
      848000   8.479990e-06   6.575140e+00   2.539049e+01   2.922735e+01   7.635762e+05   1.032694e+06   1.308002e+06  -2.449043e+02   1.810828e+02   9.231450e-19   1.833133e+06   7.508854e-37   0.000000e+00   0.000000e+00
      856000   8.559990e-06   6.636226e+00   2.547310e+01   2.933199e+01   7.635762e+05   1.032694e+06   1.308002e+06  -2.082332e+02   1.539681e+02   5.473303e-19   1.833133e+06   5.428942e-37   0.000000e+00   0.000000e+00
      864000   8.639990e-06   6.697312e+00   2.555572e+01   2.943663e+01   7.635762e+05   1.032694e+06   1.308002e+06  -2.108554e+02   1.559070e+02   1.449387e-19   1.833133e+06   5.566590e-37   0.000000e+00   0.000000e+00
      872000   8.719990e-06   6.758398e+00   2.563834e+01   2.954127e+01   7.635762e+05   1.032694e+06   1.308002e+06  -2.201903e+02   1.628092e+02   1.267374e-20   1.833133e+06   6.069934e-37   0.000000e+00   0.000000e+00
      880000   8.799990e-06   6.819484e+00   2.572095e+01   2.964591e+01   7.635762e+05   1.032694e+06   1.308002e+06  -2.053988e+02   1.518724e+02  -1.876954e-19   1.833133e+06   5.282438e-37   0.000000e+00   0.000000e+00
      888000   8.879990e-06   6.880570e+00   2.580357e+01   2.975055e+01   7.635762e+05   1.032694e+06   1.308002e+06  -2.148568e+02   1.618358e+02  -2.345050e+00   1.833133e+06   5.856840e-37   0.000000e+00   0.000000e+00
      896000   8.959990e-06   6.941656e+00   2.588618e+01   2.985519e+01   7.635762e+05   1.032694e+06   1.308002e+06  -1.724279e+02   9.486264e+01   2.576278e+01   1.833133e+06   3.189293e-37   0.000000e+00   0.000000e+00
      904000   9.039990e-06   7.002743e+00   2.596880e+01   2.995983e+01   7.635762e+05   1.032694e+06   1.308002e+06  -1.974008e+02   1.591398e+02  -1.040683e+01   1.833133e+06   5.212831e-37   0.000000e+00   0.000000e+00
      912000   9.119990e-06   7.063829e+00   2.605141e+01   3.006447e+01   7.635762e+05   1.032694e+06   1.308002e+06  -2.268603e+02   1.803887e+02  -9.985609e+00   1.833133e+06   6.807980e-37   0.000000e+00   0.000000e+00
      920000   9.199990e-06   7.124915e+00   2.613403e+01   3.016911e+01   7.635762e+05   1.032694e+06   1.308002e+06  -2.326447e+02   1.698985e+02   1.673407e+00   1.833133e+06   6.717823e-37   0.000000e+00   0.000000e+00
      928000   9.279990e-06   7.186001e+00   2.621664e+01   3.027375e+01   7.635762e+05   1.032694e+06   1.308002e+06  -2.457634e+02   1.817180e+02  -4.962045e-19   1.833133e+06   7.561633e-37   0.000000e+00   0.000000e+00
      936000   9.359990e-06   7.247087e+00   2.629926e+01   3.037839e+01   7.635762e+05   1.032694e+06   1.308002e+06  -2.600426e+02   1.922761e+02  -5.814172e-19   1.833133e+06   8.465828e-37   0.000000e+00   0.000000e+00
      944000   9.439990e-06   7.308173e+00   2.638187e+01   3.048303e+01   7.635762e+05   1.032694e+06   1.308002e+06  -2.253410e+02   1.666176e+02  -3.726744e-19   1.833133e+06   6.357473e-37   0.000000e+00   0.000000e+00
      952000   9.519990e-06   7.369259e+00   2.646449e+01   3.058767e+01   7.635762e+05   1.032694e+06   1.308002e+06  -2.049755e+02   1.515593e+02   4.176629e-19   1.833133e+06   5.260416e-37   0.000000e+00   0.000000e+00
      960000   9.599990e-06   7.430345e+00   2.654711e+01   3.069231e+01   7.635762e+05   1.032694e+06   1.308002e+06  -1.953059e+02   1.444096e+02  -8.187669e-19   1.833133e+06   4.776186e-37   0.000000e+00   0.000000e+00
      968000   9.679990e-06   7.491431e+00   2.662972e+01   3.079695e+01   7.635762e+05   1.032694e+06   1.308002e+06  -2.188935e+02   1.618504e+02   1.313430e-19   1.833133e+06   5.998901e-37   0.000000e+00   0.000000e+00
      976000   9.759990e-06   7.552517e+00   2.671234e+01   3.090159e+01   7.635762e+05   1.032694e+06   1.308002e+06  -2.451239e+02   1.812452e+02   3.021340e-19   1.833133e+06   7.523255e-37   0.000000e+00   0.000000e+00
      984000   9.839990e-06   7.613604e+00   2.679495e+01   3.100624e+01   7.635762e+05   1.032694e+06   1.308002e+06  -2.316138e+02   1.712558e+02   1.987025e-19   1.833133e+06   6.716380e-37   0.000000e+00   0.000000e+00
      992000   9.919990e-06   7.674690e+00   2.687757e+01   3.111088e+01   7.635762e+05   1.032694e+06   1.308002e+06  -2.754002e+02   2.036315e+02   1.945145e-19   1.833133e+06   9.495026e-37   0.000000e+00   0.000000e+00
     1000000   9.999990e-06   7.735776e+00   2.696018e+01   3.121552e+01   7.635762e+05   1.032694e+06   1.308002e+06  -2.176923e+02   1.609622e+02  -1.036783e-19   1.833133e+06   5.933682e-37   0.000000e+00   0.000000e+00
     1008000   1.007999e-05   7.796862e+00   2.704280e+01   3.132016e+01   7.635762e+05   1.032694e+06   1.308002e+06  -2.099377e+02   1.552284e+02  -2.825357e-19   1.833133e+06   5.518642e-37   0.000000e+00   0.000000e+00
     1016000   1.015999e-05   7.857948e+00   2.712541e+01   3.142480e+01   7.635762e+05   1.032694e+06   1.308002e+06  -2.382565e+02   1.761674e+02   2.045661e-19   1.833133e+06   7.107052e-37   0.000000e+00   0.000000e+00
     1024000   1.023999e-05   7.919034e+00   2.720803e+01   3.152944e+01   7.635762e+05   1.032694e+06   1.308002e+06  -2.107124e+02   1.558012e+02   1.233058e-19   1.833133e+06   5.558770e-37   0.000000e+00   0.000000e+00
     1032000   1.031999e-05   7.980120e+00   2.729065e+01   3.163408e+01   7.635762e+05   1.032694e+06   1.308002e+06  -2.386253e+02   1.764401e+02   6.513360e-19   1.833133e+06   7.129115e-37   0.000000e+00   0.000000e+00
     1040000   1.039999e-05   8.041206e+00   2.737326e+01   3.173872e+01   7.635762e+05   1.032694e+06   1.308002e+06  -2.517712e+02   1.861602e+02  -8.494083e-19   1.833133e+06   7.935874e-37   0.000000e+00   0.000000e+00
     1048000   1.047999e-05   8.102292e+00   2.745588e+01   3.184336e+01   7.635762e+05   1.032694e+06   1.308002e+06  -2.461850e+02   1.820298e+02   1.822198e-19   1.833133e+06   7.587108e-37   0.000000e+00   0.000000e+00
     1056000   1.055999e-05   8.163378e+00   2.753849e+01   3.194800e+01   7.635762e+05   1.032694e+06   1.308002e+06  -2.205130e+02   1.630478e+02  -5.975813e-19   1.833133e+06   6.088639e-37   0.000000e+00   0.000000e+00
     1064000   1.063999e-05   8.224465e+00   2.762111e+01   3.205264e+01   7.635762e+05   1.032694e+06   1.308002e+06  -2.139479e+02   1.581936e+02   5.521710e-19   1.833133e+06   5.731484e-37   0.000000e+00   0.000000e+00
     1072000   1.071999e-05   8.285551e+00   2.770372e+01   3.215728e+01   7.635762e+05   1.032694e+06   1.308002e+06  -2.231489e+02   1.649968e+02   5.622248e-19   1.833133e+06   6.234339e-37   0.000000e+00   0.000000e+00
     1080000   1.079999e-05   8.346637e+00   2.778634e+01   3.226192e+01   7.635762e+05   1.032694e+06   1.308002e+06  -2.200588e+02   1.627120e+02  -3.038254e-19   1.833133e+06   6.062845e-37   0.000000e+00   0.000000e+00
     1088000   1.087999e-05   8.407723e+00   2.786895e+01   3.236656e+01   7.635762e+05   1.032694e+06   1.308002e+06  -2.131117e+02   1.575753e+02  -2.764683e-20   1.833133e+06   5.685696e-37   0.000000e+00   0.000000e+00
     1096000   1.095999e-05   8.468809e+00   2.795157e+01   3.247120e+01   7.635762e+05   1.032694e+06   1.308002e+06  -1.900231e+02   1.405035e+02  -2.033234e-19   1.833133e+06   4.521289e-37   0.000000e+00   0.000000e+00
     1104000   1.103999e-05   8.529895e+00   2.803418e+01   3.257584e+01   7.635762e+05   1.032694e+06   1.308002e+06  -1.897324e+02   1.402886e+02  -4.804015e-19   1.833133e+06   4.507078e-37   0.000000e+00   0.000000e+00
     1112000   1.111999e-05   8.590981e+00   2.811680e+01   3.268048e+01   7.635762e+05   1.032694e+06   1.308002e+06  -2.074147e+02   1.533629e+02   9.673347e-20   1.833133e+06   5.386148e-37   0.000000e+00   0.000000e+00
     1120000   1.119999e-05   8.652067e+00   2.819942e+01   3.278512e+01   7.635762e+05   1.032694e+06   1.308002e+06  -1.500295e+02   1.109322e+02   5.583193e-20   1.833133e+06   2.818524e-37   0.000000e+00   0.000000e+00
     1128000   1.127999e-05   8.713153e+00   2.828203e+01   3.288976e+01   7.635762e+05   1.032694e+06   1.308002e+06  -2.194573e+02   1.622672e+02   5.676195e-19   1.833133e+06   6.029997e-37   0.000000e+00   0.000000e+00
     1136000   1.135999e-05   8.774239e+00   2.836465e+01   3.299440e+01   7.635762e+05   1.032694e+06   1.308002e+06  -2.255646e+02   1.667830e+02  -4.176764e-19   1.833133e+06   6.370116e-37   0.000000e+00   0.000000e+00
     1144000   1.143999e-05   8.835326e+00   2.844726e+01   3.309904e+01   7.635762e+05   1.032694e+06   1.308002e+06  -2.060133e+02   1.523267e+02   1.921592e-19   1.833133e+06   5.313377e-37   0.000000e+00   0.000000e+00
     1152000   1.151999e-05   8.896412e+00   2.852988e+01   3.320368e+01   7.635762e+05   1.032694e+06   1.308002e+06  -1.667527e+02   1.232974e+02   3.263105e-20   1.833133e+06   3.481744e-37   0.000000e+00   0.000000e+00
     1160000   1.159999e-05   8.957498e+00   2.861249e+01   3.330832e+01   7.635762e+05   1.032694e+06   1.308002e+06  -1.701166e+02   1.257846e+02  -9.746255e-20   1.833133e+06   3.623114e-37   0.000000e+00   0.000000e+00
     1168000   1.167999e-05   9.018584e+00   2.869511e+01   3.341296e+01   7.635762e+05   1.032694e+06   1.308002e+06  -1.518916e+02   1.123090e+02   5.657061e-19   1.833133e+06   2.888769e-37   0.000000e+00   0.000000e+00
     1176000   1.175999e-05   9.079670e+00   2.877772e+01   3.351760e+01   7.635762e+05   1.032694e+06   1.308002e+06  -2.144449e+02   1.585611e+02   1.616681e-19   1.833133e+06   5.757334e-37   0.000000e+00   0.000000e+00
     1184000   1.183999e-05   9.140756e+00   2.886034e+01   3.362224e+01   7.635762e+05   1.032694e+06   1.308002e+06  -2.046479e+02   1.513171e+02   5.955983e-19   1.833133e+06   5.243264e-37   0.000000e+00   0.000000e+00
     1192000   1.191999e-05   9.201842e+00   2.894296e+01   3.372688e+01   7.635762e+05   1.032694e+06   1.308002e+06  -1.834865e+02   1.356703e+02   3.068155e-19   1.833133e+06   4.214931e-37   0.000000e+00   0.000000e+00
     1200000   1.199999e-05   9.262928e+00   2.902557e+01   3.383152e+01   7.635762e+05   1.032694e+06   1.308002e+06  -1.518378e+02   1.122692e+02  -7.154522e-20   1.833133e+06   2.886752e-37   0.000000e+00   0.000000e+00
     1208000   1.207999e-05   9.324014e+00   2.910819e+01   3.393616e+01   7.635762e+05   1.032694e+06   1.308002e+06  -1.498823e+02   1.108233e+02  -4.969963e-19   1.833133e+06   2.812602e-37   0.000000e+00   0.000000e+00
     1216000   1.215999e-05   9.385100e+00   2.919080e+01   3.404080e+01   7.635762e+05   1.032694e+06   1.308002e+06  -1.308770e+02   9.677078e+01   2.387696e-19   1.833133e+06   2.144706e-37   0.000000e+00   0.000000e+00
     1224000   1.223999e-05   9.446186e+00   2.927342e+01   3.414544e+01   7.635762e+05   1.032694e+06   1.308002e+06  -1.094113e+02   8.089897e+01  -7.480674e-20   1.833133e+06   1.499234e-37   0.000000e+00   0.000000e+00
     1232000   1.231999e-05   9.507273e+00   2.935603e+01   3.425008e+01   7.635762e+05   1.032694e+06   1.308002e+06  -1.271431e+02   9.400994e+01  -2.021592e-19   1.833133e+06   2.024033e-37   0.000000e+00   0.000000e+00
     1240000   1.239999e-05   9.568359e+00   2.943865e+01   3.435472e+01   7.635762e+05   1.032694e+06   1.308002e+06  -1.053304e+02   7.788152e+01  -9.589345e-20   1.833133e+06   1.389337e-37   0.000000e+00   0.000000e+00
     1248000   1.247999e-05   9.629445e+00   2.952126e+01   3.445936e+01   7.635762e+05   1.032694e+06   1.308002e+06  -1.482616e+02   1.096250e+02   1.253045e-19   1.833133e+06   2.752309e-37   0.000000e+00   0.000000e+00
     1256000   1.255999e-05   9.690531e+00   2.960388e+01   3.456400e+01   7.635762e+05   1.032694e+06   1.308002e+06  -1.292855e+02   9.559400e+01  -3.568972e-19   1.833133e+06   2.093063e-37   0.000000e+00   0.000000e+00
     1264000   1.263999e-05   9.751617e+00   2.968650e+01   3.466864e+01   7.635762e+05   1.032694e+06   1.308002e+06  -9.815157e+01   7.257350e+01  -1.099872e-19   1.833133e+06   1.206305e-37   0.000000e+00   0.000000e+00
     1272000   1.271999e-05   9.812703e+00   2.976911e+01   3.477328e+01   7.635762e+05   1.032694e+06   1.308002e+06  -1.165724e+02   8.619391e+01   1.226934e-19   1.833133e+06   1.701564e-37   0.000000e+00   0.000000e+00
     1280000   1.279999e-05   9.873789e+00   2.985173e+01   3.487792e+01   7.635762e+05   1.032694e+06   1.308002e+06  -1.243657e+02   9.195628e+01  -1.943003e-19   1.833133e+06   1.936412e-37   0.000000e+00   0.000000e+00
     1288000   1.287999e-05   9.934875e+00   2.993434e+01   3.498256e+01   7.635762e+05   1.032694e+06   1.308002e+06  -9.531497e+01   7.047611e+01   1.619205e-19   1.833133e+06   1.137370e-37   0.000000e+00   0.000000e+00
     1296000   1.295999e-05   9.995961e+00   3.001696e+01   3.508720e+01   7.635762e+05   1.032694e+06   1.308002e+06  -7.477039e+01   5.528540e+01   3.260863e-20   1.833133e+06   6.999866e-38   0.000000e+00   0.000000e+00
     1304000   1.303999e-05   1.005705e+01   3.009957e+01   3.519184e+01   7.635762e+05   1.032694e+06   1.308002e+06  -1.386743e+02   1.025361e+02   2.066835e-20   1.833133e+06   2.407298e-37   0.000000e+00   0.000000e+00
     1312000   1.311999e-05   1.011813e+01   3.018219e+01   3.529648e+01   7.635762e+05   1.032694e+06   1.308002e+06  -8.522117e+01   6.301273e+01  -5.410361e-20   1.833133e+06   9.092965e-38   0.000000e+00   0.000000e+00
     1320000   1.319999e-05   1.017922e+01   3.026480e+01   3.540112e+01   7.635762e+05   1.032694e+06   1.308002e+06  -6.660687e+01   4.924927e+01   3.365282e-20   1.833133e+06   5.554994e-38   0.000000e+00   0.000000e+00
     1328000   1.327999e-05   1.024031e+01   3.034742e+01   3.550576e+01   7.635762e+05   1.032694e+06   1.308002e+06  -3.917770e+01   2.896808e+01  -2.728172e-20   1.833133e+06   1.922786e-38   0.000000e+00   0.000000e+00
     1336000   1.335999e-05   1.030139e+01   3.043003e+01   3.561040e+01   7.635762e+05   1.032694e+06   1.308002e+06  -4.108100e+01   3.037539e+01   7.257200e-20   1.833133e+06   2.112547e-38   0.000000e+00   0.000000e+00
     1344000   1.343999e-05   1.036248e+01   3.051265e+01   3.571504e+01   7.635762e+05   1.032694e+06   1.308002e+06  -2.662123e+01   1.968380e+01  -7.049092e-21   1.833133e+06   8.875887e-39   0.000000e+00   0.000000e+00
     1352000   1.351999e-05   1.042356e+01   3.059527e+01   3.581968e+01   7.635762e+05   1.032694e+06   1.308002e+06  -3.300336e+01   2.440276e+01  -6.472883e-20   1.833133e+06   1.363873e-38   0.000000e+00   0.000000e+00
     1360000   1.359999e-05   1.048465e+01   3.067788e+01   3.592432e+01   7.635762e+05   1.032694e+06   1.308002e+06   1.143013e+01  -8.451467e+00  -4.903521e-21   1.833133e+06   1.635086e-39   0.000000e+00   0.000000e+00
     1368000   1.367999e-05   1.054574e+01   3.076050e+01   3.602896e+01   7.635762e+05   1.032694e+06   1.308002e+06   1.568649e+01  -1.159863e+01   4.907825e-20   1.833133e+06   3.076244e-39   0.000000e+00   0.000000e+00
     1376000   1.375999e-05   1.060682e+01   3.084311e+01   3.613360e+01   7.635762e+05   1.032694e+06   1.308002e+06  -2.684010e+01   1.984563e+01  -4.214314e-20   1.833133e+06   9.023952e-39   0.000000e+00   0.000000e+00
     1384000   1.383999e-05   1.066791e+01   3.092573e+01   3.623824e+01   7.635762e+05   1.032694e+06   1.308002e+06  -8.076610e+00   5.971864e+00  -1.532575e-20   1.833133e+06   8.148993e-40   0.000000e+00   0.000000e+00
     1392000   1.391999e-05   1.072899e+01   3.100834e+01   3.634288e+01   7.635762e+05   1.032694e+06   1.308002e+06   2.664256e+01  -1.969957e+01   2.411832e-20   1.833133e+06   8.880463e-39   0.000000e+00   0.000000e+00
     1400000   1.399999e-05   1.079008e+01   3.109096e+01   3.644752e+01   7.635762e+05   1.032694e+06   1.308002e+06   3.425929e+01  -2.533140e+01  -6.407944e-20   1.833133e+06   1.469376e-38   0.000000e+00   0.000000e+00
     1408000   1.407999e-05   1.085117e+01   3.117357e+01   3.655216e+01   7.635762e+05   1.032694e+06   1.308002e+06  -1.036125e+01   7.661133e+00   8.040423e-21   1.833133e+06   1.341872e-39   0.000000e+00   0.000000e+00
     1416000   1.415999e-05   1.091225e+01   3.125619e+01   3.665681e+01   7.635762e+05   1.032694e+06   1.308002e+06   5.745488e+01  -4.248227e+01   1.727347e-19   1.833133e+06   4.132991e-38   0.000000e+00   0.000000e+00
     1424000   1.423999e-05   1.097334e+01   3.133881e+01   3.676145e+01   7.635762e+05   1.032694e+06   1.308002e+06   1.007675e+02  -7.450770e+01  -2.543449e-19   1.833133e+06   1.270988e-37   0.000000e+00   0.000000e+00
     1432000   1.431999e-05   1.103443e+01   3.142142e+01   3.686609e+01   7.635762e+05   1.032694e+06   1.308002e+06   6.750595e+01  -4.991406e+01  -1.427937e-19   1.833133e+06   5.705671e-38   0.000000e+00   0.000000e+00
     1440000   1.439999e-05   1.109551e+01   3.150404e+01   3.697073e+01   7.635762e+05   1.032694e+06   1.308002e+06   1.166767e+02  -8.627099e+01  -2.613312e-19   1.833133e+06   1.704254e-37   0.000000e+00   0.000000e+00
     1448000   1.447999e-05   1.115660e+01   3.158665e+01   3.707537e+01   7.635762e+05   1.032694e+06   1.308002e+06   6.747781e+01  -4.989325e+01  -2.127069e-21   1.833133e+06   5.701822e-38   0.000000e+00   0.000000e+00
     1456000   1.455999e-05   1.121768e+01   3.166927e+01   3.718001e+01   7.635762e+05   1.032694e+06   1.308002e+06   1.042924e+02  -7.711406e+01   2.005150e-19   1.833133e+06   1.361897e-37   0.000000e+00   0.000000e+00
     1464000   1.463999e-05   1.127877e+01   3.175188e+01   3.728465e+01   7.635762e+05   1.032694e+06   1.308002e+06   1.880816e+02  -1.390680e+02   2.077087e-19   1.833133e+06   4.428103e-37   0.000000e+00   0.000000e+00
     1472000   1.471999e-05   1.133986e+01   3.183450e+01   3.738929e+01   7.635762e+05   1.032694e+06   1.308002e+06   1.084404e+02  -8.018110e+01  -2.249945e-19   1.833133e+06   1.472436e-37   0.000000e+00   0.000000e+00
     1480000   1.479999e-05   1.140094e+01   3.191711e+01   3.749393e+01   7.635762e+05   1.032694e+06   1.308002e+06   1.761007e+02  -1.302093e+02  -2.155668e-20   1.833133e+06   3.882441e-37   0.000000e+00   0.000000e+00
     1488000   1.487999e-05   1.146203e+01   3.199973e+01   3.759857e+01   7.635762e+05   1.032694e+06   1.308002e+06   1.347210e+02  -9.961304e+01  -1.447953e-20   1.833133e+06   2.272544e-37   0.000000e+00   0.000000e+00
     1496000   1.495999e-05   1.152311e+01   3.208234e+01   3.770321e+01   7.635762e+05   1.032694e+06   1.308002e+06   2.022968e+02  -1.495787e+02   1.361501e-19   1.833133e+06   5.123352e-37   0.000000e+00   0.000000e+00
     1504000   1.503999e-05   1.158420e+01   3.216496e+01   3.780785e+01   7.635762e+05   1.032694e+06   1.308002e+06   1.539513e+02  -1.138319e+02   1.685165e-19   1.833133e+06   2.967436e-37   0.000000e+00   0.000000e+00
     1512000   1.511999e-05   1.164529e+01   3.224758e+01   3.791249e+01   7.635762e+05   1.032694e+06   1.308002e+06   1.776959e+02  -1.313888e+02   1.298558e-19   1.833133e+06   3.953827e-37   0.000000e+00   0.000000e+00
     1520000   1.519999e-05   1.170637e+01   3.233019e+01   3.801713e+01   7.635762e+05   1.032694e+06   1.308002e+06   1.971389e+02  -1.457649e+02   1.756968e-19   1.833133e+06   4.865372e-37   0.000000e+00   0.000000e+00
     1528000   1.527999e-05   1.176746e+01   3.241281e+01   3.812177e+01   7.635762e+05   1.032694e+06   1.308002e+06   2.053535e+02  -1.518389e+02   2.258356e-19   1.833133e+06   5.280067e-37   0.000000e+00   0.000000e+00
     1536000   1.535999e-05   1.182854e+01   3.249542e+01   3.822641e+01   7.635762e+05   1.032694e+06   1.308002e+06   2.355952e+02  -1.741996e+02  -9.217610e-19   1.833133e+06   6.948981e-37   0.000000e+00   0.000000e+00
     1544000   1.543999e-05   1.188963e+01   3.257804e+01   3.833105e+01   7.635762e+05   1.032694e+06   1.308002e+06   1.904030e+02  -1.407844e+02   1.609548e-19   1.833133e+06   4.539418e-37   0.000000e+00   0.000000e+00
     1552000   1.551999e-05   1.195072e+01   3.266065e+01   3.843569e+01   7.635762e+05   1.032694e+06   1.308002e+06   2.779745e+02  -2.055350e+02   1.898824e-19   1.833133e+06   9.673122e-37   0.000000e+00   0.000000e+00
     1560000   1.559999e-05   1.201180e+01   3.274327e+01   3.854033e+01   7.635762e+05   1.032694e+06   1.308002e+06   2.699537e+02  -1.996044e+02   5.303361e-19   1.833133e+06   9.124642e-37   0.000000e+00   0.000000e+00
     1568000   1.567999e-05   1.207289e+01   3.282588e+01   3.864497e+01   7.635762e+05   1.032694e+06   1.308002e+06   2.731611e+02  -2.019759e+02  -9.830999e-19   1.833133e+06   9.342154e-37   0.000000e+00   0.000000e+00
     1576000   1.575999e-05   1.213397e+01   3.290850e+01   3.874961e+01   7.635762e+05   1.032694e+06   1.308002e+06   2.774432e+02  -2.051421e+02  -5.610180e-19   1.833133e+06   9.637191e-37   0.000000e+00   0.000000e+00
     1584000   1.583999e-05   1.219506e+01   3.299112e+01   3.885425e+01   7.635762e+05   1.032694e+06   1.308002e+06   2.484720e+02  -1.837208e+02  -3.934706e-19   1.833133e+06   7.730125e-37   0.000000e+00   0.000000e+00
     1592000   1.591999e-05   1.225615e+01   3.307373e+01   3.895889e+01   7.635762e+05   1.032694e+06   1.308002e+06   2.872044e+02  -2.123596e+02   5.166013e-19   1.833133e+06   1.032763e-36   0.000000e+00   0.000000e+00
     1600000   1.599999e-05   1.231723e+01   3.315635e+01   3.906353e+01   7.635762e+05   1.032694e+06   1.308002e+06   3.166764e+02  -2.341513e+02   8.899778e-19   1.833133e+06   1.255603e-36   0.000000e+00   0.000000e+00
     1608000   1.607999e-05   1.237832e+01   3.323896e+01   3.916817e+01   7.635762e+05   1.032694e+06   1.308002e+06   3.284802e+02  -2.428790e+02   1.054921e-18   1.833133e+06   1.350891e-36   0.000000e+00   0.000000e+00
     1616000   1.615999e-05   1.243941e+01   3.332158e+01   3.927281e+01   7.635762e+05   1.032694e+06   1.308002e+06   3.291945e+02  -2.434071e+02  -6.050129e-19   1.833133e+06   1.356747e-36   0.000000e+00   0.000000e+00
     1624000   1.623999e-05   1.250049e+01   3.340419e+01   3.937745e+01   7.635762e+05   1.032694e+06   1.308002e+06   3.371905e+02  -2.493194e+02   2.573204e-19   1.833133e+06   1.423556e-36   0.000000e+00   0.000000e+00
     1632000   1.631999e-05   1.256158e+01   3.348681e+01   3.948209e+01   7.635762e+05   1.032694e+06   1.308002e+06   3.427011e+02  -2.533940e+02   2.073699e-19   1.833133e+06   1.470404e-36   0.000000e+00   0.000000e+00
     1640000   1.639999e-05   1.262266e+01   3.356942e+01   3.958673e+01   7.635762e+05   1.032694e+06   1.308002e+06   3.764590e+02  -2.783546e+02  -5.265701e-19   1.833133e+06   1.774271e-36   0.000000e+00   0.000000e+00
     1648000   1.647999e-05   1.268375e+01   3.365204e+01   3.969137e+01   7.635762e+05   1.032694e+06   1.308002e+06   4.023928e+02  -2.975302e+02  -1.496444e-18   1.833133e+06   2.027144e-36   0.000000e+00   0.000000e+00
     1656000   1.655999e-05   1.274484e+01   3.373466e+01   3.979601e+01   7.635762e+05   1.032694e+06   1.308002e+06   3.644602e+02  -2.694827e+02  -6.468701e-19   1.833133e+06   1.663009e-36   0.000000e+00   0.000000e+00
     1664000   1.663999e-05   1.280592e+01   3.381727e+01   3.990065e+01   7.635762e+05   1.032694e+06   1.308002e+06   3.543585e+02  -2.620135e+02   3.752381e-19   1.833133e+06   1.572097e-36   0.000000e+00   0.000000e+00
     1672000   1.671999e-05   1.286701e+01   3.389989e+01   4.000529e+01   7.635762e+05   1.032694e+06   1.308002e+06   3.834567e+02  -2.835288e+02   3.503033e-19   1.833133e+06   1.840967e-36   0.000000e+00   0.000000e+00
     1680000   1.679999e-05   1.292809e+01   3.398250e+01   4.010993e+01   7.635762e+05   1.032694e+06   1.308002e+06   3.774506e+02  -2.790878e+02  -6.193332e-19   1.833133e+06   1.783632e-36   0.000000e+00   0.000000e+00
     1688000   1.687999e-05   1.298918e+01   3.406512e+01   4.021457e+01   7.635762e+05   1.032694e+06   1.308002e+06   4.332761e+02  -3.203654e+02  -1.653151e-18   1.833133e+06   2.350244e-36   0.000000e+00   0.000000e+00
     1696000   1.695999e-05   1.305027e+01   3.414773e+01   4.031921e+01   7.635762e+05   1.032694e+06   1.308002e+06   3.971050e+02  -2.936203e+02   4.803463e-20   1.833133e+06   1.974320e-36   0.000000e+00   0.000000e+00
     1704000   1.703999e-05   1.311135e+01   3.423035e+01   4.042385e+01   7.635762e+05   1.032694e+06   1.308002e+06   3.981924e+02  -2.944244e+02  -1.068891e-18   1.833133e+06   1.985140e-36   0.000000e+00   0.000000e+00
     1712000   1.711999e-05   1.317244e+01   3.431296e+01   4.052849e+01   7.635762e+05   1.032694e+06   1.308002e+06   4.214195e+02  -3.115986e+02   3.305366e-19   1.833133e+06   2.223480e-36   0.000000e+00   0.000000e+00
     1720000   1.719999e-05   1.323352e+01   3.439558e+01   4.063313e+01   7.635762e+05   1.032694e+06   1.308002e+06   3.995809e+02  -2.954510e+02  -9.861339e-20   1.833133e+06   1.999048e-36   0.000000e+00   0.000000e+00
     1728000   1.727999e-05   1.329461e+01   3.447819e+01   4.073777e+01   7.635762e+05   1.032694e+06   1.308002e+06   4.934046e+02  -3.648245e+02  -1.415776e-18   1.833133e+06   3.047836e-36   0.000000e+00   0.000000e+00
     1736000   1.735999e-05   1.335570e+01   3.456081e+01   4.084241e+01   7.635762e+05   1.032694e+06   1.308002e+06   4.243135e+02  -3.137384e+02  -9.556080e-19   1.833133e+06   2.254146e-36   0.000000e+00   0.000000e+00
     1744000   1.743999e-05   1.341678e+01   3.464343e+01   4.094705e+01   7.635762e+05   1.032694e+06   1.308002e+06   4.375607e+02  -3.235334e+02   2.269258e-18   1.833133e+06   2.397046e-36   0.000000e+00   0.000000e+00
     1752000   1.751999e-05   1.347787e+01   3.472604e+01   4.105169e+01   7.635762e+05   1.032694e+06   1.308002e+06   4.223262e+02  -3.122690e+02  -3.527351e-19   1.833133e+06   2.233160e-36   0.000000e+00   0.000000e+00
     1760000   1.759999e-05   1.353896e+01   3.480866e+01   4.115633e+01   7.635762e+05   1.032694e+06   1.308002e+06   4.508710e+02  -3.333750e+02  -1.315548e-18   1.833133e+06   2.545063e-36   0.000000e+00   0.000000e+00
     1768000   1.767999e-05   1.360004e+01   3.489127e+01   4.126097e+01   7.635762e+05   1.032694e+06   1.308002e+06   3.974148e+02  -2.938494e+02  -9.340599e-21   1.833133e+06   1.977444e-36   0.000000e+00   0.000000e+00
     1776000   1.775999e-05   1.366113e+01   3.497389e+01   4.136561e+01   7.635762e+05   1.032694e+06   1.308002e+06   4.441480e+02  -3.284041e+02   1.661764e-18   1.833133e+06   2.469758e-36   0.000000e+00   0.000000e+00
     1784000   1.783999e-05   1.372221e+01   3.505650e+01   4.147025e+01   7.635762e+05   1.032694e+06   1.308002e+06   4.215089e+02  -3.116647e+02  -8.224144e-19   1.833133e+06   2.224477e-36   0.000000e+00   0.000000e+00
     1792000   1.791999e-05   1.378330e+01   3.513912e+01   4.157489e+01   7.635762e+05   1.032694e+06   1.308002e+06   4.075539e+02  -3.013463e+02  -5.373641e-19   1.833133e+06   2.079629e-36   0.000000e+00   0.000000e+00
     1800000   1.799999e-05   1.384439e+01   3.522173e+01   4.167953e+01   7.635762e+05   1.032694e+06   1.308002e+06   4.446593e+02  -3.287821e+02   1.299114e-18   1.833133e+06   2.475512e-36   0.000000e+00   0.000000e+00
     1808000   1.807999e-05   1.390547e+01   3.530435e+01   4.178417e+01   7.635762e+05   1.032694e+06   1.308002e+06   4.543603e+02  -3.359550e+02  -1.039932e-18   1.833133e+06   2.584662e-36   0.000000e+00   0.000000e+00
     1816000   1.815999e-05   1.396656e+01   3.538697e+01   4.188881e+01   7.635762e+05   1.032694e+06   1.308002e+06   3.872753e+02  -2.863522e+02  -1.475341e-18   1.833133e+06   1.877888e-36   0.000000e+00   0.000000e+00
     1824000   1.823999e-05   1.402764e+01   3.546958e+01   4.199345e+01   7.635762e+05   1.032694e+06   1.308002e+06   4.694997e+02  -3.471492e+02  -8.652137e-19   1.833133e+06   2.759731e-36   0.000000e+00   0.000000e+00
     1832000   1.831999e-05   1.408873e+01   3.555220e+01   4.209809e+01   7.635762e+05   1.032694e+06   1.308002e+06   4.795685e+02  -3.545941e+02  -2.048021e-18   1.833133e+06   2.879381e-36   0.000000e+00   0.000000e+00
     1840000   1.839999e-05   1.414982e+01   3.563481e+01   4.220273e+01   7.635762e+05   1.032694e+06   1.308002e+06   4.330463e+02  -3.201955e+02   1.091345e-18   1.833133e+06   2.347982e-36   0.000000e+00   0.000000e+00
     1848000   1.847999e-05   1.421090e+01   3.571743e+01   4.230737e+01   7.635762e+05   1.032694e+06   1.308002e+06   4.215010e+02  -3.116588e+02   4.775198e-20   1.833133e+06   2.224260e-36   0.000000e+00   0.000000e+00
     1856000   1.855999e-05   1.427199e+01   3.580004e+01   4.241202e+01   7.635762e+05   1.032694e+06   1.308002e+06   4.128187e+02  -3.052391e+02   9.145895e-19   1.833133e+06   2.133645e-36   0.000000e+00   0.000000e+00
     1864000   1.863999e-05   1.433307e+01   3.588266e+01   4.251666e+01   7.635762e+05   1.032694e+06   1.308002e+06   4.103206e+02  -3.033920e+02   5.359776e-19   1.833133e+06   2.107964e-36   0.000000e+00   0.000000e+00
     1872000   1.871999e-05   1.439416e+01   3.596527e+01   4.262130e+01   7.635762e+05   1.032694e+06   1.308002e+06   4.135539e+02  -3.057827e+02   4.495356e-19   1.833133e+06   2.141250e-36   0.000000e+00   0.000000e+00
     1880000   1.879999e-05   1.445525e+01   3.604789e+01   4.272594e+01   7.635762e+05   1.032694e+06   1.308002e+06   4.434383e+02  -3.278793e+02   8.229300e-19   1.833133e+06   2.461853e-36   0.000000e+00   0.000000e+00
     1888000   1.887999e-05   1.451633e+01   3.613050e+01   4.283058e+01   7.635762e+05   1.032694e+06   1.308002e+06   3.951720e+02  -2.921911e+02   7.398337e-20   1.833133e+06   1.955125e-36   0.000000e+00   0.000000e+00
     1896000   1.895999e-05   1.457742e+01   3.621312e+01   4.293522e+01   7.635762e+05   1.032694e+06   1.308002e+06   3.848413e+02  -2.845526e+02   1.025038e-18   1.833133e+06   1.854356e-36   0.000000e+00   0.000000e+00
     1904000   1.903999e-05   1.463850e+01   3.629574e+01   4.303986e+01   7.635762e+05   1.032694e+06   1.308002e+06   4.006772e+02  -2.962617e+02   6.631282e-19   1.833133e+06   2.010006e-36   0.000000e+00   0.000000e+00
     1912000   1.911999e-05   1.469959e+01   3.637835e+01   4.314450e+01   7.635762e+05   1.032694e+06   1.308002e+06   3.699222e+02  -2.735214e+02  -8.391527e-19   1.833133e+06   1.713344e-36   0.000000e+00   0.000000e+00
     1920000   1.919999e-05   1.476068e+01   3.646097e+01   4.324914e+01   7.635762e+05   1.032694e+06   1.308002e+06   3.731978e+02  -2.759433e+02  -7.108177e-19   1.833133e+06   1.743836e-36   0.000000e+00   0.000000e+00
     1928000   1.927999e-05   1.482176e+01   3.654358e+01   4.335378e+01   7.635762e+05   1.032694e+06   1.308002e+06   4.163467e+02  -3.078477e+02  -3.688903e-19   1.833133e+06   2.170321e-36   0.000000e+00   0.000000e+00
     1936000   1.935999e-05   1.488285e+01   3.662620e+01   4.345842e+01   7.635762e+05   1.032694e+06   1.308002e+06   3.521098e+02  -2.603508e+02   3.233452e-19   1.833133e+06   1.552318e-36   0.000000e+00   0.000000e+00
     1944000   1.943999e-05   1.494394e+01   3.670881e+01   4.356306e+01   7.635762e+05   1.032694e+06   1.308002e+06   3.790764e+02  -2.802899e+02   3.897289e-19   1.833133e+06   1.799180e-36   0.000000e+00   0.000000e+00
     1952000   1.951999e-05   1.500502e+01   3.679143e+01   4.366770e+01   7.635762e+05   1.032694e+06   1.308002e+06   3.829178e+02  -2.831303e+02   7.371565e-19   1.833133e+06   1.835773e-36   0.000000e+00   0.000000e+00
     1960000   1.959999e-05   1.506611e+01   3.687404e+01   4.377234e+01   7.635762e+05   1.032694e+06   1.308002e+06   3.552025e+02  -2.626375e+02  -3.302587e-19   1.833133e+06   1.579707e-36   0.000000e+00   0.000000e+00
     1968000   1.967999e-05   1.512719e+01   3.695666e+01   4.387698e+01   7.635762e+05   1.032694e+06   1.308002e+06   3.399771e+02  -2.513799e+02   4.404187e-20   1.833133e+06   1.447196e-36   0.000000e+00   0.000000e+00
     1976000   1.975999e-05   1.518828e+01   3.703928e+01   4.398162e+01   7.635762e+05   1.032694e+06   1.308002e+06   3.937641e+02  -2.911501e+02  -8.872560e-20   1.833133e+06   1.941203e-36   0.000000e+00   0.000000e+00
     1984000   1.983999e-05   1.524937e+01   3.712189e+01   4.408626e+01   7.635762e+05   1.032694e+06   1.308002e+06   3.253456e+02  -2.405613e+02   8.341323e-19   1.833133e+06   1.325293e-36   0.000000e+00   0.000000e+00
     1992000   1.991999e-05   1.531045e+01   3.720451e+01   4.419090e+01   7.635762e+05   1.032694e+06   1.308002e+06   3.362758e+02  -2.486431e+02  -8.759448e-19   1.833133e+06   1.415785e-36   0.000000e+00   0.000000e+00
     2000000   1.999999e-05   1.537154e+01   3.728712e+01   4.429554e+01   7.635762e+05   1.032694e+06   1.308002e+06   3.405765e+02  -2.518231e+02   8.437815e-20   1.833133e+06   1.452242e-36   0.000000e+00   0.000000e+00
     2008000   2.007999e-05   1.543262e+01   3.736974e+01   4.440018e+01   7.635762e+05   1.032694e+06   1.308002e+06   3.296959e+02  -2.437779e+02   1.432114e-19   1.833133e+06   1.360946e-36   0.000000e+00   0.000000e+00
     2016000   2.015999e-05   1.549371e+01   3.745235e+01   4.450482e+01   7.635762e+05   1.032694e+06   1.308002e+06   3.665897e+02  -2.710573e+02  -1.380370e-18   1.833133e+06   1.682484e-36   0.000000e+00   0.000000e+00
     2024000   2.023999e-05   1.555480e+01   3.753497e+01   4.460946e+01   7.635762e+05   1.032694e+06   1.308002e+06   3.099771e+02  -2.291978e+02  -4.602446e-19   1.833133e+06   1.203037e-36   0.000000e+00   0.000000e+00
     2032000   2.031999e-05   1.561588e+01   3.761758e+01   4.471410e+01   7.635762e+05   1.032694e+06   1.308002e+06   2.936131e+02  -2.170982e+02   8.916332e-19   1.833133e+06   1.079339e-36   0.000000e+00   0.000000e+00
     2040000   2.039999e-05   1.567697e+01   3.770020e+01   4.481874e+01   7.635762e+05   1.032694e+06   1.308002e+06   2.793172e+02  -2.065278e+02  -5.179900e-19   1.833133e+06   9.768864e-37   0.000000e+00   0.000000e+00
     2048000   2.047999e-05   1.573805e+01   3.778282e+01   4.492338e+01   7.635762e+05   1.032694e+06   1.308002e+06   2.879052e+02  -2.128777e+02  -2.558266e-19   1.833133e+06   1.037796e-36   0.000000e+00   0.000000e+00
     2056000   2.055999e-05   1.579914e+01   3.786543e+01   4.502802e+01   7.635762e+05   1.032694e+06   1.308002e+06   2.550885e+02  -1.886130e+02  -1.689362e-18   1.833133e+06   8.147276e-37   0.000000e+00   0.000000e+00
     2064000   2.063999e-05   1.586023e+01   3.794805e+01   4.513266e+01   7.635762e+05   1.032694e+06   1.308002e+06   2.533171e+02  -1.873033e+02   7.621453e-19   1.833133e+06   8.034446e-37   0.000000e+00   0.000000e+00
     2072000   2.071999e-05   1.592131e+01   3.803066e+01   4.523730e+01   7.635762e+05   1.032694e+06   1.308002e+06   2.743644e+02  -2.028657e+02   8.967425e-20   1.833133e+06   9.426185e-37   0.000000e+00   0.000000e+00
     2080000   2.079999e-05   1.598240e+01   3.811328e+01   4.534194e+01   7.635762e+05   1.032694e+06   1.308002e+06   2.648935e+02  -1.958628e+02   3.802337e-19   1.833133e+06   8.785797e-37   0.000000e+00   0.000000e+00
     2088000   2.087999e-05   1.604349e+01   3.819589e+01   4.544658e+01   7.635762e+05   1.032694e+06   1.308002e+06   1.949501e+02  -1.441466e+02   5.953087e-20   1.833133e+06   4.759094e-37   0.000000e+00   0.000000e+00
     2096000   2.095999e-05   1.610457e+01   3.827851e+01   4.555122e+01   7.635762e+05   1.032694e+06   1.308002e+06   2.567945e+02  -1.898744e+02  -1.654883e-19   1.833133e+06   8.256356e-37   0.000000e+00   0.000000e+00
     2104000   2.103999e-05   1.616566e+01   3.836112e+01   4.565586e+01   7.635762e+05   1.032694e+06   1.308002e+06   2.416256e+02  -1.786585e+02  -1.852930e-19   1.833133e+06   7.309488e-37   0.000000e+00   0.000000e+00
     2112000   2.111999e-05   1.622674e+01   3.844374e+01   4.576050e+01   7.635762e+05   1.032694e+06   1.308002e+06   2.428406e+02  -1.795569e+02   3.972834e-20   1.833133e+06   7.382428e-37   0.000000e+00   0.000000e+00
     2120000   2.119999e-05   1.628783e+01   3.852635e+01   4.586514e+01   7.635762e+05   1.032694e+06   1.308002e+06   1.720730e+02  -1.272312e+02  -8.667750e-20   1.833133e+06   3.707836e-37   0.000000e+00   0.000000e+00
     2128000   2.127999e-05   1.634892e+01   3.860897e+01   4.596978e+01   7.635762e+05   1.032694e+06   1.308002e+06   2.124674e+02  -1.570989e+02   1.390078e-19   1.833133e+06   5.651801e-37   0.000000e+00   0.000000e+00
     2136000   2.135999e-05   1.641000e+01   3.869159e+01   4.607442e+01   7.635762e+05   1.032694e+06   1.308002e+06   1.535648e+02  -1.135462e+02  -4.650651e-19   1.833133e+06   2.952915e-37   0.000000e+00   0.000000e+00
     2144000   2.143999e-05   1.647109e+01   3.877420e+01   4.617906e+01   7.635762e+05   1.032694e+06   1.308002e+06   1.574556e+02  -1.164230e+02  -4.852220e-19   1.833133e+06   3.104302e-37   0.000000e+00   0.000000e+00
     2152000   2.151999e-05   1.653217e+01   3.885682e+01   4.628370e+01   7.635762e+05   1.032694e+06   1.308002e+06   2.201045e+02  -1.627458e+02   7.373186e-21   1.833133e+06   6.064955e-37   0.000000e+00   0.000000e+00
     2160000   2.159999e-05   1.659326e+01   3.893943e+01   4.638834e+01   7.635762e+05   1.032694e+06   1.308002e+06   1.643977e+02  -1.215560e+02   1.229177e-19   1.833133e+06   3.383846e-37   0.000000e+00   0.000000e+00
     2168000   2.167999e-05   1.665435e+01   3.902205e+01   4.649298e+01   7.635762e+05   1.032694e+06   1.308002e+06   1.611524e+02  -1.191565e+02   2.417193e-19   1.833133e+06   3.251644e-37   0.000000e+00   0.000000e+00
     2176000   2.175999e-05   1.671543e+01   3.910466e+01   4.659762e+01   7.635762e+05   1.032694e+06   1.308002e+06   1.539283e+02  -1.138149e+02  -9.452402e-20   1.833133e+06   2.966191e-37   0.000000e+00   0.000000e+00
     2184000   2.183999e-05   1.677652e+01   3.918728e+01   4.670226e+01   7.635762e+05   1.032694e+06   1.308002e+06   1.682552e+02  -1.244083e+02  -1.031018e-19   1.833133e+06   3.544076e-37   0.000000e+00   0.000000e+00
     2192000   2.191999e-05   1.683760e+01   3.926989e+01   4.680690e+01   7.635762e+05   1.032694e+06   1.308002e+06   1.200018e+02  -8.872959e+01   5.690416e-20   1.833133e+06   1.803205e-37   0.000000e+00   0.000000e+00
     2200000   2.199999e-05   1.689869e+01   3.935251e+01   4.691154e+01   7.635762e+05   1.032694e+06   1.308002e+06   1.285228e+02  -9.503006e+01  -4.012543e-19   1.833133e+06   2.068254e-37   0.000000e+00   0.000000e+00
     2208000   2.207999e-05   1.695978e+01   3.943513e+01   4.701618e+01   7.635762e+05   1.032694e+06   1.308002e+06   1.261304e+02  -9.326113e+01  -3.349412e-19   1.833133e+06   1.991573e-37   0.000000e+00   0.000000e+00
     2216000   2.215999e-05   1.702086e+01   3.951774e+01   4.712082e+01   7.635762e+05   1.032694e+06   1.308002e+06   1.373699e+02  -1.015716e+02   1.803479e-19   1.833133e+06   2.362729e-37   0.000000e+00   0.000000e+00
     2224000   2.223999e-05   1.708195e+01   3.960036e+01   4.722546e+01   7.635762e+05   1.032694e+06   1.308002e+06   1.201456e+02  -8.883593e+01   1.753536e-19   1.833133e+06   1.806984e-37   0.000000e+00   0.000000e+00
     2232000   2.231999e-05   1.714303e+01   3.968297e+01   4.733010e+01   7.635762e+05   1.032694e+06   1.308002e+06   6.759325e+01  -4.997861e+01  -5.186270e-20   1.833133e+06   5.721954e-38   0.000000e+00   0.000000e+00
     2240000   2.239999e-05   1.720412e+01   3.976559e+01   4.743474e+01   7.635762e+05   1.032694e+06   1.308002e+06   8.729495e+01  -6.454609e+01  -1.186289e-19   1.833133e+06   9.539760e-38   0.000000e+00   0.000000e+00
     2248000   2.247999e-05   1.726521e+01   3.984820e+01   4.753938e+01   7.635762e+05   1.032694e+06   1.308002e+06   9.156935e+01  -6.770659e+01  -2.530742e-19   1.833133e+06   1.049809e-37   0.000000e+00   0.000000e+00
     2256000   2.255999e-05   1.732629e+01   3.993082e+01   4.764402e+01   7.635762e+05   1.032694e+06   1.308002e+06   8.447001e+01  -6.245732e+01  -3.081177e-19   1.833133e+06   8.932954e-38   0.000000e+00   0.000000e+00
     2264000   2.263999e-05   1.738738e+01   4.001343e+01   4.774866e+01   7.635762e+05   1.032694e+06   1.308002e+06   8.491239e+01  -6.278442e+01  -3.309541e-20   1.833133e+06   9.025645e-38   0.000000e+00   0.000000e+00
     2272000   2.271999e-05   1.744847e+01   4.009605e+01   4.785330e+01   7.635762e+05   1.032694e+06   1.308002e+06   1.092649e+02  -8.079076e+01   1.404962e-19   1.833133e+06   1.494573e-37   0.000000e+00   0.000000e+00
     2280000   2.279999e-05   1.750955e+01   4.017866e+01   4.795794e+01   7.635762e+05   1.032694e+06   1.308002e+06   8.265206e+01  -6.111313e+01  -1.550688e-19   1.833133e+06   8.550714e-38   0.000000e+00   0.000000e+00
     2288000   2.287999e-05   1.757064e+01   4.026128e+01   4.806258e+01   7.635762e+05   1.032694e+06   1.308002e+06   5.337940e+01  -3.946885e+01  -5.320188e-21   1.833133e+06   3.567538e-38   0.000000e+00   0.000000e+00
     2296000   2.295999e-05   1.763172e+01   4.034390e+01   4.816723e+01   7.635762e+05   1.032694e+06   1.308002e+06   4.330481e+01  -3.201968e+01   8.671616e-20   1.833133e+06   2.348814e-38   0.000000e+00   0.000000e+00
     2304000   2.303999e-05   1.769281e+01   4.042651e+01   4.827187e+01   7.635762e+05   1.032694e+06   1.308002e+06   4.183959e+01  -3.093629e+01   2.536159e-20   1.833133e+06   2.192413e-38   0.000000e+00   0.000000e+00
     2312000   2.311999e-05   1.775390e+01   4.050913e+01   4.837651e+01   7.635762e+05   1.032694e+06   1.308002e+06   5.130632e+01  -3.793601e+01  -9.047905e-20   1.833133e+06   3.296397e-38   0.000000e+00   0.000000e+00
     2320000   2.319999e-05   1.781498e+01   4.059174e+01   4.848115e+01   7.635762e+05   1.032694e+06   1.308002e+06   1.921212e+01  -1.420548e+01  -7.049260e-20   1.833133e+06   4.624116e-39   0.000000e+00   0.000000e+00
     2328000   2.327999e-05   1.787607e+01   4.067436e+01   4.858579e+01   7.635762e+05   1.032694e+06   1.308002e+06   3.381948e+01  -2.500620e+01   3.442054e-20   1.833133e+06   1.432045e-38   0.000000e+00   0.000000e+00
     2336000   2.335999e-05   1.793715e+01   4.075697e+01   4.869043e+01   7.635762e+05   1.032694e+06   1.308002e+06   6.304563e+00  -4.661608e+00   1.242592e-20   1.833133e+06   4.977798e-40   0.000000e+00   0.000000e+00
     2344000   2.343999e-05   1.799824e+01   4.083959e+01   4.879507e+01   7.635762e+05   1.032694e+06   1.308002e+06   4.715402e+01  -3.486579e+01   1.337045e-19   1.833133e+06   2.782690e-38   0.000000e+00   0.000000e+00
     2352000   2.351999e-05   1.805933e+01   4.092220e+01   4.889971e+01   7.635762e+05   1.032694e+06   1.308002e+06   5.573158e+00  -4.120806e+00  -1.297745e-20   1.833133e+06   3.891149e-40   0.000000e+00   0.000000e+00
     2360000   2.359999e-05   1.812041e+01   4.100482e+01   4.900435e+01   7.635762e+05   1.032694e+06   1.308002e+06   1.112020e+01  -8.222298e+00   6.396055e-21   1.833133e+06   1.549206e-39   0.000000e+00   0.000000e+00
     2368000   2.367999e-05   1.818150e+01   4.108744e+01   4.910899e+01   7.635762e+05   1.032694e+06   1.308002e+06  -2.575463e+00   1.904303e+00   1.965453e-21   1.833133e+06   8.312457e-41   0.000000e+00   0.000000e+00
     2376000   2.375999e-05   1.824258e+01   4.117005e+01   4.921363e+01   7.635762e+05   1.032694e+06   1.308002e+06  -1.049802e+01   7.762259e+00  -3.944491e-20   1.833133e+06   1.376616e-39   0.000000e+00   0.000000e+00
     2384000   2.383999e-05   1.830367e+01   4.125267e+01   4.931827e+01   7.635762e+05   1.032694e+06   1.308002e+06  -2.716874e+01   2.008863e+01  -5.927490e-20   1.833133e+06   9.249090e-39   0.000000e+00   0.000000e+00
     2392000   2.391999e-05   1.836476e+01   4.133528e+01   4.942291e+01   7.635762e+05   1.032694e+06   1.308002e+06  -3.588502e+01   2.653347e+01  -7.650704e-20   1.833133e+06   1.611449e-38   0.000000e+00   0.000000e+00
     2400000   2.399999e-05   1.842584e+01   4.141790e+01   4.952755e+01   7.635762e+05   1.032694e+06   1.308002e+06  -1.465819e+01   1.083830e+01   2.225707e-20   1.833133e+06   2.692421e-39   0.000000e+00   0.000000e+00
     2408000   2.407999e-05   1.848693e+01   4.150051e+01   4.963219e+01   7.635734e+05   1.032693e+06   1.308005e+06  -3.239629e+07  -1.268527e+07   2.892722e+07   1.833133e+06   1.656797e-26   0.000000e+00   0.000000e+00
     2416000   2.415999e-05   1.854801e+01   4.158313e+01   4.973683e+01   7.635605e+05   1.032688e+06   1.308016e+06  -1.065644e+08  -4.047535e+07   9.416304e+07   1.833133e+06   1.770194e-25   0.000000e+00   0.000000e+00
     2424000   2.423999e-05   1.860910e+01   4.166574e+01   4.984147e+01   7.635351e+05   1.032678e+06   1.308039e+06  -1.914896e+08  -7.155263e+07   1.682671e+08   1.833133e+06   5.677946e-25   0.000000e+00   0.000000e+00
     2432000   2.431999e-05   1.867018e+01   4.174836e+01   4.994611e+01   7.635314e+05   1.032677e+06   1.308042e+06   0.000000e+00   0.000000e+00   0.000000e+00   1.833133e+06   0.000000e+00   0.000000e+00   0.000000e+00
