     timestep     time              x             y              z              vx             vy             vz             ax             ay             az         v_magnitude      ELoss        Electronic      Nuclear
           0   0.000000e+00   1.000000e-01   1.856036e+01   9.064055e+00   1.487356e+06   1.798489e+06  -4.605303e+05   0.000000e+00   0.000000e+00   0.000000e+00   2.378840e+06   0.000000e+00   0.000000e+00   0.000000e+00
        8000   7.999000e-08   2.189885e-01   1.870424e+01   9.027213e+00   1.487356e+06   1.798489e+06  -4.605303e+05   0.000000e+00   0.000000e+00   0.000000e+00   2.378840e+06   0.000000e+00   0.000000e+00   0.000000e+00
       16000   1.599900e-07   3.379770e-01   1.884812e+01   8.990370e+00   1.487356e+06   1.798489e+06  -4.605303e+05   0.000000e+00   0.000000e+00   0.000000e+00   2.378840e+06   0.000000e+00   0.000000e+00   0.000000e+00
       24000   2.399900e-07   4.569655e-01   1.899200e+01   8.953528e+00   1.487356e+06   1.798489e+06  -4.605303e+05   0.000000e+00   0.000000e+00   0.000000e+00   2.378840e+06   0.000000e+00   0.000000e+00   0.000000e+00
       32000   3.199900e-07   5.759540e-01   1.913588e+01   8.916685e+00   1.487356e+06   1.798489e+06  -4.605303e+05   0.000000e+00   0.000000e+00   0.000000e+00   2.378840e+06   0.000000e+00   0.000000e+00   0.000000e+00
       40000   3.999900e-07   6.949425e-01   1.927976e+01   8.879843e+00   1.487356e+06   1.798489e+06  -4.605303e+05   0.000000e+00   0.000000e+00   0.000000e+00   2.378840e+06   0.000000e+00   0.000000e+00   0.000000e+00
       48000   4.799900e-07   8.139310e-01   1.942364e+01   8.843000e+00   1.487356e+06   1.798489e+06  -4.605303e+05   0.000000e+00   0.000000e+00   0.000000e+00   2.378840e+06   0.000000e+00   0.000000e+00   0.000000e+00
       56000   5.599900e-07   9.329195e-01   1.956751e+01   8.806158e+00   1.487356e+06   1.798489e+06  -4.605303e+05   0.000000e+00   0.000000e+00   0.000000e+00   2.378840e+06   0.000000e+00   0.000000e+00   0.000000e+00
       64000   6.399900e-07   1.051908e+00   1.971139e+01   8.769316e+00   1.487356e+06   1.798489e+06  -4.605303e+05   0.000000e+00   0.000000e+00   0.000000e+00   2.378840e+06   0.000000e+00   0.000000e+00   0.000000e+00
       72000   7.199900e-07   1.170897e+00   1.985527e+01   8.732473e+00   1.487356e+06   1.798489e+06  -4.605303e+05   0.000000e+00   0.000000e+00   0.000000e+00   2.378840e+06   0.000000e+00   0.000000e+00   0.000000e+00
       80000   7.999900e-07   1.289885e+00   1.999915e+01   8.695631e+00   1.487356e+06   1.798489e+06  -4.605303e+05   0.000000e+00   0.000000e+00   0.000000e+00   2.378840e+06   0.000000e+00   0.000000e+00   0.000000e+00
       88000   8.799900e-07   1.408874e+00   2.014303e+01   8.658788e+00   1.487356e+06   1.798489e+06  -4.605303e+05   0.000000e+00   0.000000e+00   0.000000e+00   2.378840e+06   0.000000e+00   0.000000e+00   0.000000e+00
       96000   9.599900e-07   1.527862e+00   2.028691e+01   8.621946e+00   1.487356e+06   1.798489e+06  -4.605303e+05   0.000000e+00   0.000000e+00   0.000000e+00   2.378840e+06   0.000000e+00   0.000000e+00   0.000000e+00
      104000   1.039990e-06   1.646851e+00   2.043079e+01   8.585103e+00   1.487356e+06   1.798489e+06  -4.605303e+05   0.000000e+00   0.000000e+00   0.000000e+00   2.378840e+06   0.000000e+00   0.000000e+00   0.000000e+00
      112000   1.119990e-06   1.765839e+00   2.057467e+01   8.548261e+00   1.487356e+06   1.798489e+06  -4.605303e+05   0.000000e+00   0.000000e+00   0.000000e+00   2.378840e+06   0.000000e+00   0.000000e+00   0.000000e+00
      120000   1.199990e-06   1.884828e+00   2.071855e+01   8.511419e+00   1.487356e+06   1.798489e+06  -4.605303e+05   0.000000e+00   0.000000e+00   0.000000e+00   2.378840e+06   0.000000e+00   0.000000e+00   0.000000e+00
      128000   1.279990e-06   2.003816e+00   2.086243e+01   8.474576e+00   1.487356e+06   1.798489e+06  -4.605303e+05   0.000000e+00   0.000000e+00   0.000000e+00   2.378840e+06   0.000000e+00   0.000000e+00   0.000000e+00
      136000   1.359990e-06   2.122805e+00   2.100631e+01   8.437734e+00   1.487356e+06   1.798489e+06  -4.605303e+05   0.000000e+00   0.000000e+00   0.000000e+00   2.378840e+06   0.000000e+00   0.000000e+00   0.000000e+00
      144000   1.439990e-06   2.241793e+00   2.115018e+01   8.400891e+00   1.487356e+06   1.798489e+06  -4.605303e+05   0.000000e+00   0.000000e+00   0.000000e+00   2.378840e+06   0.000000e+00   0.000000e+00   0.000000e+00
      152000   1.519990e-06   2.360782e+00   2.129406e+01   8.364049e+00   1.487356e+06   1.798489e+06  -4.605303e+05   0.000000e+00   0.000000e+00   0.000000e+00   2.378840e+06   0.000000e+00   0.000000e+00   0.000000e+00
      160000   1.599990e-06   2.479770e+00   2.143794e+01   8.327206e+00   1.487356e+06   1.798489e+06  -4.605303e+05   0.000000e+00   0.000000e+00   0.000000e+00   2.378840e+06   0.000000e+00   0.000000e+00   0.000000e+00
      168000   1.679990e-06   2.598759e+00   2.158182e+01   8.290364e+00   1.487356e+06   1.798489e+06  -4.605303e+05   0.000000e+00   0.000000e+00   0.000000e+00   2.378840e+06   0.000000e+00   0.000000e+00   0.000000e+00
      176000   1.759990e-06   2.717747e+00   2.172570e+01   8.253522e+00   1.487356e+06   1.798489e+06  -4.605303e+05   0.000000e+00   0.000000e+00   0.000000e+00   2.378840e+06   0.000000e+00   0.000000e+00   0.000000e+00
      184000   1.839990e-06   2.836736e+00   2.186958e+01   8.216679e+00   1.487356e+06   1.798489e+06  -4.605303e+05   0.000000e+00   0.000000e+00   0.000000e+00   2.378840e+06   0.000000e+00   0.000000e+00   0.000000e+00
      192000   1.919990e-06   2.955724e+00   2.201346e+01   8.179837e+00   1.487356e+06   1.798489e+06  -4.605303e+05   0.000000e+00   0.000000e+00   0.000000e+00   2.378840e+06   0.000000e+00   0.000000e+00   0.000000e+00
      200000   1.999990e-06   3.074713e+00   2.215734e+01   8.142994e+00   1.487356e+06   1.798489e+06  -4.605303e+05   0.000000e+00   0.000000e+00   0.000000e+00   2.378840e+06   0.000000e+00   0.000000e+00   0.000000e+00
      208000   2.079990e-06   3.193701e+00   2.230122e+01   8.106152e+00   1.487356e+06   1.798489e+06  -4.605303e+05   0.000000e+00   0.000000e+00   0.000000e+00   2.378840e+06   0.000000e+00   0.000000e+00   0.000000e+00
      216000   2.159990e-06   3.312690e+00   2.244510e+01   8.069310e+00   1.487356e+06   1.798489e+06  -4.605303e+05   0.000000e+00   0.000000e+00   0.000000e+00   2.378840e+06   0.000000e+00   0.000000e+00   0.000000e+00
      224000   2.239990e-06   3.431678e+00   2.258898e+01   8.032467e+00   1.487356e+06   1.798489e+06  -4.605303e+05   0.000000e+00   0.000000e+00   0.000000e+00   2.378840e+06   0.000000e+00   0.000000e+00   0.000000e+00
      232000   2.319990e-06   3.550667e+00   2.273285e+01   7.995625e+00   1.487356e+06   1.798489e+06  -4.605303e+05   0.000000e+00   0.000000e+00   0.000000e+00   2.378840e+06   0.000000e+00   0.000000e+00   0.000000e+00
      240000   2.399990e-06   3.669655e+00   2.287673e+01   7.958782e+00   1.487356e+06   1.798489e+06  -4.605303e+05   0.000000e+00   0.000000e+00   0.000000e+00   2.378840e+06   0.000000e+00   0.000000e+00   0.000000e+00
      248000   2.479990e-06   3.788644e+00   2.302061e+01   7.921940e+00   1.487356e+06   1.798489e+06  -4.605303e+05   0.000000e+00   0.000000e+00   0.000000e+00   2.378840e+06   0.000000e+00   0.000000e+00   0.000000e+00
      256000   2.559990e-06   3.907632e+00   2.316449e+01   7.885097e+00   1.487356e+06   1.798489e+06  -4.605303e+05   0.000000e+00   0.000000e+00   0.000000e+00   2.378840e+06   0.000000e+00   0.000000e+00   0.000000e+00
      264000   2.639990e-06   4.026621e+00   2.330837e+01   7.848255e+00   1.487356e+06   1.798489e+06  -4.605303e+05   0.000000e+00   0.000000e+00   0.000000e+00   2.378840e+06   0.000000e+00   0.000000e+00   0.000000e+00
      272000   2.719990e-06   4.145609e+00   2.345225e+01   7.811413e+00   1.487356e+06   1.798489e+06  -4.605303e+05   0.000000e+00   0.000000e+00   0.000000e+00   2.378840e+06   0.000000e+00   0.000000e+00   0.000000e+00
      280000   2.799990e-06   4.264598e+00   2.359613e+01   7.774570e+00   1.487356e+06   1.798489e+06  -4.605303e+05   0.000000e+00   0.000000e+00   0.000000e+00   2.378840e+06   0.000000e+00   0.000000e+00   0.000000e+00
      288000   2.879990e-06   4.383586e+00   2.374001e+01   7.737728e+00   1.487356e+06   1.798489e+06  -4.605303e+05   0.000000e+00   0.000000e+00   0.000000e+00   2.378840e+06   0.000000e+00   0.000000e+00   0.000000e+00
      296000   2.959990e-06   4.502575e+00   2.388389e+01   7.700885e+00   1.487356e+06   1.798489e+06  -4.605303e+05   0.000000e+00   0.000000e+00   0.000000e+00   2.378840e+06   0.000000e+00   0.000000e+00   0.000000e+00
      304000   3.039990e-06   4.621563e+00   2.402777e+01   7.664043e+00   1.487356e+06   1.798489e+06  -4.605303e+05   0.000000e+00   0.000000e+00   0.000000e+00   2.378840e+06   0.000000e+00   0.000000e+00   0.000000e+00
      312000   3.119990e-06   4.740552e+00   2.417165e+01   7.627200e+00   1.487356e+06   1.798489e+06  -4.605303e+05   0.000000e+00   0.000000e+00   0.000000e+00   2.378840e+06   0.000000e+00   0.000000e+00   0.000000e+00
      320000   3.199990e-06   4.859540e+00   2.431552e+01   7.590358e+00   1.487356e+06   1.798489e+06  -4.605303e+05   0.000000e+00   0.000000e+00   0.000000e+00   2.378840e+06   0.000000e+00   0.000000e+00   0.000000e+00
      328000   3.279990e-06   4.978529e+00   2.445940e+01   7.553516e+00   1.487356e+06   1.798489e+06  -4.605303e+05   0.000000e+00   0.000000e+00   0.000000e+00   2.378840e+06   0.000000e+00   0.000000e+00   0.000000e+00
      336000   3.359990e-06   5.097517e+00   2.460328e+01   7.516673e+00   1.487356e+06   1.798489e+06  -4.605303e+05   0.000000e+00   0.000000e+00   0.000000e+00   2.378840e+06   0.000000e+00   0.000000e+00   0.000000e+00
      344000   3.439990e-06   5.216506e+00   2.474716e+01   7.479831e+00   1.487356e+06   1.798489e+06  -4.605303e+05   0.000000e+00   0.000000e+00   0.000000e+00   2.378840e+06   0.000000e+00   0.000000e+00   0.000000e+00
      352000   3.519990e-06   5.335494e+00   2.489104e+01   7.442988e+00   1.487356e+06   1.798489e+06  -4.605303e+05   0.000000e+00   0.000000e+00   0.000000e+00   2.378840e+06   0.000000e+00   0.000000e+00   0.000000e+00
      360000   3.599990e-06   5.454483e+00   2.503492e+01   7.406146e+00   1.487356e+06   1.798489e+06  -4.605303e+05   0.000000e+00   0.000000e+00   0.000000e+00   2.378840e+06   0.000000e+00   0.000000e+00   0.000000e+00
      368000   3.679990e-06   5.573471e+00   2.517880e+01   7.369303e+00   1.487356e+06   1.798489e+06  -4.605303e+05   0.000000e+00   0.000000e+00   0.000000e+00   2.378840e+06   0.000000e+00   0.000000e+00   0.000000e+00
      376000   3.759990e-06   5.692460e+00   2.532268e+01   7.332461e+00   1.487356e+06   1.798489e+06  -4.605303e+05   0.000000e+00   0.000000e+00   0.000000e+00   2.378840e+06   0.000000e+00   0.000000e+00   0.000000e+00
      384000   3.839990e-06   5.811448e+00   2.546656e+01   7.295619e+00   1.487356e+06   1.798489e+06  -4.605303e+05   0.000000e+00   0.000000e+00   0.000000e+00   2.378840e+06   0.000000e+00   0.000000e+00   0.000000e+00
      392000   3.919990e-06   5.930437e+00   2.561044e+01   7.258776e+00   1.487356e+06   1.798489e+06  -4.605303e+05   0.000000e+00   0.000000e+00   0.000000e+00   2.378840e+06   0.000000e+00   0.000000e+00   0.000000e+00
      400000   3.999990e-06   6.049425e+00   2.575432e+01   7.221934e+00   1.487356e+06   1.798489e+06  -4.605303e+05   0.000000e+00   0.000000e+00   0.000000e+00   2.378840e+06   0.000000e+00   0.000000e+00   0.000000e+00
      408000   4.079990e-06   6.168414e+00   2.589819e+01   7.185091e+00   1.487356e+06   1.798489e+06  -4.605303e+05   0.000000e+00   0.000000e+00   0.000000e+00   2.378840e+06   0.000000e+00   0.000000e+00   0.000000e+00
      416000   4.159990e-06   6.287402e+00   2.604207e+01   7.148249e+00   1.487356e+06   1.798489e+06  -4.605303e+05   0.000000e+00   0.000000e+00   0.000000e+00   2.378840e+06   0.000000e+00   0.000000e+00   0.000000e+00
      424000   4.239990e-06   6.406391e+00   2.618595e+01   7.111406e+00   1.487356e+06   1.798489e+06  -4.605303e+05   0.000000e+00   0.000000e+00   0.000000e+00   2.378840e+06   0.000000e+00   0.000000e+00   0.000000e+00
      432000   4.319990e-06   6.525379e+00   2.632983e+01   7.074564e+00   1.487356e+06   1.798489e+06  -4.605303e+05   0.000000e+00   0.000000e+00   0.000000e+00   2.378840e+06   0.000000e+00   0.000000e+00   0.000000e+00
      440000   4.399990e-06   6.644368e+00   2.647371e+01   7.037722e+00   1.487356e+06   1.798489e+06  -4.605303e+05   0.000000e+00   0.000000e+00   0.000000e+00   2.378840e+06   0.000000e+00   0.000000e+00   0.000000e+00
      448000   4.479990e-06   6.763356e+00   2.661759e+01   7.000879e+00   1.487356e+06   1.798489e+06  -4.605303e+05   0.000000e+00   0.000000e+00   0.000000e+00   2.378840e+06   0.000000e+00   0.000000e+00   0.000000e+00
      456000   4.559990e-06   6.882345e+00   2.676147e+01   6.964037e+00   1.487356e+06   1.798489e+06  -4.605303e+05   0.000000e+00   0.000000e+00   0.000000e+00   2.378840e+06   0.000000e+00   0.000000e+00   0.000000e+00
      464000   4.639990e-06   7.001333e+00   2.690535e+01   6.927194e+00   1.487356e+06   1.798489e+06  -4.605303e+05   0.000000e+00   0.000000e+00   0.000000e+00   2.378840e+06   0.000000e+00   0.000000e+00   0.000000e+00
      472000   4.719990e-06   7.120322e+00   2.704923e+01   6.890352e+00   1.487356e+06   1.798489e+06  -4.605303e+05   0.000000e+00   0.000000e+00   0.000000e+00   2.378840e+06   0.000000e+00   0.000000e+00   0.000000e+00
      480000   4.799990e-06   7.239310e+00   2.719311e+01   6.853509e+00   1.487356e+06   1.798489e+06  -4.605303e+05   0.000000e+00   0.000000e+00   0.000000e+00   2.378840e+06   0.000000e+00   0.000000e+00   0.000000e+00
      488000   4.879990e-06   7.358299e+00   2.733699e+01   6.816667e+00   1.487356e+06   1.798489e+06  -4.605303e+05   0.000000e+00   0.000000e+00   0.000000e+00   2.378840e+06   0.000000e+00   0.000000e+00   0.000000e+00
      496000   4.959990e-06   7.477287e+00   2.748086e+01   6.779825e+00   1.487356e+06   1.798489e+06  -4.605303e+05   0.000000e+00   0.000000e+00   0.000000e+00   2.378840e+06   0.000000e+00   0.000000e+00   0.000000e+00
      504000   5.039990e-06   7.596276e+00   2.762474e+01   6.742982e+00   1.487356e+06   1.798489e+06  -4.605303e+05   0.000000e+00   0.000000e+00   0.000000e+00   2.378840e+06   0.000000e+00   0.000000e+00   0.000000e+00
      512000   5.119990e-06   7.715264e+00   2.776862e+01   6.706140e+00   1.487356e+06   1.798489e+06  -4.605303e+05   0.000000e+00   0.000000e+00   0.000000e+00   2.378840e+06   0.000000e+00   0.000000e+00   0.000000e+00
      520000   5.199990e-06   7.834253e+00   2.791250e+01   6.669297e+00   1.487356e+06   1.798489e+06  -4.605303e+05   0.000000e+00   0.000000e+00   0.000000e+00   2.378840e+06   0.000000e+00   0.000000e+00   0.000000e+00
      528000   5.279990e-06   7.953241e+00   2.805638e+01   6.632455e+00   1.487356e+06   1.798489e+06  -4.605303e+05   0.000000e+00   0.000000e+00   0.000000e+00   2.378840e+06   0.000000e+00   0.000000e+00   0.000000e+00
      536000   5.359990e-06   8.072230e+00   2.820026e+01   6.595613e+00   1.487356e+06   1.798489e+06  -4.605303e+05   0.000000e+00   0.000000e+00   0.000000e+00   2.378840e+06   0.000000e+00   0.000000e+00   0.000000e+00
      544000   5.439990e-06   8.191218e+00   2.834414e+01   6.558770e+00   1.487356e+06   1.798489e+06  -4.605303e+05   0.000000e+00   0.000000e+00   0.000000e+00   2.378840e+06   0.000000e+00   0.000000e+00   0.000000e+00
      552000   5.519990e-06   8.310207e+00   2.848802e+01   6.521928e+00   1.487356e+06   1.798489e+06  -4.605303e+05   0.000000e+00   0.000000e+00   0.000000e+00   2.378840e+06   0.000000e+00   0.000000e+00   0.000000e+00
      560000   5.599990e-06   8.429195e+00   2.863190e+01   6.485085e+00   1.487356e+06   1.798489e+06  -4.605303e+05   0.000000e+00   0.000000e+00   0.000000e+00   2.378840e+06   0.000000e+00   0.000000e+00   0.000000e+00
      568000   5.679990e-06   8.548184e+00   2.877578e+01   6.448243e+00   1.487356e+06   1.798489e+06  -4.605303e+05   0.000000e+00   0.000000e+00   0.000000e+00   2.378840e+06   0.000000e+00   0.000000e+00   0.000000e+00
      576000   5.759990e-06   8.667172e+00   2.891966e+01   6.411400e+00   1.487356e+06   1.798489e+06  -4.605303e+05   0.000000e+00   0.000000e+00   0.000000e+00   2.378840e+06   0.000000e+00   0.000000e+00   0.000000e+00
      584000   5.839990e-06   8.786161e+00   2.906353e+01   6.374558e+00   1.487356e+06   1.798489e+06  -4.605303e+05   0.000000e+00   0.000000e+00   0.000000e+00   2.378840e+06   0.000000e+00   0.000000e+00   0.000000e+00
      592000   5.919990e-06   8.905149e+00   2.920741e+01   6.337716e+00   1.487356e+06   1.798489e+06  -4.605303e+05   0.000000e+00   0.000000e+00   0.000000e+00   2.378840e+06   0.000000e+00   0.000000e+00   0.000000e+00
      600000   5.999990e-06   9.024138e+00   2.935129e+01   6.300873e+00   1.487356e+06   1.798489e+06  -4.605303e+05   0.000000e+00   0.000000e+00   0.000000e+00   2.378840e+06   0.000000e+00   0.000000e+00   0.000000e+00
      608000   6.079990e-06   9.143126e+00   2.949517e+01   6.264031e+00   1.487356e+06   1.798489e+06  -4.605303e+05   0.000000e+00   0.000000e+00   0.000000e+00   2.378840e+06   0.000000e+00   0.000000e+00   0.000000e+00
      616000   6.159990e-06   9.262115e+00   2.963905e+01   6.227188e+00   1.487356e+06   1.798489e+06  -4.605303e+05   0.000000e+00   0.000000e+00   0.000000e+00   2.378840e+06   0.000000e+00   0.000000e+00   0.000000e+00
      624000   6.239990e-06   9.381103e+00   2.978293e+01   6.190346e+00   1.487356e+06   1.798489e+06  -4.605303e+05   0.000000e+00   0.000000e+00   0.000000e+00   2.378840e+06   0.000000e+00   0.000000e+00   0.000000e+00
      632000   6.319990e-06   9.500092e+00   2.992681e+01   6.153503e+00   1.487356e+06   1.798489e+06  -4.605303e+05   0.000000e+00   0.000000e+00   0.000000e+00   2.378840e+06   0.000000e+00   0.000000e+00   0.000000e+00
      640000   6.399990e-06   9.619080e+00   3.007069e+01   6.116661e+00   1.487356e+06   1.798489e+06  -4.605303e+05   0.000000e+00   0.000000e+00   0.000000e+00   2.378840e+06   0.000000e+00   0.000000e+00   0.000000e+00
      648000   6.479990e-06   9.738069e+00   3.021457e+01   6.079819e+00   1.487356e+06   1.798489e+06  -4.605303e+05   0.000000e+00   0.000000e+00   0.000000e+00   2.378840e+06   0.000000e+00   0.000000e+00   0.000000e+00
      656000   6.559990e-06   9.857057e+00   3.035845e+01   6.042976e+00   1.487356e+06   1.798489e+06  -4.605303e+05   0.000000e+00   0.000000e+00   0.000000e+00   2.378840e+06   0.000000e+00   0.000000e+00   0.000000e+00
      664000   6.639990e-06   9.976046e+00   3.050233e+01   6.006134e+00   1.487356e+06   1.798489e+06  -4.605303e+05   0.000000e+00   0.000000e+00   0.000000e+00   2.378840e+06   0.000000e+00   0.000000e+00   0.000000e+00
      672000   6.719990e-06   1.009503e+01   3.064620e+01   5.969291e+00   1.487356e+06   1.798489e+06  -4.605303e+05   0.000000e+00   0.000000e+00   0.000000e+00   2.378840e+06   0.000000e+00   0.000000e+00   0.000000e+00
      680000   6.799990e-06   1.021402e+01   3.079008e+01   5.932449e+00   1.487356e+06   1.798489e+06  -4.605303e+05   0.000000e+00   0.000000e+00   0.000000e+00   2.378840e+06   0.000000e+00   0.000000e+00   0.000000e+00
      688000   6.879990e-06   1.033301e+01   3.093396e+01   5.895606e+00   1.487356e+06   1.798489e+06  -4.605303e+05   0.000000e+00   0.000000e+00   0.000000e+00   2.378840e+06   0.000000e+00   0.000000e+00   0.000000e+00
      696000   6.959990e-06   1.045200e+01   3.107784e+01   5.858764e+00   1.487356e+06   1.798489e+06  -4.605303e+05   0.000000e+00   0.000000e+00   0.000000e+00   2.378840e+06   0.000000e+00   0.000000e+00   0.000000e+00
      704000   7.039990e-06   1.057099e+01   3.122172e+01   5.821922e+00   1.487356e+06   1.798489e+06  -4.605303e+05   0.000000e+00   0.000000e+00   0.000000e+00   2.378840e+06   0.000000e+00   0.000000e+00   0.000000e+00
      712000   7.119990e-06   1.068998e+01   3.136560e+01   5.785079e+00   1.487356e+06   1.798489e+06  -4.605303e+05   0.000000e+00   0.000000e+00   0.000000e+00   2.378840e+06   0.000000e+00   0.000000e+00   0.000000e+00
      720000   7.199990e-06   1.080897e+01   3.150948e+01   5.748237e+00   1.487356e+06   1.798489e+06  -4.605303e+05   0.000000e+00   0.000000e+00   0.000000e+00   2.378840e+06   0.000000e+00   0.000000e+00   0.000000e+00
      728000   7.279990e-06   1.092795e+01   3.165336e+01   5.711394e+00   1.487356e+06   1.798489e+06  -4.605303e+05   0.000000e+00   0.000000e+00   0.000000e+00   2.378840e+06   0.000000e+00   0.000000e+00   0.000000e+00
      736000   7.359990e-06   1.104694e+01   3.179724e+01   5.674552e+00   1.487356e+06   1.798489e+06  -4.605303e+05   0.000000e+00   0.000000e+00   0.000000e+00   2.378840e+06   0.000000e+00   0.000000e+00   0.000000e+00
      744000   7.439990e-06   1.116593e+01   3.194112e+01   5.637709e+00   1.487356e+06   1.798489e+06  -4.605303e+05   0.000000e+00   0.000000e+00   0.000000e+00   2.378840e+06   0.000000e+00   0.000000e+00   0.000000e+00
      752000   7.519990e-06   1.128492e+01   3.208500e+01   5.600867e+00   1.487356e+06   1.798489e+06  -4.605303e+05   0.000000e+00   0.000000e+00   0.000000e+00   2.378840e+06   0.000000e+00   0.000000e+00   0.000000e+00
      760000   7.599990e-06   1.140391e+01   3.222888e+01   5.564025e+00   1.487356e+06   1.798489e+06  -4.605303e+05   0.000000e+00   0.000000e+00   0.000000e+00   2.378840e+06   0.000000e+00   0.000000e+00   0.000000e+00
      768000   7.679990e-06   1.152290e+01   3.237275e+01   5.527182e+00   1.487356e+06   1.798489e+06  -4.605303e+05   0.000000e+00   0.000000e+00   0.000000e+00   2.378840e+06   0.000000e+00   0.000000e+00   0.000000e+00
      776000   7.759990e-06   1.164188e+01   3.251663e+01   5.490340e+00   1.487356e+06   1.798489e+06  -4.605303e+05   0.000000e+00   0.000000e+00   0.000000e+00   2.378840e+06   0.000000e+00   0.000000e+00   0.000000e+00
      784000   7.839990e-06   1.176087e+01   3.266051e+01   5.453497e+00   1.487356e+06   1.798489e+06  -4.605303e+05   0.000000e+00   0.000000e+00   0.000000e+00   2.378840e+06   0.000000e+00   0.000000e+00   0.000000e+00
      792000   7.919990e-06   1.187986e+01   3.280439e+01   5.416655e+00   1.487356e+06   1.798489e+06  -4.605303e+05   0.000000e+00   0.000000e+00   0.000000e+00   2.378840e+06   0.000000e+00   0.000000e+00   0.000000e+00
      800000   7.999990e-06   1.199885e+01   3.294827e+01   5.379812e+00   1.487356e+06   1.798489e+06  -4.605303e+05   0.000000e+00   0.000000e+00   0.000000e+00   2.378840e+06   0.000000e+00   0.000000e+00   0.000000e+00
      808000   8.079990e-06   1.211784e+01   3.309215e+01   5.342970e+00   1.487356e+06   1.798489e+06  -4.605303e+05   0.000000e+00   0.000000e+00   0.000000e+00   2.378840e+06   0.000000e+00   0.000000e+00   0.000000e+00
      816000   8.159990e-06   1.223683e+01   3.323603e+01   5.306128e+00   1.487356e+06   1.798489e+06  -4.605303e+05   0.000000e+00   0.000000e+00   0.000000e+00   2.378840e+06   0.000000e+00   0.000000e+00   0.000000e+00
      824000   8.239990e-06   1.235582e+01   3.337991e+01   5.269285e+00   1.487356e+06   1.798489e+06  -4.605303e+05   0.000000e+00   0.000000e+00   0.000000e+00   2.378840e+06   0.000000e+00   0.000000e+00   0.000000e+00
      832000   8.319990e-06   1.247480e+01   3.352379e+01   5.232443e+00   1.487356e+06   1.798489e+06  -4.605303e+05   0.000000e+00   0.000000e+00   0.000000e+00   2.378840e+06   0.000000e+00   0.000000e+00   0.000000e+00
      840000   8.399990e-06   1.259379e+01   3.366767e+01   5.195600e+00   1.487356e+06   1.798489e+06  -4.605303e+05   0.000000e+00   0.000000e+00   0.000000e+00   2.378840e+06   0.000000e+00   0.000000e+00   0.000000e+00
      848000   8.479990e-06   1.271278e+01   3.381155e+01   5.158758e+00   1.487356e+06   1.798489e+06  -4.605303e+05   0.000000e+00   0.000000e+00   0.000000e+00   2.378840e+06   0.000000e+00   0.000000e+00   0.000000e+00
      856000   8.559990e-06   1.283177e+01   3.395542e+01   5.121916e+00   1.487356e+06   1.798489e+06  -4.605303e+05   0.000000e+00   0.000000e+00   0.000000e+00   2.378840e+06   0.000000e+00   0.000000e+00   0.000000e+00
      864000   8.639990e-06   1.295076e+01   3.409930e+01   5.085073e+00   1.487356e+06   1.798489e+06  -4.605303e+05   0.000000e+00   0.000000e+00   0.000000e+00   2.378840e+06   0.000000e+00   0.000000e+00   0.000000e+00
      872000   8.719990e-06   1.306975e+01   3.424318e+01   5.048231e+00   1.487356e+06   1.798489e+06  -4.605303e+05   0.000000e+00   0.000000e+00   0.000000e+00   2.378840e+06   0.000000e+00   0.000000e+00   0.000000e+00
      880000   8.799990e-06   1.318874e+01   3.438706e+01   5.011388e+00   1.487356e+06   1.798489e+06  -4.605303e+05   0.000000e+00   0.000000e+00   0.000000e+00   2.378840e+06   0.000000e+00   0.000000e+00   0.000000e+00
      888000   8.879990e-06   1.330772e+01   3.453094e+01   4.974546e+00   1.487356e+06   1.798489e+06  -4.605303e+05   0.000000e+00   0.000000e+00   0.000000e+00   2.378840e+06   0.000000e+00   0.000000e+00   0.000000e+00
      896000   8.959990e-06   1.342671e+01   3.467482e+01   4.937703e+00   1.487356e+06   1.798489e+06  -4.605303e+05   0.000000e+00   0.000000e+00   0.000000e+00   2.378840e+06   0.000000e+00   0.000000e+00   0.000000e+00
      904000   9.039990e-06   1.354570e+01   3.481870e+01   4.900861e+00   1.487356e+06   1.798489e+06  -4.605303e+05   0.000000e+00   0.000000e+00   0.000000e+00   2.378840e+06   0.000000e+00   0.000000e+00   0.000000e+00
      912000   9.119990e-06   1.366469e+01   3.496258e+01   4.864019e+00   1.487356e+06   1.798489e+06  -4.605303e+05   0.000000e+00   0.000000e+00   0.000000e+00   2.378840e+06   0.000000e+00   0.000000e+00   0.000000e+00
      920000   9.199990e-06   1.378368e+01   3.510646e+01   4.827176e+00   1.487356e+06   1.798489e+06  -4.605303e+05   0.000000e+00   0.000000e+00   0.000000e+00   2.378840e+06   0.000000e+00   0.000000e+00   0.000000e+00
      928000   9.279990e-06   1.390267e+01   3.525034e+01   4.790334e+00   1.487356e+06   1.798489e+06  -4.605303e+05   0.000000e+00   0.000000e+00   0.000000e+00   2.378840e+06   0.000000e+00   0.000000e+00   0.000000e+00
      936000   9.359990e-06   1.402165e+01   3.539422e+01   4.753491e+00   1.487356e+06   1.798489e+06  -4.605303e+05   0.000000e+00   0.000000e+00   0.000000e+00   2.378840e+06   0.000000e+00   0.000000e+00   0.000000e+00
      944000   9.439990e-06   1.414064e+01   3.553809e+01   4.716649e+00   1.487356e+06   1.798489e+06  -4.605303e+05   0.000000e+00   0.000000e+00   0.000000e+00   2.378840e+06   0.000000e+00   0.000000e+00   0.000000e+00
      952000   9.519990e-06   1.425963e+01   3.568197e+01   4.679806e+00   1.487356e+06   1.798489e+06  -4.605303e+05   0.000000e+00   0.000000e+00   0.000000e+00   2.378840e+06   0.000000e+00   0.000000e+00   0.000000e+00
      960000   9.599990e-06   1.437862e+01   3.582585e+01   4.642964e+00   1.487356e+06   1.798489e+06  -4.605303e+05   0.000000e+00   0.000000e+00   0.000000e+00   2.378840e+06   0.000000e+00   0.000000e+00   0.000000e+00
      968000   9.679990e-06   1.449761e+01   3.596973e+01   4.606122e+00   1.487356e+06   1.798489e+06  -4.605303e+05   0.000000e+00   0.000000e+00   0.000000e+00   2.378840e+06   0.000000e+00   0.000000e+00   0.000000e+00
      976000   9.759990e-06   1.461660e+01   3.611361e+01   4.569279e+00   1.487356e+06   1.798489e+06  -4.605303e+05   0.000000e+00   0.000000e+00   0.000000e+00   2.378840e+06   0.000000e+00   0.000000e+00   0.000000e+00
      984000   9.839990e-06   1.473559e+01   3.625749e+01   4.532437e+00   1.487356e+06   1.798489e+06  -4.605303e+05   0.000000e+00   0.000000e+00   0.000000e+00   2.378840e+06   0.000000e+00   0.000000e+00   0.000000e+00
      992000   9.919990e-06   1.485457e+01   3.640137e+01   4.495594e+00   1.487356e+06   1.798489e+06  -4.605303e+05   0.000000e+00   0.000000e+00   0.000000e+00   2.378840e+06   0.000000e+00   0.000000e+00   0.000000e+00
     1000000   9.999990e-06   1.497356e+01   3.654525e+01   4.458752e+00   1.487356e+06   1.798489e+06  -4.605303e+05   0.000000e+00   0.000000e+00   0.000000e+00   2.378840e+06   0.000000e+00   0.000000e+00   0.000000e+00
     1008000   1.007999e-05   1.509255e+01   3.668913e+01   4.421909e+00   1.487356e+06   1.798489e+06  -4.605303e+05   0.000000e+00   0.000000e+00   0.000000e+00   2.378840e+06   0.000000e+00   0.000000e+00   0.000000e+00
     1016000   1.015999e-05   1.521154e+01   3.683301e+01   4.385067e+00   1.487356e+06   1.798489e+06  -4.605303e+05   0.000000e+00   0.000000e+00   0.000000e+00   2.378840e+06   0.000000e+00   0.000000e+00   0.000000e+00
     1024000   1.023999e-05   1.533053e+01   3.697689e+01   4.348225e+00   1.487356e+06   1.798489e+06  -4.605303e+05   0.000000e+00   0.000000e+00   0.000000e+00   2.378840e+06   0.000000e+00   0.000000e+00   0.000000e+00
     1032000   1.031999e-05   1.544952e+01   3.712076e+01   4.311382e+00   1.487356e+06   1.798489e+06  -4.605303e+05   0.000000e+00   0.000000e+00   0.000000e+00   2.378840e+06   0.000000e+00   0.000000e+00   0.000000e+00
     1040000   1.039999e-05   1.556851e+01   3.726464e+01   4.274540e+00   1.487356e+06   1.798489e+06  -4.605303e+05   0.000000e+00   0.000000e+00   0.000000e+00   2.378840e+06   0.000000e+00   0.000000e+00   0.000000e+00
     1048000   1.047999e-05   1.568749e+01   3.740852e+01   4.237697e+00   1.487356e+06   1.798489e+06  -4.605303e+05   0.000000e+00   0.000000e+00   0.000000e+00   2.378840e+06   0.000000e+00   0.000000e+00   0.000000e+00
     1056000   1.055999e-05   1.580648e+01   3.755240e+01   4.200855e+00   1.487356e+06   1.798489e+06  -4.605303e+05   0.000000e+00   0.000000e+00   0.000000e+00   2.378840e+06   0.000000e+00   0.000000e+00   0.000000e+00
     1064000   1.063999e-05   1.592547e+01   3.769628e+01   4.164012e+00   1.487356e+06   1.798489e+06  -4.605303e+05   0.000000e+00   0.000000e+00   0.000000e+00   2.378840e+06   0.000000e+00   0.000000e+00   0.000000e+00
     1072000   1.071999e-05   1.604446e+01   3.784016e+01   4.127170e+00   1.487356e+06   1.798489e+06  -4.605303e+05   0.000000e+00   0.000000e+00   0.000000e+00   2.378840e+06   0.000000e+00   0.000000e+00   0.000000e+00
     1080000   1.079999e-05   1.616345e+01   3.798404e+01   4.090328e+00   1.487356e+06   1.798489e+06  -4.605303e+05   0.000000e+00   0.000000e+00   0.000000e+00   2.378840e+06   0.000000e+00   0.000000e+00   0.000000e+00
     1088000   1.087999e-05   1.628244e+01   3.812792e+01   4.053485e+00   1.487356e+06   1.798489e+06  -4.605303e+05   0.000000e+00   0.000000e+00   0.000000e+00   2.378840e+06   0.000000e+00   0.000000e+00   0.000000e+00
     1096000   1.095999e-05   1.640143e+01   3.827180e+01   4.016643e+00   1.487356e+06   1.798489e+06  -4.605303e+05   0.000000e+00   0.000000e+00   0.000000e+00   2.378840e+06   0.000000e+00   0.000000e+00   0.000000e+00
     1104000   1.103999e-05   1.652041e+01   3.841568e+01   3.979800e+00   1.487356e+06   1.798489e+06  -4.605303e+05   0.000000e+00   0.000000e+00   0.000000e+00   2.378840e+06   0.000000e+00   0.000000e+00   0.000000e+00
     1112000   1.111999e-05   1.663940e+01   3.855956e+01   3.942958e+00   1.487356e+06   1.798489e+06  -4.605303e+05   0.000000e+00   0.000000e+00   0.000000e+00   2.378840e+06   0.000000e+00   0.000000e+00   0.000000e+00
     1120000   1.119999e-05   1.675839e+01   3.870343e+01   3.906115e+00   1.487356e+06   1.798489e+06  -4.605303e+05   0.000000e+00   0.000000e+00   0.000000e+00   2.378840e+06   0.000000e+00   0.000000e+00   0.000000e+00
     1128000   1.127999e-05   1.687738e+01   3.884731e+01   3.869273e+00   1.487356e+06   1.798489e+06  -4.605303e+05   0.000000e+00   0.000000e+00   0.000000e+00   2.378840e+06   0.000000e+00   0.000000e+00   0.000000e+00
     1136000   1.135999e-05   1.699637e+01   3.899119e+01   3.832431e+00   1.487356e+06   1.798489e+06  -4.605303e+05   0.000000e+00   0.000000e+00   0.000000e+00   2.378840e+06   0.000000e+00   0.000000e+00   0.000000e+00
     1144000   1.143999e-05   1.711536e+01   3.913507e+01   3.795588e+00   1.487356e+06   1.798489e+06  -4.605303e+05   0.000000e+00   0.000000e+00   0.000000e+00   2.378840e+06   0.000000e+00   0.000000e+00   0.000000e+00
     1152000   1.151999e-05   1.723434e+01   3.927895e+01   3.758746e+00   1.487356e+06   1.798489e+06  -4.605303e+05   0.000000e+00   0.000000e+00   0.000000e+00   2.378840e+06   0.000000e+00   0.000000e+00   0.000000e+00
     1160000   1.159999e-05   1.735333e+01   3.942283e+01   3.721903e+00   1.487356e+06   1.798489e+06  -4.605303e+05   0.000000e+00   0.000000e+00   0.000000e+00   2.378840e+06   0.000000e+00   0.000000e+00   0.000000e+00
     1168000   1.167999e-05   1.747232e+01   3.956671e+01   3.685061e+00   1.487356e+06   1.798489e+06  -4.605303e+05   0.000000e+00   0.000000e+00   0.000000e+00   2.378840e+06   0.000000e+00   0.000000e+00   0.000000e+00
     1176000   1.175999e-05   1.759131e+01   3.971059e+01   3.648218e+00   1.487356e+06   1.798489e+06  -4.605303e+05   0.000000e+00   0.000000e+00   0.000000e+00   2.378840e+06   0.000000e+00   0.000000e+00   0.000000e+00
     1184000   1.183999e-05   1.771030e+01   3.985447e+01   3.611376e+00   1.487356e+06   1.798489e+06  -4.605303e+05   0.000000e+00   0.000000e+00   0.000000e+00   2.378840e+06   0.000000e+00   0.000000e+00   0.000000e+00
     1192000   1.191999e-05   1.782929e+01   3.999835e+01   3.574534e+00   1.487356e+06   1.798489e+06  -4.605303e+05   0.000000e+00   0.000000e+00   0.000000e+00   2.378840e+06   0.000000e+00   0.000000e+00   0.000000e+00
     1200000   1.199999e-05   1.794828e+01   4.014223e+01   3.537691e+00   1.487356e+06   1.798489e+06  -4.605303e+05   0.000000e+00   0.000000e+00   0.000000e+00   2.378840e+06   0.000000e+00   0.000000e+00   0.000000e+00
     1208000   1.207999e-05   1.806726e+01   4.028610e+01   3.500849e+00   1.487356e+06   1.798489e+06  -4.605303e+05   0.000000e+00   0.000000e+00   0.000000e+00   2.378840e+06   0.000000e+00   0.000000e+00   0.000000e+00
     1216000   1.215999e-05   1.818625e+01   4.042998e+01   3.464006e+00   1.487356e+06   1.798489e+06  -4.605303e+05   0.000000e+00   0.000000e+00   0.000000e+00   2.378840e+06   0.000000e+00   0.000000e+00   0.000000e+00
     1224000   1.223999e-05   1.830524e+01   4.057386e+01   3.427164e+00   1.487356e+06   1.798489e+06  -4.605303e+05   0.000000e+00   0.000000e+00   0.000000e+00   2.378840e+06   0.000000e+00   0.000000e+00   0.000000e+00
     1232000   1.231999e-05   1.842423e+01   4.071774e+01   3.390322e+00   1.487356e+06   1.798489e+06  -4.605303e+05   0.000000e+00   0.000000e+00   0.000000e+00   2.378840e+06   0.000000e+00   0.000000e+00   0.000000e+00
     1240000   1.239999e-05   1.854322e+01   4.086162e+01   3.353479e+00   1.487356e+06   1.798489e+06  -4.605303e+05   0.000000e+00   0.000000e+00   0.000000e+00   2.378840e+06   0.000000e+00   0.000000e+00   0.000000e+00
     1248000   1.247999e-05   1.866221e+01   4.100550e+01   3.316637e+00   1.487356e+06   1.798489e+06  -4.605303e+05   0.000000e+00   0.000000e+00   0.000000e+00   2.378840e+06   0.000000e+00   0.000000e+00   0.000000e+00
     1256000   1.255999e-05   1.878120e+01   4.114938e+01   3.279794e+00   1.487356e+06   1.798489e+06  -4.605303e+05   0.000000e+00   0.000000e+00   0.000000e+00   2.378840e+06   0.000000e+00   0.000000e+00   0.000000e+00
     1264000   1.263999e-05   1.890018e+01   4.129326e+01   3.242952e+00   1.487356e+06   1.798489e+06  -4.605303e+05   0.000000e+00   0.000000e+00   0.000000e+00   2.378840e+06   0.000000e+00   0.000000e+00   0.000000e+00
     1272000   1.271999e-05   1.901917e+01   4.143714e+01   3.206109e+00   1.487356e+06   1.798489e+06  -4.605303e+05   0.000000e+00   0.000000e+00   0.000000e+00   2.378840e+06   0.000000e+00   0.000000e+00   0.000000e+00
     1280000   1.279999e-05   1.913816e+01   4.158102e+01   3.169267e+00   1.487356e+06   1.798489e+06  -4.605303e+05   0.000000e+00   0.000000e+00   0.000000e+00   2.378840e+06   0.000000e+00   0.000000e+00   0.000000e+00
     1288000   1.287999e-05   1.925715e+01   4.172490e+01   3.132425e+00   1.487356e+06   1.798489e+06  -4.605303e+05   0.000000e+00   0.000000e+00   0.000000e+00   2.378840e+06   0.000000e+00   0.000000e+00   0.000000e+00
     1296000   1.295999e-05   1.937614e+01   4.186877e+01   3.095582e+00   1.487356e+06   1.798489e+06  -4.605303e+05   0.000000e+00   0.000000e+00   0.000000e+00   2.378840e+06   0.000000e+00   0.000000e+00   0.000000e+00
     1304000   1.303999e-05   1.949513e+01   4.201265e+01   3.058740e+00   1.487356e+06   1.798489e+06  -4.605303e+05   0.000000e+00   0.000000e+00   0.000000e+00   2.378840e+06   0.000000e+00   0.000000e+00   0.000000e+00
     1312000   1.311999e-05   1.961411e+01   4.215653e+01   3.021897e+00   1.487356e+06   1.798489e+06  -4.605303e+05   0.000000e+00   0.000000e+00   0.000000e+00   2.378840e+06   0.000000e+00   0.000000e+00   0.000000e+00
     1320000   1.319999e-05   1.973310e+01   4.230041e+01   2.985055e+00   1.487356e+06   1.798489e+06  -4.605303e+05   0.000000e+00   0.000000e+00   0.000000e+00   2.378840e+06   0.000000e+00   0.000000e+00   0.000000e+00
     1328000   1.327999e-05   1.985209e+01   4.244429e+01   2.948212e+00   1.487356e+06   1.798489e+06  -4.605303e+05   0.000000e+00   0.000000e+00   0.000000e+00   2.378840e+06   0.000000e+00   0.000000e+00   0.000000e+00
     1336000   1.335999e-05   1.997108e+01   4.258817e+01   2.911370e+00   1.487356e+06   1.798489e+06  -4.605303e+05   0.000000e+00   0.000000e+00   0.000000e+00   2.378840e+06   0.000000e+00   0.000000e+00   0.000000e+00
     1344000   1.343999e-05   2.009007e+01   4.273205e+01   2.874528e+00   1.487356e+06   1.798489e+06  -4.605303e+05   0.000000e+00   0.000000e+00   0.000000e+00   2.378840e+06   0.000000e+00   0.000000e+00   0.000000e+00
     1352000   1.351999e-05   2.020906e+01   4.287593e+01   2.837685e+00   1.487356e+06   1.798489e+06  -4.605303e+05   0.000000e+00   0.000000e+00   0.000000e+00   2.378840e+06   0.000000e+00   0.000000e+00   0.000000e+00
     1360000   1.359999e-05   2.032805e+01   4.301981e+01   2.800843e+00   1.487356e+06   1.798489e+06  -4.605303e+05   0.000000e+00   0.000000e+00   0.000000e+00   2.378840e+06   0.000000e+00   0.000000e+00   0.000000e+00
     1368000   1.367999e-05   2.044703e+01   4.316369e+01   2.764000e+00   1.487356e+06   1.798489e+06  -4.605303e+05   0.000000e+00   0.000000e+00   0.000000e+00   2.378840e+06   0.000000e+00   0.000000e+00   0.000000e+00
     1376000   1.375999e-05   2.056602e+01   4.330757e+01   2.727158e+00   1.487356e+06   1.798489e+06  -4.605303e+05   0.000000e+00   0.000000e+00   0.000000e+00   2.378840e+06   0.000000e+00   0.000000e+00   0.000000e+00
     1384000   1.383999e-05   2.068501e+01   4.345144e+01   2.690315e+00   1.487356e+06   1.798489e+06  -4.605303e+05   0.000000e+00   0.000000e+00   0.000000e+00   2.378840e+06   0.000000e+00   0.000000e+00   0.000000e+00
     1392000   1.391999e-05   2.080400e+01   4.359532e+01   2.653473e+00   1.487356e+06   1.798489e+06  -4.605303e+05   0.000000e+00   0.000000e+00   0.000000e+00   2.378840e+06   0.000000e+00   0.000000e+00   0.000000e+00
     1400000   1.399999e-05   2.092299e+01   4.373920e+01   2.616631e+00   1.487356e+06   1.798489e+06  -4.605303e+05   0.000000e+00   0.000000e+00   0.000000e+00   2.378840e+06   0.000000e+00   0.000000e+00   0.000000e+00
     1408000   1.407999e-05   2.104198e+01   4.388308e+01   2.579788e+00   1.487356e+06   1.798489e+06  -4.605303e+05   0.000000e+00   0.000000e+00   0.000000e+00   2.378840e+06   0.000000e+00   0.000000e+00   0.000000e+00
     1416000   1.415999e-05   2.116097e+01   4.402696e+01   2.542946e+00   1.487356e+06   1.798489e+06  -4.605303e+05   0.000000e+00   0.000000e+00   0.000000e+00   2.378840e+06   0.000000e+00   0.000000e+00   0.000000e+00
     1424000   1.423999e-05   2.127995e+01   4.417084e+01   2.506103e+00   1.487356e+06   1.798489e+06  -4.605303e+05   0.000000e+00   0.000000e+00   0.000000e+00   2.378840e+06   0.000000e+00   0.000000e+00   0.000000e+00
     1432000   1.431999e-05   2.139894e+01   4.431472e+01   2.469261e+00   1.487356e+06   1.798489e+06  -4.605303e+05   0.000000e+00   0.000000e+00   0.000000e+00   2.378840e+06   0.000000e+00   0.000000e+00   0.000000e+00
     1440000   1.439999e-05   2.151793e+01   4.445860e+01   2.432418e+00   1.487356e+06   1.798489e+06  -4.605303e+05   0.000000e+00   0.000000e+00   0.000000e+00   2.378840e+06   0.000000e+00   0.000000e+00   0.000000e+00
     1448000   1.447999e-05   2.163692e+01   4.460248e+01   2.395576e+00   1.487356e+06   1.798489e+06  -4.605303e+05   0.000000e+00   0.000000e+00   0.000000e+00   2.378840e+06   0.000000e+00   0.000000e+00   0.000000e+00
     1456000   1.455999e-05   2.175591e+01   4.474636e+01   2.358734e+00   1.487356e+06   1.798489e+06  -4.605303e+05   0.000000e+00   0.000000e+00   0.000000e+00   2.378840e+06   0.000000e+00   0.000000e+00   0.000000e+00
     1464000   1.463999e-05   2.187490e+01   4.489024e+01   2.321891e+00   1.487356e+06   1.798489e+06  -4.605303e+05   0.000000e+00   0.000000e+00   0.000000e+00   2.378840e+06   0.000000e+00   0.000000e+00   0.000000e+00
     1472000   1.471999e-05   2.199388e+01   4.503411e+01   2.285049e+00   1.487356e+06   1.798489e+06  -4.605303e+05   0.000000e+00   0.000000e+00   0.000000e+00   2.378840e+06   0.000000e+00   0.000000e+00   0.000000e+00
     1480000   1.479999e-05   2.211287e+01   4.517799e+01   2.248206e+00   1.487356e+06   1.798489e+06  -4.605303e+05   0.000000e+00   0.000000e+00   0.000000e+00   2.378840e+06   0.000000e+00   0.000000e+00   0.000000e+00
     1488000   1.487999e-05   2.223186e+01   4.532187e+01   2.211364e+00   1.487356e+06   1.798489e+06  -4.605303e+05   0.000000e+00   0.000000e+00   0.000000e+00   2.378840e+06   0.000000e+00   0.000000e+00   0.000000e+00
     1496000   1.495999e-05   2.235085e+01   4.546575e+01   2.174521e+00   1.487356e+06   1.798489e+06  -4.605303e+05   0.000000e+00   0.000000e+00   0.000000e+00   2.378840e+06   0.000000e+00   0.000000e+00   0.000000e+00
     1504000   1.503999e-05   2.246984e+01   4.560963e+01   2.137679e+00   1.487356e+06   1.798489e+06  -4.605303e+05   0.000000e+00   0.000000e+00   0.000000e+00   2.378840e+06   0.000000e+00   0.000000e+00   0.000000e+00
     1512000   1.511999e-05   2.258883e+01   4.575351e+01   2.100837e+00   1.487356e+06   1.798489e+06  -4.605303e+05   0.000000e+00   0.000000e+00   0.000000e+00   2.378840e+06   0.000000e+00   0.000000e+00   0.000000e+00
     1520000   1.519999e-05   2.270782e+01   4.589739e+01   2.063994e+00   1.487356e+06   1.798489e+06  -4.605303e+05   0.000000e+00   0.000000e+00   0.000000e+00   2.378840e+06   0.000000e+00   0.000000e+00   0.000000e+00
     1528000   1.527999e-05   2.282680e+01   4.604127e+01   2.027152e+00   1.487356e+06   1.798489e+06  -4.605303e+05   0.000000e+00   0.000000e+00   0.000000e+00   2.378840e+06   0.000000e+00   0.000000e+00   0.000000e+00
     1536000   1.535999e-05   2.294579e+01   4.618515e+01   1.990309e+00   1.487356e+06   1.798489e+06  -4.605303e+05   0.000000e+00   0.000000e+00   0.000000e+00   2.378840e+06   0.000000e+00   0.000000e+00   0.000000e+00
     1544000   1.543999e-05   2.306478e+01   4.632903e+01   1.953467e+00   1.487356e+06   1.798489e+06  -4.605303e+05   0.000000e+00   0.000000e+00   0.000000e+00   2.378840e+06   0.000000e+00   0.000000e+00   0.000000e+00
     1552000   1.551999e-05   2.318377e+01   4.647291e+01   1.916625e+00   1.487356e+06   1.798489e+06  -4.605303e+05   0.000000e+00   0.000000e+00   0.000000e+00   2.378840e+06   0.000000e+00   0.000000e+00   0.000000e+00
     1560000   1.559999e-05   2.330276e+01   4.661678e+01   1.879782e+00   1.487356e+06   1.798489e+06  -4.605303e+05   0.000000e+00   0.000000e+00   0.000000e+00   2.378840e+06   0.000000e+00   0.000000e+00   0.000000e+00
     1568000   1.567999e-05   2.342175e+01   4.676066e+01   1.842940e+00   1.487356e+06   1.798489e+06  -4.605303e+05   0.000000e+00   0.000000e+00   0.000000e+00   2.378840e+06   0.000000e+00   0.000000e+00   0.000000e+00
     1576000   1.575999e-05   2.354074e+01   4.690454e+01   1.806097e+00   1.487356e+06   1.798489e+06  -4.605303e+05   0.000000e+00   0.000000e+00   0.000000e+00   2.378840e+06   0.000000e+00   0.000000e+00   0.000000e+00
     1584000   1.583999e-05   2.365972e+01   4.704842e+01   1.769255e+00   1.487356e+06   1.798489e+06  -4.605303e+05   0.000000e+00   0.000000e+00   0.000000e+00   2.378840e+06   0.000000e+00   0.000000e+00   0.000000e+00
     1592000   1.591999e-05   2.377871e+01   4.719230e+01   1.732412e+00   1.487356e+06   1.798489e+06  -4.605303e+05   0.000000e+00   0.000000e+00   0.000000e+00   2.378840e+06   0.000000e+00   0.000000e+00   0.000000e+00
     1600000   1.599999e-05   2.389770e+01   4.733618e+01   1.695570e+00   1.487356e+06   1.798489e+06  -4.605303e+05   0.000000e+00   0.000000e+00   0.000000e+00   2.378840e+06   0.000000e+00   0.000000e+00   0.000000e+00
     1608000   1.607999e-05   2.401669e+01   4.748006e+01   1.658728e+00   1.487356e+06   1.798489e+06  -4.605303e+05   0.000000e+00   0.000000e+00   0.000000e+00   2.378840e+06   0.000000e+00   0.000000e+00   0.000000e+00
     1616000   1.615999e-05   2.413568e+01   4.762394e+01   1.621885e+00   1.487356e+06   1.798489e+06  -4.605303e+05   0.000000e+00   0.000000e+00   0.000000e+00   2.378840e+06   0.000000e+00   0.000000e+00   0.000000e+00
     1624000   1.623999e-05   2.425467e+01   4.776782e+01   1.585043e+00   1.487356e+06   1.798489e+06  -4.605303e+05   0.000000e+00   0.000000e+00   0.000000e+00   2.378840e+06   0.000000e+00   0.000000e+00   0.000000e+00
     1632000   1.631999e-05   2.437365e+01   4.791170e+01   1.548200e+00   1.487356e+06   1.798489e+06  -4.605303e+05   0.000000e+00   0.000000e+00   0.000000e+00   2.378840e+06   0.000000e+00   0.000000e+00   0.000000e+00
     1640000   1.639999e-05   2.449264e+01   4.805558e+01   1.511358e+00   1.487356e+06   1.798489e+06  -4.605303e+05   0.000000e+00   0.000000e+00   0.000000e+00   2.378840e+06   0.000000e+00   0.000000e+00   0.000000e+00
     1648000   1.647999e-05   2.461163e+01   4.819945e+01   1.474515e+00   1.487356e+06   1.798489e+06  -4.605303e+05   0.000000e+00   0.000000e+00   0.000000e+00   2.378840e+06   0.000000e+00   0.000000e+00   0.000000e+00
     1656000   1.655999e-05   2.473062e+01   4.834333e+01   1.437673e+00   1.487356e+06   1.798489e+06  -4.605303e+05   0.000000e+00   0.000000e+00   0.000000e+00   2.378840e+06   0.000000e+00   0.000000e+00   0.000000e+00
     1664000   1.663999e-05   2.484961e+01   4.848721e+01   1.400831e+00   1.487356e+06   1.798489e+06  -4.605303e+05   0.000000e+00   0.000000e+00   0.000000e+00   2.378840e+06   0.000000e+00   0.000000e+00   0.000000e+00
     1672000   1.671999e-05   2.496860e+01   4.863109e+01   1.363988e+00   1.487356e+06   1.798489e+06  -4.605303e+05   0.000000e+00   0.000000e+00   0.000000e+00   2.378840e+06   0.000000e+00   0.000000e+00   0.000000e+00
     1680000   1.679999e-05   2.508759e+01   4.877497e+01   1.327146e+00   1.487356e+06   1.798489e+06  -4.605303e+05   0.000000e+00   0.000000e+00   0.000000e+00   2.378840e+06   0.000000e+00   0.000000e+00   0.000000e+00
     1688000   1.687999e-05   2.520657e+01   4.891885e+01   1.290303e+00   1.487356e+06   1.798489e+06  -4.605303e+05   0.000000e+00   0.000000e+00   0.000000e+00   2.378840e+06   0.000000e+00   0.000000e+00   0.000000e+00
     1696000   1.695999e-05   2.532556e+01   4.906273e+01   1.253461e+00   1.487356e+06   1.798489e+06  -4.605303e+05   0.000000e+00   0.000000e+00   0.000000e+00   2.378840e+06   0.000000e+00   0.000000e+00   0.000000e+00
     1704000   1.703999e-05   2.544455e+01   4.920661e+01   1.216618e+00   1.487356e+06   1.798489e+06  -4.605303e+05   0.000000e+00   0.000000e+00   0.000000e+00   2.378840e+06   0.000000e+00   0.000000e+00   0.000000e+00
     1712000   1.711999e-05   2.556354e+01   4.935049e+01   1.179776e+00   1.487356e+06   1.798489e+06  -4.605303e+05   0.000000e+00   0.000000e+00   0.000000e+00   2.378840e+06   0.000000e+00   0.000000e+00   0.000000e+00
     1720000   1.719999e-05   2.568253e+01   4.949437e+01   1.142934e+00   1.487356e+06   1.798489e+06  -4.605303e+05   0.000000e+00   0.000000e+00   0.000000e+00   2.378840e+06   0.000000e+00   0.000000e+00   0.000000e+00
     1728000   1.727999e-05   2.580152e+01   4.963825e+01   1.106091e+00   1.487356e+06   1.798489e+06  -4.605303e+05   0.000000e+00   0.000000e+00   0.000000e+00   2.378840e+06   0.000000e+00   0.000000e+00   0.000000e+00
     1736000   1.735999e-05   2.592051e+01   4.978212e+01   1.069249e+00   1.487356e+06   1.798489e+06  -4.605303e+05   0.000000e+00   0.000000e+00   0.000000e+00   2.378840e+06   0.000000e+00   0.000000e+00   0.000000e+00
     1744000   1.743999e-05   2.603949e+01   4.992600e+01   1.032406e+00   1.487356e+06   1.798489e+06  -4.605303e+05   0.000000e+00   0.000000e+00   0.000000e+00   2.378840e+06   0.000000e+00   0.000000e+00   0.000000e+00
