     timestep     time              x             y              z              vx             vy             vz             ax             ay             az         v_magnitude      ELoss        Electronic      Nuclear
           0   0.000000e+00   1.000000e-01   1.735228e+01   1.800081e+01   5.978691e+05   1.164458e+06   1.283341e+06   0.000000e+00   0.000000e+00   0.000000e+00   1.833133e+06   0.000000e+00   0.000000e+00   0.000000e+00
        8000   7.999000e-08   1.478295e-01   1.744544e+01   1.810348e+01   5.978691e+05   1.164458e+06   1.283341e+06   0.000000e+00   0.000000e+00   0.000000e+00   1.833133e+06   0.000000e+00   0.000000e+00   0.000000e+00
       16000   1.599900e-07   1.956591e-01   1.753860e+01   1.820614e+01   5.978691e+05   1.164458e+06   1.283341e+06   0.000000e+00   0.000000e+00   0.000000e+00   1.833133e+06   0.000000e+00   0.000000e+00   0.000000e+00
       24000   2.399900e-07   2.434886e-01   1.763175e+01   1.830881e+01   5.978691e+05   1.164458e+06   1.283341e+06   0.000000e+00   0.000000e+00   0.000000e+00   1.833133e+06   0.000000e+00   0.000000e+00   0.000000e+00
       32000   3.199900e-07   2.913181e-01   1.772491e+01   1.841148e+01   5.978691e+05   1.164458e+06   1.283341e+06   0.000000e+00   0.000000e+00   0.000000e+00   1.833133e+06   0.000000e+00   0.000000e+00   0.000000e+00
       40000   3.999900e-07   3.391476e-01   1.781807e+01   1.851415e+01   5.978691e+05   1.164458e+06   1.283341e+06   0.000000e+00   0.000000e+00   0.000000e+00   1.833133e+06   0.000000e+00   0.000000e+00   0.000000e+00
       48000   4.799900e-07   3.869772e-01   1.791122e+01   1.861681e+01   5.978691e+05   1.164458e+06   1.283341e+06   0.000000e+00   0.000000e+00   0.000000e+00   1.833133e+06   0.000000e+00   0.000000e+00   0.000000e+00
       56000   5.599900e-07   4.348067e-01   1.800438e+01   1.871948e+01   5.978691e+05   1.164458e+06   1.283341e+06   0.000000e+00   0.000000e+00   0.000000e+00   1.833133e+06   0.000000e+00   0.000000e+00   0.000000e+00
       64000   6.399900e-07   4.826362e-01   1.809754e+01   1.882215e+01   5.978691e+05   1.164458e+06   1.283341e+06   0.000000e+00   0.000000e+00   0.000000e+00   1.833133e+06   0.000000e+00   0.000000e+00   0.000000e+00
       72000   7.199900e-07   5.304657e-01   1.819069e+01   1.892482e+01   5.978691e+05   1.164458e+06   1.283341e+06   0.000000e+00   0.000000e+00   0.000000e+00   1.833133e+06   0.000000e+00   0.000000e+00   0.000000e+00
       80000   7.999900e-07   5.782953e-01   1.828385e+01   1.902748e+01   5.978691e+05   1.164458e+06   1.283341e+06   0.000000e+00   0.000000e+00   0.000000e+00   1.833133e+06   0.000000e+00   0.000000e+00   0.000000e+00
       88000   8.799900e-07   6.261248e-01   1.837701e+01   1.913015e+01   5.978691e+05   1.164458e+06   1.283341e+06   0.000000e+00   0.000000e+00   0.000000e+00   1.833133e+06   0.000000e+00   0.000000e+00   0.000000e+00
       96000   9.599900e-07   6.739543e-01   1.847016e+01   1.923282e+01   5.978691e+05   1.164458e+06   1.283341e+06   0.000000e+00   0.000000e+00   0.000000e+00   1.833133e+06   0.000000e+00   0.000000e+00   0.000000e+00
      104000   1.039990e-06   7.217838e-01   1.856332e+01   1.933549e+01   5.978691e+05   1.164458e+06   1.283341e+06   0.000000e+00   0.000000e+00   0.000000e+00   1.833133e+06   0.000000e+00   0.000000e+00   0.000000e+00
      112000   1.119990e-06   7.696134e-01   1.865648e+01   1.943815e+01   5.978691e+05   1.164458e+06   1.283341e+06   0.000000e+00   0.000000e+00   0.000000e+00   1.833133e+06   0.000000e+00   0.000000e+00   0.000000e+00
      120000   1.199990e-06   8.174429e-01   1.874963e+01   1.954082e+01   5.978690e+05   1.164458e+06   1.283341e+06  -3.206546e+06   1.246416e+07  -9.815701e+06   1.833133e+06   2.119351e-27   0.000000e+00   0.000000e+00
      128000   1.279990e-06   8.652724e-01   1.884279e+01   1.964349e+01   5.978682e+05   1.164462e+06   1.283339e+06  -3.199955e+07   1.265560e+08  -9.992534e+07   1.833133e+06   2.186484e-25   0.000000e+00   0.000000e+00
      136000   1.359990e-06   9.131017e-01   1.893595e+01   1.974615e+01   5.978643e+05   1.164477e+06   1.283327e+06  -4.625577e+07   1.855296e+08  -1.467983e+08   1.833133e+06   4.704542e-25   0.000000e+00   0.000000e+00
      144000   1.439990e-06   9.609307e-01   1.902911e+01   1.984882e+01   5.978604e+05   1.164493e+06   1.283314e+06  -6.089780e+07   2.483893e+08  -1.970205e+08   1.833133e+06   8.436670e-25   0.000000e+00   0.000000e+00
      152000   1.519990e-06   1.008759e+00   1.912227e+01   1.995148e+01   5.978579e+05   1.164503e+06   1.283306e+06  -1.288362e+07   5.331507e+07  -4.237727e+07   1.833133e+06   3.895666e-26   0.000000e+00   0.000000e+00
      160000   1.599990e-06   1.056588e+00   1.921543e+01   2.005415e+01   5.978582e+05   1.164502e+06   1.283307e+06  -4.576877e+01   3.793778e+01  -1.310317e+01   1.833133e+06   3.000353e-38   0.000000e+00   0.000000e+00
      168000   1.679990e-06   1.104417e+00   1.930859e+01   2.015681e+01   5.978582e+05   1.164502e+06   1.283307e+06  -5.818699e+01   2.860140e+01   1.154197e+00   1.833133e+06   3.403840e-38   0.000000e+00   0.000000e+00
      176000   1.759990e-06   1.152245e+00   1.940175e+01   2.025948e+01   5.978582e+05   1.164502e+06   1.283307e+06  -4.909221e+01   2.520407e+01   9.823108e-20   1.833133e+06   2.465207e-38   0.000000e+00   0.000000e+00
      184000   1.839990e-06   1.200074e+00   1.949491e+01   2.036214e+01   5.978582e+05   1.164502e+06   1.283307e+06  -5.609162e+01   2.879758e+01  -7.710344e-20   1.833133e+06   3.217700e-38   0.000000e+00   0.000000e+00
      192000   1.919990e-06   1.247903e+00   1.958807e+01   2.046481e+01   5.978582e+05   1.164502e+06   1.283307e+06  -7.930552e+01   4.071565e+01   1.220194e-19   1.833133e+06   6.431766e-38   0.000000e+00   0.000000e+00
      200000   1.999990e-06   1.295731e+00   1.968123e+01   2.056747e+01   5.978582e+05   1.164502e+06   1.283307e+06  -6.898509e+01   3.541712e+01   5.439913e-20   1.833133e+06   4.866628e-38   0.000000e+00   0.000000e+00
      208000   2.079990e-06   1.343560e+00   1.977439e+01   2.067014e+01   5.978582e+05   1.164502e+06   1.283307e+06  -5.675053e+01   2.913586e+01   3.299698e-20   1.833133e+06   3.294238e-38   0.000000e+00   0.000000e+00
      216000   2.159990e-06   1.391389e+00   1.986755e+01   2.077280e+01   5.978582e+05   1.164502e+06   1.283307e+06  -1.101285e+01   5.654023e+00   1.840559e-20   1.833133e+06   1.241018e-39   0.000000e+00   0.000000e+00
      224000   2.239990e-06   1.439217e+00   1.996071e+01   2.087546e+01   5.978582e+05   1.164502e+06   1.283307e+06  -4.537303e+01   2.329463e+01  -4.537019e-20   1.833133e+06   2.105832e-38   0.000000e+00   0.000000e+00
      232000   2.319990e-06   1.487046e+00   2.005387e+01   2.097813e+01   5.978582e+05   1.164502e+06   1.283307e+06  -1.858042e+01   9.539234e+00  -5.057541e-20   1.833133e+06   3.533217e-39   0.000000e+00   0.000000e+00
      240000   2.399990e-06   1.534875e+00   2.014703e+01   2.108079e+01   5.978582e+05   1.164502e+06   1.283307e+06  -7.640498e+01   3.922651e+01   8.657989e-20   1.833133e+06   5.970097e-38   0.000000e+00   0.000000e+00
      248000   2.479990e-06   1.582703e+00   2.024019e+01   2.118346e+01   5.978582e+05   1.164502e+06   1.283307e+06  -8.881572e+01   4.559822e+01   1.138897e-19   1.833133e+06   8.067126e-38   0.000000e+00   0.000000e+00
      256000   2.559990e-06   1.630532e+00   2.033335e+01   2.128612e+01   5.978582e+05   1.164502e+06   1.283307e+06  -7.757729e+01   3.982838e+01   2.935736e-19   1.833133e+06   6.154765e-38   0.000000e+00   0.000000e+00
      264000   2.639990e-06   1.678361e+00   2.042651e+01   2.138879e+01   5.978582e+05   1.164502e+06   1.283307e+06  -9.480585e+01   4.867356e+01   2.305771e-19   1.833133e+06   9.192021e-38   0.000000e+00   0.000000e+00
      272000   2.719990e-06   1.726189e+00   2.051967e+01   2.149145e+01   5.978582e+05   1.164502e+06   1.283307e+06  -3.886336e+01   1.995254e+01   5.700063e-20   1.833133e+06   1.545063e-38   0.000000e+00   0.000000e+00
      280000   2.799990e-06   1.774018e+00   2.061283e+01   2.159412e+01   5.978582e+05   1.164502e+06   1.283307e+06  -6.988734e+01   3.588034e+01   1.735380e-19   1.833133e+06   4.995625e-38   0.000000e+00   0.000000e+00
      288000   2.879990e-06   1.821847e+00   2.070599e+01   2.169678e+01   5.978582e+05   1.164502e+06   1.283307e+06  -4.967169e+01   2.550157e+01  -2.370216e-19   1.833133e+06   2.523746e-38   0.000000e+00   0.000000e+00
      296000   2.959990e-06   1.869675e+00   2.079915e+01   2.179945e+01   5.978582e+05   1.164502e+06   1.283307e+06  -5.421652e+01   2.783490e+01  -3.209748e-20   1.833133e+06   3.006478e-38   0.000000e+00   0.000000e+00
      304000   3.039990e-06   1.917504e+00   2.089231e+01   2.190211e+01   5.978582e+05   1.164502e+06   1.283307e+06  -9.443099e+01   4.848111e+01  -4.169176e-19   1.833133e+06   9.119236e-38   0.000000e+00   0.000000e+00
      312000   3.119990e-06   1.965332e+00   2.098547e+01   2.200477e+01   5.978582e+05   1.164502e+06   1.283307e+06  -9.479002e+01   4.866543e+01   2.586747e-19   1.833133e+06   9.189050e-38   0.000000e+00   0.000000e+00
      320000   3.199990e-06   2.013161e+00   2.107863e+01   2.210744e+01   5.978582e+05   1.164502e+06   1.283307e+06  -6.930523e+01   3.558148e+01  -4.431479e-20   1.833133e+06   4.912312e-38   0.000000e+00   0.000000e+00
      328000   3.279990e-06   2.060990e+00   2.117179e+01   2.221010e+01   5.978582e+05   1.164502e+06   1.283307e+06  -7.679683e+01   3.942769e+01  -1.630281e-19   1.833133e+06   6.032331e-38   0.000000e+00   0.000000e+00
      336000   3.359990e-06   2.108818e+00   2.126495e+01   2.231277e+01   5.978582e+05   1.164502e+06   1.283307e+06  -6.776601e+01   3.479124e+01   1.186942e-19   1.833133e+06   4.697434e-38   0.000000e+00   0.000000e+00
      344000   3.439990e-06   2.156647e+00   2.135811e+01   2.241543e+01   5.978582e+05   1.164502e+06   1.283307e+06  -5.114547e+01   2.625821e+01   1.361762e-19   1.833133e+06   2.675918e-38   0.000000e+00   0.000000e+00
      352000   3.519990e-06   2.204476e+00   2.145127e+01   2.251810e+01   5.978582e+05   1.164502e+06   1.283307e+06  -8.071108e+01   4.143727e+01   6.986451e-20   1.833133e+06   6.662712e-38   0.000000e+00   0.000000e+00
      360000   3.599990e-06   2.252304e+00   2.154443e+01   2.262076e+01   5.978582e+05   1.164502e+06   1.283307e+06  -8.626597e+01   4.428916e+01   1.761886e-19   1.833133e+06   7.611412e-38   0.000000e+00   0.000000e+00
      368000   3.679990e-06   2.300133e+00   2.163759e+01   2.272343e+01   5.978582e+05   1.164502e+06   1.283307e+06  -7.758914e+01   3.983446e+01   1.346948e-19   1.833133e+06   6.158148e-38   0.000000e+00   0.000000e+00
      376000   3.759990e-06   2.347962e+00   2.173075e+01   2.282609e+01   5.978582e+05   1.164502e+06   1.283307e+06  -8.570469e+01   4.400100e+01  -1.510827e-19   1.833133e+06   7.512686e-38   0.000000e+00   0.000000e+00
      384000   3.839990e-06   2.395790e+00   2.182391e+01   2.292876e+01   5.978582e+05   1.164502e+06   1.283307e+06  -1.013714e+02   5.204431e+01  -1.612414e-19   1.833133e+06   1.051007e-37   0.000000e+00   0.000000e+00
      392000   3.919990e-06   2.443619e+00   2.191707e+01   2.303142e+01   5.978582e+05   1.164502e+06   1.283307e+06  -8.076222e+01   4.146353e+01   4.285029e-20   1.833133e+06   6.671921e-38   0.000000e+00   0.000000e+00
      400000   3.999990e-06   2.491448e+00   2.201023e+01   2.313408e+01   5.978582e+05   1.164502e+06   1.283307e+06  -8.880473e+01   4.559257e+01  -1.953042e-19   1.833133e+06   8.065580e-38   0.000000e+00   0.000000e+00
      408000   4.079990e-06   2.539276e+00   2.210339e+01   2.323675e+01   5.978582e+05   1.164502e+06   1.283307e+06  -9.505144e+01   4.879965e+01   1.907511e-19   1.833133e+06   9.239818e-38   0.000000e+00   0.000000e+00
      416000   4.159990e-06   2.587105e+00   2.219655e+01   2.333941e+01   5.978582e+05   1.164502e+06   1.283307e+06  -1.078831e+02   5.538746e+01   2.837749e-20   1.833133e+06   1.190437e-37   0.000000e+00   0.000000e+00
      424000   4.239990e-06   2.634934e+00   2.228971e+01   2.344208e+01   5.978582e+05   1.164502e+06   1.283307e+06  -8.725683e+01   4.479788e+01  -1.073912e-21   1.833133e+06   7.787361e-38   0.000000e+00   0.000000e+00
      432000   4.319990e-06   2.682762e+00   2.238287e+01   2.354474e+01   5.978582e+05   1.164502e+06   1.283307e+06  -9.271391e+01   4.759956e+01   2.144943e-19   1.833133e+06   8.792649e-38   0.000000e+00   0.000000e+00
      440000   4.399990e-06   2.730591e+00   2.247603e+01   2.364741e+01   5.978582e+05   1.164502e+06   1.283307e+06  -1.161552e+02   5.963437e+01  -4.880686e-19   1.833133e+06   1.379845e-37   0.000000e+00   0.000000e+00
      448000   4.479990e-06   2.778420e+00   2.256919e+01   2.375007e+01   5.978582e+05   1.164502e+06   1.283307e+06  -1.228892e+02   6.309165e+01  -1.445597e-19   1.833133e+06   1.544534e-37   0.000000e+00   0.000000e+00
      456000   4.559990e-06   2.826248e+00   2.266235e+01   2.385274e+01   5.978582e+05   1.164502e+06   1.283307e+06  -9.357047e+01   4.803932e+01  -3.322349e-19   1.833133e+06   8.955792e-38   0.000000e+00   0.000000e+00
      464000   4.639990e-06   2.874077e+00   2.275551e+01   2.395540e+01   5.978582e+05   1.164502e+06   1.283307e+06  -1.235843e+02   6.344849e+01   1.615818e-19   1.833133e+06   1.562076e-37   0.000000e+00   0.000000e+00
      472000   4.719990e-06   2.921906e+00   2.284867e+01   2.405807e+01   5.978582e+05   1.164502e+06   1.283307e+06  -8.272998e+01   4.247378e+01  -1.673758e-19   1.833133e+06   7.000608e-38   0.000000e+00   0.000000e+00
      480000   4.799990e-06   2.969734e+00   2.294183e+01   2.416073e+01   5.978582e+05   1.164502e+06   1.283307e+06  -1.067429e+02   5.480209e+01   1.013902e-20   1.833133e+06   1.165333e-37   0.000000e+00   0.000000e+00
      488000   4.879990e-06   3.017563e+00   2.303499e+01   2.426339e+01   5.978582e+05   1.164502e+06   1.283307e+06  -1.130745e+02   5.805274e+01  -1.522481e-20   1.833133e+06   1.307785e-37   0.000000e+00   0.000000e+00
      496000   4.959990e-06   3.065392e+00   2.312815e+01   2.436606e+01   5.978582e+05   1.164502e+06   1.283307e+06  -9.766615e+01   5.014205e+01   2.006591e-19   1.833133e+06   9.756319e-38   0.000000e+00   0.000000e+00
      504000   5.039990e-06   3.113220e+00   2.322131e+01   2.446872e+01   5.978582e+05   1.164502e+06   1.283307e+06  -1.051147e+02   5.396616e+01  -6.568610e-20   1.833133e+06   1.130122e-37   0.000000e+00   0.000000e+00
      512000   5.119990e-06   3.161049e+00   2.331447e+01   2.457139e+01   5.978582e+05   1.164502e+06   1.283307e+06  -1.104672e+02   5.671412e+01   1.564949e-19   1.833133e+06   1.248132e-37   0.000000e+00   0.000000e+00
      520000   5.199990e-06   3.208878e+00   2.340763e+01   2.467405e+01   5.978582e+05   1.164502e+06   1.283307e+06  -9.788716e+01   5.025552e+01  -1.667613e-20   1.833133e+06   9.801867e-38   0.000000e+00   0.000000e+00
      528000   5.279990e-06   3.256706e+00   2.350079e+01   2.477672e+01   5.978582e+05   1.164502e+06   1.283307e+06  -1.189212e+02   6.105446e+01   2.128185e-20   1.833133e+06   1.446496e-37   0.000000e+00   0.000000e+00
      536000   5.359990e-06   3.304535e+00   2.359395e+01   2.487938e+01   5.978582e+05   1.164502e+06   1.283307e+06  -1.461008e+02   7.500852e+01   2.447005e-19   1.833133e+06   2.183199e-37   0.000000e+00   0.000000e+00
      544000   5.439990e-06   3.352364e+00   2.368712e+01   2.498205e+01   5.978582e+05   1.164502e+06   1.283307e+06  -1.643696e+02   8.438778e+01   2.258760e-19   1.833133e+06   2.763112e-37   0.000000e+00   0.000000e+00
      552000   5.519990e-06   3.400192e+00   2.378028e+01   2.508471e+01   5.978582e+05   1.164502e+06   1.283307e+06  -1.233658e+02   6.333629e+01   3.340495e-20   1.833133e+06   1.556501e-37   0.000000e+00   0.000000e+00
      560000   5.599990e-06   3.448021e+00   2.387344e+01   2.518738e+01   5.978582e+05   1.164502e+06   1.283307e+06  -1.268103e+02   6.510475e+01   5.903683e-20   1.833133e+06   1.644725e-37   0.000000e+00   0.000000e+00
      568000   5.679990e-06   3.495849e+00   2.396660e+01   2.529004e+01   5.978582e+05   1.164502e+06   1.283307e+06  -6.371825e+01   3.271311e+01  -9.285370e-20   1.833133e+06   4.153911e-38   0.000000e+00   0.000000e+00
      576000   5.759990e-06   3.543678e+00   2.405976e+01   2.539270e+01   5.978582e+05   1.164502e+06   1.283307e+06  -1.228833e+02   6.308859e+01   2.212248e-19   1.833133e+06   1.544564e-37   0.000000e+00   0.000000e+00
      584000   5.839990e-06   3.591507e+00   2.415292e+01   2.549537e+01   5.978582e+05   1.164502e+06   1.283307e+06  -1.554303e+02   7.979830e+01   7.120310e-20   1.833133e+06   2.470857e-37   0.000000e+00   0.000000e+00
      592000   5.919990e-06   3.639335e+00   2.424608e+01   2.559803e+01   5.978582e+05   1.164502e+06   1.283307e+06  -1.217906e+02   6.252759e+01  -2.634242e-20   1.833133e+06   1.517150e-37   0.000000e+00   0.000000e+00
      600000   5.999990e-06   3.687164e+00   2.433924e+01   2.570070e+01   5.978582e+05   1.164502e+06   1.283307e+06  -1.306366e+02   6.706918e+01  -1.089480e-19   1.833133e+06   1.745644e-37   0.000000e+00   0.000000e+00
      608000   6.079990e-06   3.734993e+00   2.443240e+01   2.580336e+01   5.978582e+05   1.164502e+06   1.283307e+06  -1.314277e+02   6.747531e+01  -3.253506e-19   1.833133e+06   1.766850e-37   0.000000e+00   0.000000e+00
      616000   6.159990e-06   3.782821e+00   2.452556e+01   2.590603e+01   5.978582e+05   1.164502e+06   1.283307e+06  -1.357931e+02   6.971653e+01   1.596779e-19   1.833133e+06   1.886209e-37   0.000000e+00   0.000000e+00
      624000   6.239990e-06   3.830650e+00   2.461872e+01   2.600869e+01   5.978582e+05   1.164502e+06   1.283307e+06  -1.247441e+02   6.404395e+01   9.311698e-20   1.833133e+06   1.591580e-37   0.000000e+00   0.000000e+00
      632000   6.319990e-06   3.878479e+00   2.471188e+01   2.611136e+01   5.978582e+05   1.164502e+06   1.283307e+06  -1.289907e+02   6.622417e+01   8.517736e-20   1.833133e+06   1.701914e-37   0.000000e+00   0.000000e+00
      640000   6.399990e-06   3.926307e+00   2.480504e+01   2.621402e+01   5.978582e+05   1.164502e+06   1.283307e+06  -1.417770e+02   7.278867e+01   7.875117e-21   1.833133e+06   2.056188e-37   0.000000e+00   0.000000e+00
      648000   6.479990e-06   3.974136e+00   2.489820e+01   2.631669e+01   5.978582e+05   1.164502e+06   1.283307e+06  -1.497892e+02   7.690218e+01   5.751093e-20   1.833133e+06   2.294785e-37   0.000000e+00   0.000000e+00
      656000   6.559990e-06   4.021965e+00   2.499136e+01   2.641935e+01   5.978582e+05   1.164502e+06   1.283307e+06  -1.427805e+02   7.330386e+01   2.075147e-19   1.833133e+06   2.085189e-37   0.000000e+00   0.000000e+00
      664000   6.639990e-06   4.069793e+00   2.508452e+01   2.652201e+01   5.978582e+05   1.164502e+06   1.283307e+06  -1.065017e+02   5.467822e+01  -2.280894e-19   1.833133e+06   1.160343e-37   0.000000e+00   0.000000e+00
      672000   6.719990e-06   4.117622e+00   2.517768e+01   2.662468e+01   5.978582e+05   1.164502e+06   1.283307e+06  -1.307322e+02   6.711825e+01  -1.881564e-19   1.833133e+06   1.748266e-37   0.000000e+00   0.000000e+00
      680000   6.799990e-06   4.165451e+00   2.527084e+01   2.672734e+01   5.978582e+05   1.164502e+06   1.283307e+06  -1.548757e+02   7.951359e+01   3.743914e-19   1.833133e+06   2.453275e-37   0.000000e+00   0.000000e+00
      688000   6.879990e-06   4.213279e+00   2.536400e+01   2.683001e+01   5.978582e+05   1.164502e+06   1.283307e+06  -1.333453e+02   6.845981e+01   1.141044e-19   1.833133e+06   1.818748e-37   0.000000e+00   0.000000e+00
      696000   6.959990e-06   4.261108e+00   2.545716e+01   2.693267e+01   5.978582e+05   1.164502e+06   1.283307e+06  -1.714788e+02   8.803767e+01   1.736589e-19   1.833133e+06   3.007340e-37   0.000000e+00   0.000000e+00
      704000   7.039990e-06   4.308937e+00   2.555032e+01   2.703534e+01   5.978582e+05   1.164502e+06   1.283307e+06  -1.496858e+02   7.684904e+01  -1.924397e-19   1.833133e+06   2.291512e-37   0.000000e+00   0.000000e+00
      712000   7.119990e-06   4.356765e+00   2.564348e+01   2.713800e+01   5.978582e+05   1.164502e+06   1.283307e+06  -1.538259e+02   7.897461e+01  -5.717897e-20   1.833133e+06   2.420163e-37   0.000000e+00   0.000000e+00
      720000   7.199990e-06   4.404594e+00   2.573664e+01   2.724067e+01   5.978582e+05   1.164502e+06   1.283307e+06  -1.278717e+02   6.564966e+01  -1.705437e-19   1.833133e+06   1.672236e-37   0.000000e+00   0.000000e+00
      728000   7.279990e-06   4.452423e+00   2.582980e+01   2.734333e+01   5.978582e+05   1.164502e+06   1.283307e+06  -1.397573e+02   7.175175e+01   1.133687e-19   1.833133e+06   1.997773e-37   0.000000e+00   0.000000e+00
      736000   7.359990e-06   4.500251e+00   2.592296e+01   2.744600e+01   5.978582e+05   1.164502e+06   1.283307e+06  -1.456157e+02   7.475944e+01  -2.021491e-19   1.833133e+06   2.168712e-37   0.000000e+00   0.000000e+00
      744000   7.439990e-06   4.548080e+00   2.601612e+01   2.754866e+01   5.978582e+05   1.164502e+06   1.283307e+06  -1.477627e+02   7.586174e+01  -7.976915e-20   1.833133e+06   2.233261e-37   0.000000e+00   0.000000e+00
      752000   7.519990e-06   4.595909e+00   2.610928e+01   2.765132e+01   5.978582e+05   1.164502e+06   1.283307e+06  -1.777967e+02   9.128130e+01  -4.217344e-20   1.833133e+06   3.233256e-37   0.000000e+00   0.000000e+00
      760000   7.599990e-06   4.643737e+00   2.620244e+01   2.775399e+01   5.978582e+05   1.164502e+06   1.283307e+06  -1.487333e+02   7.636005e+01  -9.071908e-20   1.833133e+06   2.262134e-37   0.000000e+00   0.000000e+00
      768000   7.679990e-06   4.691566e+00   2.629560e+01   2.785665e+01   5.978582e+05   1.164502e+06   1.283307e+06  -1.267096e+02   6.505303e+01   2.557446e-19   1.833133e+06   1.642272e-37   0.000000e+00   0.000000e+00
      776000   7.759990e-06   4.739395e+00   2.638876e+01   2.795932e+01   5.978582e+05   1.164502e+06   1.283307e+06  -1.963002e+02   1.007810e+02  -3.336783e-19   1.833133e+06   3.940849e-37   0.000000e+00   0.000000e+00
      784000   7.839990e-06   4.787223e+00   2.648192e+01   2.806198e+01   5.978582e+05   1.164502e+06   1.283307e+06  -1.600354e+02   8.216259e+01  -1.966545e-19   1.833133e+06   2.619619e-37   0.000000e+00   0.000000e+00
      792000   7.919990e-06   4.835052e+00   2.657508e+01   2.816465e+01   5.978582e+05   1.164502e+06   1.283307e+06  -2.059469e+02   1.057337e+02   2.373071e-19   1.833133e+06   4.337744e-37   0.000000e+00   0.000000e+00
      800000   7.999990e-06   4.882880e+00   2.666824e+01   2.826731e+01   5.978582e+05   1.164502e+06   1.283307e+06  -1.348738e+02   6.924454e+01  -2.656393e-20   1.833133e+06   1.860756e-37   0.000000e+00   0.000000e+00
      808000   8.079990e-06   4.930709e+00   2.676140e+01   2.836998e+01   5.978582e+05   1.164502e+06   1.283307e+06  -1.563107e+02   8.025033e+01  -2.268148e-19   1.833133e+06   2.498806e-37   0.000000e+00   0.000000e+00
      816000   8.159990e-06   4.978538e+00   2.685456e+01   2.847264e+01   5.978582e+05   1.164502e+06   1.283307e+06  -1.239260e+02   6.362391e+01  -3.004305e-20   1.833133e+06   1.571023e-37   0.000000e+00   0.000000e+00
      824000   8.239990e-06   5.026366e+00   2.694772e+01   2.857531e+01   5.978582e+05   1.164502e+06   1.283307e+06  -1.495368e+02   7.677257e+01  -1.205737e-19   1.833133e+06   2.287100e-37   0.000000e+00   0.000000e+00
      832000   8.319990e-06   5.074195e+00   2.704088e+01   2.867797e+01   5.978582e+05   1.164502e+06   1.283307e+06  -2.037951e+02   1.046289e+02  -9.477190e-20   1.833133e+06   4.247688e-37   0.000000e+00   0.000000e+00
      840000   8.399990e-06   5.122024e+00   2.713404e+01   2.878063e+01   5.978582e+05   1.164502e+06   1.283307e+06  -1.446948e+02   7.428666e+01  -4.501775e-20   1.833133e+06   2.141485e-37   0.000000e+00   0.000000e+00
      848000   8.479990e-06   5.169852e+00   2.722720e+01   2.888330e+01   5.978582e+05   1.164502e+06   1.283307e+06  -1.914003e+02   9.826542e+01   2.694099e-19   1.833133e+06   3.746502e-37   0.000000e+00   0.000000e+00
      856000   8.559990e-06   5.217681e+00   2.732036e+01   2.898596e+01   5.978582e+05   1.164502e+06   1.283307e+06  -1.392127e+02   7.147213e+01  -1.166157e-19   1.833133e+06   1.982268e-37   0.000000e+00   0.000000e+00
      864000   8.639990e-06   5.265510e+00   2.741352e+01   2.908863e+01   5.978582e+05   1.164502e+06   1.283307e+06  -1.616423e+02   8.298759e+01  -2.016175e-19   1.833133e+06   2.672468e-37   0.000000e+00   0.000000e+00
      872000   8.719990e-06   5.313338e+00   2.750668e+01   2.919129e+01   5.978582e+05   1.164502e+06   1.283307e+06  -1.288349e+02   6.614415e+01  -5.196870e-20   1.833133e+06   1.697730e-37   0.000000e+00   0.000000e+00
      880000   8.799990e-06   5.361167e+00   2.759984e+01   2.929396e+01   5.978582e+05   1.164502e+06   1.283307e+06  -1.448307e+02   7.435645e+01  -8.030695e-20   1.833133e+06   2.145420e-37   0.000000e+00   0.000000e+00
      888000   8.879990e-06   5.408996e+00   2.769300e+01   2.939662e+01   5.978582e+05   1.164502e+06   1.283307e+06  -1.104551e+02   5.670794e+01   7.326673e-21   1.833133e+06   1.248009e-37   0.000000e+00   0.000000e+00
      896000   8.959990e-06   5.456824e+00   2.778616e+01   2.949929e+01   5.978582e+05   1.164502e+06   1.283307e+06  -1.211612e+02   6.220448e+01  -3.201993e-19   1.833133e+06   1.501580e-37   0.000000e+00   0.000000e+00
      904000   9.039990e-06   5.504653e+00   2.787932e+01   2.960195e+01   5.978582e+05   1.164502e+06   1.283307e+06  -1.424579e+02   7.313824e+01   3.988524e-19   1.833133e+06   2.075655e-37   0.000000e+00   0.000000e+00
      912000   9.119990e-06   5.552482e+00   2.797248e+01   2.970462e+01   5.978582e+05   1.164502e+06   1.283307e+06  -1.574555e+02   7.965116e+01   1.077036e+00   1.833133e+06   2.520699e-37   0.000000e+00   0.000000e+00
      920000   9.199990e-06   5.600310e+00   2.806564e+01   2.980728e+01   5.978582e+05   1.164502e+06   1.283307e+06  -1.418755e+02   7.413377e+01  -1.174683e+00   1.833133e+06   2.073700e-37   0.000000e+00   0.000000e+00
      928000   9.279990e-06   5.648139e+00   2.815880e+01   2.990994e+01   5.978582e+05   1.164502e+06   1.283307e+06  -1.547143e+02   7.769478e+01   1.575224e+00   1.833133e+06   2.426149e-37   0.000000e+00   0.000000e+00
      936000   9.359990e-06   5.695968e+00   2.825196e+01   3.001261e+01   5.978582e+05   1.164502e+06   1.283307e+06  -1.467938e+02   3.228758e+01   3.908882e+01   1.833133e+06   1.952275e-37   0.000000e+00   0.000000e+00
      944000   9.439990e-06   5.743796e+00   2.834512e+01   3.011527e+01   5.978582e+05   1.164502e+06   1.283307e+06  -1.444423e+02   7.401495e+01   1.289395e-01   1.833133e+06   2.132158e-37   0.000000e+00   0.000000e+00
      952000   9.519990e-06   5.791625e+00   2.843828e+01   3.021794e+01   5.978582e+05   1.164502e+06   1.283307e+06  -1.471572e+02   7.555088e+01   2.316515e-19   1.833133e+06   2.214940e-37   0.000000e+00   0.000000e+00
      960000   9.599990e-06   5.839454e+00   2.853144e+01   3.032060e+01   5.978582e+05   1.164502e+06   1.283307e+06  -1.342169e+02   6.890729e+01   8.630958e-20   1.833133e+06   1.842550e-37   0.000000e+00   0.000000e+00
      968000   9.679990e-06   5.887282e+00   2.862460e+01   3.042327e+01   5.978582e+05   1.164502e+06   1.283307e+06  -1.370150e+02   7.034383e+01  -9.703242e-20   1.833133e+06   1.919940e-37   0.000000e+00   0.000000e+00
      976000   9.759990e-06   5.935111e+00   2.871776e+01   3.052593e+01   5.978582e+05   1.164502e+06   1.283307e+06  -1.129685e+02   5.799829e+01  -5.360115e-20   1.833133e+06   1.305247e-37   0.000000e+00   0.000000e+00
      984000   9.839990e-06   5.982940e+00   2.881092e+01   3.062860e+01   5.978582e+05   1.164502e+06   1.283307e+06  -1.094461e+02   5.618988e+01   9.215972e-20   1.833133e+06   1.225199e-37   0.000000e+00   0.000000e+00
      992000   9.919990e-06   6.030768e+00   2.890408e+01   3.073126e+01   5.978582e+05   1.164502e+06   1.283307e+06  -1.361615e+02   6.990564e+01   9.270480e-20   1.833133e+06   1.896356e-37   0.000000e+00   0.000000e+00
     1000000   9.999990e-06   6.078597e+00   2.899724e+01   3.083393e+01   5.978582e+05   1.164502e+06   1.283307e+06  -9.971734e+01   5.119513e+01  -2.789410e-19   1.833133e+06   1.017204e-37   0.000000e+00   0.000000e+00
     1008000   1.007999e-05   6.126426e+00   2.909040e+01   3.093659e+01   5.978582e+05   1.164502e+06   1.283307e+06  -1.363881e+02   7.002199e+01  -1.697070e-19   1.833133e+06   1.902553e-37   0.000000e+00   0.000000e+00
     1016000   1.015999e-05   6.174254e+00   2.918356e+01   3.103925e+01   5.978582e+05   1.164502e+06   1.283307e+06  -1.092115e+02   5.606947e+01  -3.203496e-20   1.833133e+06   1.220000e-37   0.000000e+00   0.000000e+00
     1024000   1.023999e-05   6.222083e+00   2.927672e+01   3.114192e+01   5.978582e+05   1.164502e+06   1.283307e+06  -1.611748e+02   8.274754e+01  -6.026452e-19   1.833133e+06   2.656560e-37   0.000000e+00   0.000000e+00
     1032000   1.031999e-05   6.269912e+00   2.936988e+01   3.124458e+01   5.978582e+05   1.164502e+06   1.283307e+06  -9.014767e+01   4.628204e+01   1.039738e-19   1.833133e+06   8.312923e-38   0.000000e+00   0.000000e+00
     1040000   1.039999e-05   6.317740e+00   2.946304e+01   3.134725e+01   5.978582e+05   1.164502e+06   1.283307e+06  -1.084413e+02   5.567403e+01   1.040720e-19   1.833133e+06   1.202896e-37   0.000000e+00   0.000000e+00
     1048000   1.047999e-05   6.365569e+00   2.955620e+01   3.144991e+01   5.978582e+05   1.164502e+06   1.283307e+06  -1.007219e+02   5.171088e+01   3.010920e-20   1.833133e+06   1.037609e-37   0.000000e+00   0.000000e+00
     1056000   1.055999e-05   6.413397e+00   2.964936e+01   3.155258e+01   5.978582e+05   1.164502e+06   1.283307e+06  -9.198904e+01   4.722741e+01   4.387709e-20   1.833133e+06   8.653891e-38   0.000000e+00   0.000000e+00
     1064000   1.063999e-05   6.461226e+00   2.974252e+01   3.165524e+01   5.978582e+05   1.164502e+06   1.283307e+06  -1.296534e+02   6.656440e+01   2.213022e-19   1.833133e+06   1.719043e-37   0.000000e+00   0.000000e+00
     1072000   1.071999e-05   6.509055e+00   2.983568e+01   3.175791e+01   5.978582e+05   1.164502e+06   1.283307e+06  -9.385495e+01   4.818537e+01   4.475360e-20   1.833133e+06   9.008355e-38   0.000000e+00   0.000000e+00
     1080000   1.079999e-05   6.556883e+00   2.992885e+01   3.186057e+01   5.978582e+05   1.164502e+06   1.283307e+06  -7.690740e+01   3.948445e+01   1.875473e-19   1.833133e+06   6.050844e-38   0.000000e+00   0.000000e+00
     1088000   1.087999e-05   6.604712e+00   3.002201e+01   3.196324e+01   5.978582e+05   1.164502e+06   1.283307e+06  -9.544405e+01   4.900122e+01  -5.508442e-20   1.833133e+06   9.314201e-38   0.000000e+00   0.000000e+00
     1096000   1.095999e-05   6.652541e+00   3.011517e+01   3.206590e+01   5.978582e+05   1.164502e+06   1.283307e+06  -9.788812e+01   5.025601e+01   2.804327e-20   1.833133e+06   9.799145e-38   0.000000e+00   0.000000e+00
     1104000   1.103999e-05   6.700369e+00   3.020833e+01   3.216856e+01   5.978582e+05   1.164502e+06   1.283307e+06  -9.984076e+01   5.125850e+01   6.253391e-20   1.833133e+06   1.019786e-37   0.000000e+00   0.000000e+00
     1112000   1.111999e-05   6.748198e+00   3.030149e+01   3.227123e+01   5.978582e+05   1.164502e+06   1.283307e+06  -6.640078e+01   3.409033e+01  -3.405267e-20   1.833133e+06   4.510207e-38   0.000000e+00   0.000000e+00
     1120000   1.119999e-05   6.796027e+00   3.039465e+01   3.237389e+01   5.978582e+05   1.164502e+06   1.283307e+06  -1.683692e+02   8.644116e+01  -6.636018e-20   1.833133e+06   2.899077e-37   0.000000e+00   0.000000e+00
     1128000   1.127999e-05   6.843855e+00   3.048781e+01   3.247656e+01   5.978582e+05   1.164502e+06   1.283307e+06  -8.398899e+01   4.312016e+01   8.877593e-20   1.833133e+06   7.214614e-38   0.000000e+00   0.000000e+00
     1136000   1.135999e-05   6.891684e+00   3.058097e+01   3.257922e+01   5.978582e+05   1.164502e+06   1.283307e+06  -7.575887e+01   3.889480e+01   1.481347e-19   1.833133e+06   5.870062e-38   0.000000e+00   0.000000e+00
     1144000   1.143999e-05   6.939513e+00   3.067413e+01   3.268189e+01   5.978582e+05   1.164502e+06   1.283307e+06  -8.506881e+01   4.367454e+01  -1.660501e-19   1.833133e+06   7.400807e-38   0.000000e+00   0.000000e+00
     1152000   1.151999e-05   6.987341e+00   3.076729e+01   3.278455e+01   5.978582e+05   1.164502e+06   1.283307e+06  -1.304943e+01   6.699609e+00   1.246384e-20   1.833133e+06   1.744301e-39   0.000000e+00   0.000000e+00
     1160000   1.159999e-05   7.035170e+00   3.086045e+01   3.288722e+01   5.978582e+05   1.164502e+06   1.283307e+06  -8.255627e+01   4.238460e+01   5.524031e-20   1.833133e+06   6.970858e-38   0.000000e+00   0.000000e+00
     1168000   1.167999e-05   7.082999e+00   3.095361e+01   3.298988e+01   5.978582e+05   1.164502e+06   1.283307e+06  -1.129600e+02   5.799393e+01   7.686201e-20   1.833133e+06   1.304902e-37   0.000000e+00   0.000000e+00
     1176000   1.175999e-05   7.130827e+00   3.104677e+01   3.309255e+01   5.978582e+05   1.164502e+06   1.283307e+06  -6.140423e+01   3.152508e+01  -1.348780e-19   1.833133e+06   3.856363e-38   0.000000e+00   0.000000e+00
     1184000   1.183999e-05   7.178656e+00   3.113993e+01   3.319521e+01   5.978582e+05   1.164502e+06   1.283307e+06  -7.195588e+01   3.694233e+01   8.427926e-20   1.833133e+06   5.295497e-38   0.000000e+00   0.000000e+00
     1192000   1.191999e-05   7.226485e+00   3.123309e+01   3.329787e+01   5.978582e+05   1.164502e+06   1.283307e+06  -3.440234e+01   1.766225e+01  -5.815893e-20   1.833133e+06   1.210872e-38   0.000000e+00   0.000000e+00
     1200000   1.199999e-05   7.274313e+00   3.132625e+01   3.340054e+01   5.978582e+05   1.164502e+06   1.283307e+06  -3.922576e+01   2.013860e+01   6.960235e-20   1.833133e+06   1.573109e-38   0.000000e+00   0.000000e+00
     1208000   1.207999e-05   7.322142e+00   3.141941e+01   3.350320e+01   5.978582e+05   1.164502e+06   1.283307e+06  -3.161531e+01   1.623138e+01   1.292207e-20   1.833133e+06   1.022169e-38   0.000000e+00   0.000000e+00
     1216000   1.215999e-05   7.369971e+00   3.151257e+01   3.360587e+01   5.978582e+05   1.164502e+06   1.283307e+06  -4.111443e+01   2.110825e+01   5.481888e-20   1.833133e+06   1.728766e-38   0.000000e+00   0.000000e+00
     1224000   1.223999e-05   7.417799e+00   3.160573e+01   3.370853e+01   5.978582e+05   1.164502e+06   1.283307e+06  -2.490288e+01   1.278520e+01   5.570703e-20   1.833133e+06   6.345988e-39   0.000000e+00   0.000000e+00
     1232000   1.231999e-05   7.465628e+00   3.169889e+01   3.381120e+01   5.978582e+05   1.164502e+06   1.283307e+06  -2.244480e+01   1.152322e+01  -8.396383e-21   1.833133e+06   5.150355e-39   0.000000e+00   0.000000e+00
     1240000   1.239999e-05   7.513457e+00   3.179205e+01   3.391386e+01   5.978582e+05   1.164502e+06   1.283307e+06  -4.794929e+01   2.461729e+01  -1.225993e-20   1.833133e+06   2.351041e-38   0.000000e+00   0.000000e+00
     1248000   1.247999e-05   7.561285e+00   3.188521e+01   3.401653e+01   5.978582e+05   1.164502e+06   1.283307e+06   2.573306e+01  -1.321142e+01   3.995817e-20   1.833133e+06   6.769865e-39   0.000000e+00   0.000000e+00
     1256000   1.255999e-05   7.609114e+00   3.197837e+01   3.411919e+01   5.978582e+05   1.164502e+06   1.283307e+06  -1.175356e+01   6.034306e+00   3.792462e-21   1.833133e+06   1.415887e-39   0.000000e+00   0.000000e+00
     1264000   1.263999e-05   7.656943e+00   3.207153e+01   3.422185e+01   5.978582e+05   1.164502e+06   1.283307e+06   9.047276e+00  -4.644894e+00  -6.848365e-21   1.833133e+06   8.367983e-40   0.000000e+00   0.000000e+00
     1272000   1.271999e-05   7.704771e+00   3.216469e+01   3.432452e+01   5.978582e+05   1.164502e+06   1.283307e+06  -1.414129e+01   7.260176e+00   1.447195e-20   1.833133e+06   2.045164e-39   0.000000e+00   0.000000e+00
     1280000   1.279999e-05   7.752600e+00   3.225785e+01   3.442718e+01   5.978582e+05   1.164502e+06   1.283307e+06   1.974506e+01  -1.013717e+01  -8.577825e-20   1.833133e+06   3.986924e-39   0.000000e+00   0.000000e+00
     1288000   1.287999e-05   7.800429e+00   3.235101e+01   3.452985e+01   5.978582e+05   1.164502e+06   1.283307e+06   1.894965e+01  -9.728796e+00  -3.075678e-20   1.833133e+06   3.672516e-39   0.000000e+00   0.000000e+00
     1296000   1.295999e-05   7.848257e+00   3.244417e+01   3.463251e+01   5.978582e+05   1.164502e+06   1.283307e+06   1.713294e+00  -8.796096e-01   1.633704e-21   1.833133e+06   3.029457e-41   0.000000e+00   0.000000e+00
     1304000   1.303999e-05   7.896086e+00   3.253733e+01   3.473518e+01   5.978582e+05   1.164502e+06   1.283307e+06  -9.324107e+00   4.787020e+00   2.794120e-22   1.833133e+06   8.882505e-40   0.000000e+00   0.000000e+00
     1312000   1.311999e-05   7.943914e+00   3.263049e+01   3.483784e+01   5.978582e+05   1.164502e+06   1.283307e+06   2.919228e+01  -1.498739e+01   1.009133e-19   1.833133e+06   8.716539e-39   0.000000e+00   0.000000e+00
     1320000   1.319999e-05   7.991743e+00   3.272365e+01   3.494051e+01   5.978582e+05   1.164502e+06   1.283307e+06   2.113862e+01  -1.085262e+01  -1.671285e-20   1.833133e+06   4.573464e-39   0.000000e+00   0.000000e+00
     1328000   1.327999e-05   8.039572e+00   3.281681e+01   3.504317e+01   5.978582e+05   1.164502e+06   1.283307e+06   5.926430e+01  -3.042644e+01  -7.143529e-20   1.833133e+06   3.591023e-38   0.000000e+00   0.000000e+00
     1336000   1.335999e-05   8.087400e+00   3.290997e+01   3.514584e+01   5.978582e+05   1.164502e+06   1.283307e+06  -6.003314e+00   3.082116e+00  -1.173727e-20   1.833133e+06   3.678061e-40   0.000000e+00   0.000000e+00
     1344000   1.343999e-05   8.135229e+00   3.300313e+01   3.524850e+01   5.978582e+05   1.164502e+06   1.283307e+06   4.385367e+01  -2.251458e+01   5.916162e-20   1.833133e+06   1.967278e-38   0.000000e+00   0.000000e+00
     1352000   1.351999e-05   8.183058e+00   3.309629e+01   3.535116e+01   5.978582e+05   1.164502e+06   1.283307e+06   5.237998e+01  -2.689201e+01   5.284239e-20   1.833133e+06   2.806405e-38   0.000000e+00   0.000000e+00
     1360000   1.359999e-05   8.230886e+00   3.318945e+01   3.545383e+01   5.978582e+05   1.164502e+06   1.283307e+06   2.655280e+01  -1.363228e+01  -3.988878e-21   1.833133e+06   7.213334e-39   0.000000e+00   0.000000e+00
     1368000   1.367999e-05   8.278715e+00   3.328261e+01   3.555649e+01   5.978582e+05   1.164502e+06   1.283307e+06   6.335056e+01  -3.252434e+01  -3.408185e-21   1.833133e+06   4.104600e-38   0.000000e+00   0.000000e+00
     1376000   1.375999e-05   8.326544e+00   3.337577e+01   3.565916e+01   5.978582e+05   1.164502e+06   1.283307e+06   5.585192e+01  -2.867451e+01  -6.574107e-21   1.833133e+06   3.190677e-38   0.000000e+00   0.000000e+00
     1384000   1.383999e-05   8.374372e+00   3.346893e+01   3.576182e+01   5.978582e+05   1.164502e+06   1.283307e+06   2.325779e+01  -1.194061e+01  -3.744907e-20   1.833133e+06   5.537412e-39   0.000000e+00   0.000000e+00
     1392000   1.391999e-05   8.422201e+00   3.356209e+01   3.586449e+01   5.978582e+05   1.164502e+06   1.283307e+06   9.551149e+01  -4.903584e+01  -2.957311e-20   1.833133e+06   9.329346e-38   0.000000e+00   0.000000e+00
     1400000   1.399999e-05   8.470030e+00   3.365525e+01   3.596715e+01   5.978582e+05   1.164502e+06   1.283307e+06   1.417192e+02  -7.275898e+01  -2.998024e-20   1.833133e+06   2.053731e-37   0.000000e+00   0.000000e+00
     1408000   1.407999e-05   8.517858e+00   3.374841e+01   3.606982e+01   5.978582e+05   1.164502e+06   1.283307e+06   9.100337e+01  -4.672136e+01   1.203516e-19   1.833133e+06   8.469240e-38   0.000000e+00   0.000000e+00
     1416000   1.415999e-05   8.565687e+00   3.384157e+01   3.617248e+01   5.978582e+05   1.164502e+06   1.283307e+06   1.087836e+02  -5.584975e+01   6.173983e-20   1.833133e+06   1.210419e-37   0.000000e+00   0.000000e+00
     1424000   1.423999e-05   8.613516e+00   3.393473e+01   3.627515e+01   5.978582e+05   1.164502e+06   1.283307e+06   9.033410e+01  -4.637775e+01  -5.867122e-20   1.833133e+06   8.345585e-38   0.000000e+00   0.000000e+00
     1432000   1.431999e-05   8.661344e+00   3.402789e+01   3.637781e+01   5.978582e+05   1.164502e+06   1.283307e+06   6.239297e+01  -3.203271e+01   1.303521e-20   1.833133e+06   3.983863e-38   0.000000e+00   0.000000e+00
     1440000   1.439999e-05   8.709173e+00   3.412105e+01   3.648047e+01   5.978582e+05   1.164502e+06   1.283307e+06   1.070711e+02  -5.497057e+01   1.948179e-19   1.833133e+06   1.172496e-37   0.000000e+00   0.000000e+00
     1448000   1.447999e-05   8.757002e+00   3.421421e+01   3.658314e+01   5.978582e+05   1.164502e+06   1.283307e+06   9.690598e+01  -4.975177e+01  -3.048685e-19   1.833133e+06   9.603374e-38   0.000000e+00   0.000000e+00
     1456000   1.455999e-05   8.804830e+00   3.430737e+01   3.668580e+01   5.978582e+05   1.164502e+06   1.283307e+06   9.147717e+01  -4.696461e+01  -7.627432e-20   1.833133e+06   8.556515e-38   0.000000e+00   0.000000e+00
     1464000   1.463999e-05   8.852659e+00   3.440053e+01   3.678847e+01   5.978582e+05   1.164502e+06   1.283307e+06   1.292455e+02  -6.635498e+01  -8.117056e-20   1.833133e+06   1.708194e-37   0.000000e+00   0.000000e+00
     1472000   1.471999e-05   8.900488e+00   3.449369e+01   3.689113e+01   5.978582e+05   1.164502e+06   1.283307e+06   1.700129e+02  -8.728505e+01   1.303661e-19   1.833133e+06   2.955738e-37   0.000000e+00   0.000000e+00
     1480000   1.479999e-05   8.948316e+00   3.458685e+01   3.699380e+01   5.978582e+05   1.164502e+06   1.283307e+06   1.437974e+02  -7.382597e+01   1.217300e-19   1.833133e+06   2.114825e-37   0.000000e+00   0.000000e+00
     1488000   1.487999e-05   8.996145e+00   3.468001e+01   3.709646e+01   5.978582e+05   1.164502e+06   1.283307e+06   9.546233e+01  -4.901060e+01   4.379185e-20   1.833133e+06   9.322276e-38   0.000000e+00   0.000000e+00
     1496000   1.495999e-05   9.043974e+00   3.477317e+01   3.719913e+01   5.978582e+05   1.164502e+06   1.283307e+06   1.586033e+02  -8.142733e+01   1.195272e-19   1.833133e+06   2.572719e-37   0.000000e+00   0.000000e+00
     1504000   1.503999e-05   9.091802e+00   3.486633e+01   3.730179e+01   5.978582e+05   1.164502e+06   1.283307e+06   1.545793e+02  -7.936140e+01   3.265124e-20   1.833133e+06   2.443787e-37   0.000000e+00   0.000000e+00
     1512000   1.511999e-05   9.139631e+00   3.495949e+01   3.740446e+01   5.978582e+05   1.164502e+06   1.283307e+06   1.212562e+02  -6.225324e+01  -4.153021e-20   1.833133e+06   1.504000e-37   0.000000e+00   0.000000e+00
     1520000   1.519999e-05   9.187460e+00   3.505265e+01   3.750712e+01   5.978582e+05   1.164502e+06   1.283307e+06   1.461190e+02  -7.501788e+01  -9.542365e-21   1.833133e+06   2.183787e-37   0.000000e+00   0.000000e+00
     1528000   1.527999e-05   9.235288e+00   3.514581e+01   3.760978e+01   5.978582e+05   1.164502e+06   1.283307e+06   1.389295e+02  -7.132677e+01  -4.313238e-20   1.833133e+06   1.974120e-37   0.000000e+00   0.000000e+00
     1536000   1.535999e-05   9.283117e+00   3.523897e+01   3.771245e+01   5.978582e+05   1.164502e+06   1.283307e+06   1.454703e+02  -7.468481e+01   1.984944e-19   1.833133e+06   2.164523e-37   0.000000e+00   0.000000e+00
     1544000   1.543999e-05   9.330945e+00   3.533213e+01   3.781511e+01   5.978582e+05   1.164502e+06   1.283307e+06   1.560759e+02  -8.012978e+01  -4.573173e-19   1.833133e+06   2.491429e-37   0.000000e+00   0.000000e+00
     1552000   1.551999e-05   9.378774e+00   3.542529e+01   3.791778e+01   5.978582e+05   1.164502e+06   1.283307e+06   1.665267e+02  -8.549522e+01   2.802811e-20   1.833133e+06   2.836429e-37   0.000000e+00   0.000000e+00
     1560000   1.559999e-05   9.426603e+00   3.551845e+01   3.802044e+01   5.978582e+05   1.164502e+06   1.283307e+06   1.591106e+02  -8.168779e+01  -5.800445e-20   1.833133e+06   2.589389e-37   0.000000e+00   0.000000e+00
     1568000   1.567999e-05   9.474431e+00   3.561161e+01   3.812311e+01   5.978582e+05   1.164502e+06   1.283307e+06   1.345350e+02  -6.907059e+01  -8.594566e-20   1.833133e+06   1.851152e-37   0.000000e+00   0.000000e+00
     1576000   1.575999e-05   9.522260e+00   3.570477e+01   3.822577e+01   5.978582e+05   1.164502e+06   1.283307e+06   1.644417e+02  -8.442478e+01   2.499573e-19   1.833133e+06   2.765773e-37   0.000000e+00   0.000000e+00
     1584000   1.583999e-05   9.570089e+00   3.579793e+01   3.832844e+01   5.978582e+05   1.164502e+06   1.283307e+06   1.097186e+02  -5.632978e+01  -2.885081e-20   1.833133e+06   1.231505e-37   0.000000e+00   0.000000e+00
     1592000   1.591999e-05   9.617917e+00   3.589109e+01   3.843110e+01   5.978582e+05   1.164502e+06   1.283307e+06   1.728816e+02  -8.875787e+01   3.108543e-19   1.833133e+06   3.056888e-37   0.000000e+00   0.000000e+00
     1600000   1.599999e-05   9.665746e+00   3.598425e+01   3.853377e+01   5.978582e+05   1.164502e+06   1.283307e+06   1.543484e+02  -7.924288e+01  -3.596540e-19   1.833133e+06   2.436767e-37   0.000000e+00   0.000000e+00
     1608000   1.607999e-05   9.713575e+00   3.607741e+01   3.863643e+01   5.978582e+05   1.164502e+06   1.283307e+06   1.645402e+02  -8.447536e+01  -2.107965e-19   1.833133e+06   2.768969e-37   0.000000e+00   0.000000e+00
     1616000   1.615999e-05   9.761403e+00   3.617057e+01   3.873909e+01   5.978582e+05   1.164502e+06   1.283307e+06   1.463106e+02  -7.511621e+01   1.293382e-19   1.833133e+06   2.189658e-37   0.000000e+00   0.000000e+00
     1624000   1.623999e-05   9.809232e+00   3.626374e+01   3.884176e+01   5.978582e+05   1.164502e+06   1.283307e+06   1.637455e+02  -8.406733e+01   1.550574e-20   1.833133e+06   2.742424e-37   0.000000e+00   0.000000e+00
     1632000   1.631999e-05   9.857061e+00   3.635690e+01   3.894442e+01   5.978582e+05   1.164502e+06   1.283307e+06   1.559707e+02  -8.007577e+01  -3.949252e-19   1.833133e+06   2.488262e-37   0.000000e+00   0.000000e+00
     1640000   1.639999e-05   9.904889e+00   3.645006e+01   3.904709e+01   5.978582e+05   1.164502e+06   1.283307e+06   1.835998e+02  -9.426063e+01   2.816249e-19   1.833133e+06   3.447326e-37   0.000000e+00   0.000000e+00
     1648000   1.647999e-05   9.952718e+00   3.654322e+01   3.914975e+01   5.978582e+05   1.164502e+06   1.283307e+06   1.826187e+02  -9.375691e+01   1.390673e-19   1.833133e+06   3.411154e-37   0.000000e+00   0.000000e+00
     1656000   1.655999e-05   1.000055e+01   3.663638e+01   3.925242e+01   5.978582e+05   1.164502e+06   1.283307e+06   1.929350e+02  -9.905331e+01  -1.515751e-19   1.833133e+06   3.807176e-37   0.000000e+00   0.000000e+00
     1664000   1.663999e-05   1.004838e+01   3.672954e+01   3.935508e+01   5.978582e+05   1.164502e+06   1.283307e+06   1.951802e+02  -1.002060e+02  -1.019152e-19   1.833133e+06   3.896333e-37   0.000000e+00   0.000000e+00
     1672000   1.671999e-05   1.009620e+01   3.682270e+01   3.945775e+01   5.978582e+05   1.164502e+06   1.283307e+06   2.386676e+02  -1.225326e+02   1.773556e-19   1.833133e+06   5.825862e-37   0.000000e+00   0.000000e+00
     1680000   1.679999e-05   1.014403e+01   3.691586e+01   3.956041e+01   5.978582e+05   1.164502e+06   1.283307e+06   1.694441e+02  -8.699304e+01  -3.642891e-21   1.833133e+06   2.936488e-37   0.000000e+00   0.000000e+00
     1688000   1.687999e-05   1.019186e+01   3.700902e+01   3.966308e+01   5.978582e+05   1.164502e+06   1.283307e+06   1.710389e+02  -8.781180e+01   1.806799e-19   1.833133e+06   2.992193e-37   0.000000e+00   0.000000e+00
     1696000   1.695999e-05   1.023969e+01   3.710218e+01   3.976574e+01   5.978582e+05   1.164502e+06   1.283307e+06   2.025760e+02  -1.040030e+02  -2.472431e-19   1.833133e+06   4.197030e-37   0.000000e+00   0.000000e+00
     1704000   1.703999e-05   1.028752e+01   3.719534e+01   3.986840e+01   5.978582e+05   1.164502e+06   1.283307e+06   1.387553e+02  -7.123733e+01   2.114894e-20   1.833133e+06   1.969514e-37   0.000000e+00   0.000000e+00
     1712000   1.711999e-05   1.033535e+01   3.728850e+01   3.997107e+01   5.978582e+05   1.164502e+06   1.283307e+06   1.990568e+02  -1.021962e+02  -2.688424e-19   1.833133e+06   4.052701e-37   0.000000e+00   0.000000e+00
     1720000   1.719999e-05   1.038318e+01   3.738166e+01   4.007373e+01   5.978582e+05   1.164502e+06   1.283307e+06   1.991796e+02  -1.022593e+02  -1.722973e-19   1.833133e+06   4.057705e-37   0.000000e+00   0.000000e+00
     1728000   1.727999e-05   1.043100e+01   3.747482e+01   4.017640e+01   5.978582e+05   1.164502e+06   1.283307e+06   2.355173e+02  -1.209152e+02  -7.016309e-19   1.833133e+06   5.672599e-37   0.000000e+00   0.000000e+00
     1736000   1.735999e-05   1.047883e+01   3.756798e+01   4.027906e+01   5.978582e+05   1.164502e+06   1.283307e+06   1.827061e+02  -9.380178e+01   6.707157e-19   1.833133e+06   3.414435e-37   0.000000e+00   0.000000e+00
     1744000   1.743999e-05   1.052666e+01   3.766114e+01   4.038173e+01   5.978582e+05   1.164502e+06   1.283307e+06   2.010649e+02  -1.032272e+02  -4.184931e-20   1.833133e+06   4.134848e-37   0.000000e+00   0.000000e+00
     1752000   1.751999e-05   1.057449e+01   3.775430e+01   4.048439e+01   5.978582e+05   1.164502e+06   1.283307e+06   2.048641e+02  -1.051778e+02  -1.566637e-19   1.833133e+06   4.292698e-37   0.000000e+00   0.000000e+00
     1760000   1.759999e-05   1.062232e+01   3.784746e+01   4.058706e+01   5.978582e+05   1.164502e+06   1.283307e+06   1.709998e+02  -8.779173e+01  -2.974416e-20   1.833133e+06   2.991031e-37   0.000000e+00   0.000000e+00
     1768000   1.767999e-05   1.067015e+01   3.794062e+01   4.068972e+01   5.978582e+05   1.164502e+06   1.283307e+06   1.769773e+02  -9.086060e+01   5.463074e-19   1.833133e+06   3.203571e-37   0.000000e+00   0.000000e+00
     1776000   1.775999e-05   1.071798e+01   3.803378e+01   4.079239e+01   5.978582e+05   1.164502e+06   1.283307e+06   1.994413e+02  -1.023937e+02  -7.425158e-20   1.833133e+06   4.068656e-37   0.000000e+00   0.000000e+00
     1784000   1.783999e-05   1.076581e+01   3.812694e+01   4.089505e+01   5.978582e+05   1.164502e+06   1.283307e+06   1.957108e+02  -1.004784e+02  -2.939432e-19   1.833133e+06   3.917441e-37   0.000000e+00   0.000000e+00
     1792000   1.791999e-05   1.081363e+01   3.822010e+01   4.099771e+01   5.978582e+05   1.164502e+06   1.283307e+06   1.749417e+02  -8.981549e+01  -3.813475e-19   1.833133e+06   3.130521e-37   0.000000e+00   0.000000e+00
     1800000   1.799999e-05   1.086146e+01   3.831326e+01   4.110038e+01   5.978582e+05   1.164502e+06   1.283307e+06   1.796916e+02  -9.225414e+01  -1.093658e-19   1.833133e+06   3.302537e-37   0.000000e+00   0.000000e+00
     1808000   1.807999e-05   1.090929e+01   3.840642e+01   4.120304e+01   5.978582e+05   1.164502e+06   1.283307e+06   1.698988e+02  -8.722648e+01   4.528240e-20   1.833133e+06   2.952270e-37   0.000000e+00   0.000000e+00
     1816000   1.815999e-05   1.095712e+01   3.849958e+01   4.130571e+01   5.978582e+05   1.164502e+06   1.283307e+06   1.736111e+02  -8.913239e+01   2.798437e-20   1.833133e+06   3.083021e-37   0.000000e+00   0.000000e+00
     1824000   1.823999e-05   1.100495e+01   3.859274e+01   4.140837e+01   5.978582e+05   1.164502e+06   1.283307e+06   1.819269e+02  -9.340171e+01  -2.543550e-19   1.833133e+06   3.385160e-37   0.000000e+00   0.000000e+00
     1832000   1.831999e-05   1.105278e+01   3.868590e+01   4.151104e+01   5.978582e+05   1.164502e+06   1.283307e+06   1.929203e+02  -9.904575e+01  -8.245701e-20   1.833133e+06   3.806565e-37   0.000000e+00   0.000000e+00
     1840000   1.839999e-05   1.110061e+01   3.877906e+01   4.161370e+01   5.978582e+05   1.164502e+06   1.283307e+06   1.787166e+02  -9.175358e+01  -4.590008e-19   1.833133e+06   3.267019e-37   0.000000e+00   0.000000e+00
     1848000   1.847999e-05   1.114843e+01   3.887222e+01   4.171637e+01   5.978582e+05   1.164502e+06   1.283307e+06   1.473044e+02  -7.562644e+01   3.196540e-20   1.833133e+06   2.219716e-37   0.000000e+00   0.000000e+00
     1856000   1.855999e-05   1.119626e+01   3.896538e+01   4.181903e+01   5.978582e+05   1.164502e+06   1.283307e+06   1.927572e+02  -9.896202e+01   2.259870e-19   1.833133e+06   3.800216e-37   0.000000e+00   0.000000e+00
     1864000   1.863999e-05   1.124409e+01   3.905854e+01   4.192170e+01   5.978582e+05   1.164502e+06   1.283307e+06   1.692960e+02  -8.691700e+01   5.666301e-20   1.833133e+06   2.931560e-37   0.000000e+00   0.000000e+00
     1872000   1.871999e-05   1.129192e+01   3.915170e+01   4.202436e+01   5.978582e+05   1.164502e+06   1.283307e+06   1.626836e+02  -8.352215e+01   1.826550e-19   1.833133e+06   2.707037e-37   0.000000e+00   0.000000e+00
     1880000   1.879999e-05   1.133975e+01   3.924486e+01   4.212702e+01   5.978582e+05   1.164502e+06   1.283307e+06   1.756728e+02  -9.019086e+01   5.115386e-19   1.833133e+06   3.156438e-37   0.000000e+00   0.000000e+00
     1888000   1.887999e-05   1.138758e+01   3.933802e+01   4.222969e+01   5.978582e+05   1.164502e+06   1.283307e+06   1.872664e+02  -9.614307e+01   2.928609e-19   1.833133e+06   3.586897e-37   0.000000e+00   0.000000e+00
     1896000   1.895999e-05   1.143541e+01   3.943118e+01   4.233235e+01   5.978582e+05   1.164502e+06   1.283307e+06   1.782740e+02  -9.152633e+01  -2.030948e-20   1.833133e+06   3.250374e-37   0.000000e+00   0.000000e+00
     1904000   1.903999e-05   1.148323e+01   3.952434e+01   4.243502e+01   5.978582e+05   1.164502e+06   1.283307e+06   1.756819e+02  -9.019551e+01   2.592080e-19   1.833133e+06   3.156521e-37   0.000000e+00   0.000000e+00
     1912000   1.911999e-05   1.153106e+01   3.961750e+01   4.253768e+01   5.978582e+05   1.164502e+06   1.283307e+06   1.623594e+02  -8.335573e+01  -6.628277e-19   1.833133e+06   2.696315e-37   0.000000e+00   0.000000e+00
     1920000   1.919999e-05   1.157889e+01   3.971066e+01   4.264035e+01   5.978582e+05   1.164502e+06   1.283307e+06   1.549705e+02  -7.956227e+01  -1.393287e-19   1.833133e+06   2.456390e-37   0.000000e+00   0.000000e+00
     1928000   1.927999e-05   1.162672e+01   3.980382e+01   4.274301e+01   5.978582e+05   1.164502e+06   1.283307e+06   1.607136e+02  -8.251075e+01   1.621526e-19   1.833133e+06   2.641885e-37   0.000000e+00   0.000000e+00
     1936000   1.935999e-05   1.167455e+01   3.989698e+01   4.284568e+01   5.978582e+05   1.164502e+06   1.283307e+06   1.301236e+02  -6.680578e+01  -6.369868e-20   1.833133e+06   1.731972e-37   0.000000e+00   0.000000e+00
     1944000   1.943999e-05   1.172238e+01   3.999014e+01   4.294834e+01   5.978582e+05   1.164502e+06   1.283307e+06   1.697705e+02  -8.716058e+01  -5.695756e-19   1.833133e+06   2.947864e-37   0.000000e+00   0.000000e+00
     1952000   1.951999e-05   1.177021e+01   4.008330e+01   4.305101e+01   5.978582e+05   1.164502e+06   1.283307e+06   1.608036e+02  -8.255696e+01  -6.178752e-20   1.833133e+06   2.644842e-37   0.000000e+00   0.000000e+00
     1960000   1.959999e-05   1.181804e+01   4.017646e+01   4.315367e+01   5.978582e+05   1.164502e+06   1.283307e+06   1.499773e+02  -7.699872e+01  -8.256580e-20   1.833133e+06   2.300719e-37   0.000000e+00   0.000000e+00
     1968000   1.967999e-05   1.186586e+01   4.026962e+01   4.325633e+01   5.978582e+05   1.164502e+06   1.283307e+06   1.627066e+02  -8.353395e+01   6.660612e-19   1.833133e+06   2.707751e-37   0.000000e+00   0.000000e+00
     1976000   1.975999e-05   1.191369e+01   4.036278e+01   4.335900e+01   5.978582e+05   1.164502e+06   1.283307e+06   1.389325e+02  -7.132828e+01   2.434140e-19   1.833133e+06   1.974394e-37   0.000000e+00   0.000000e+00
     1984000   1.983999e-05   1.196152e+01   4.045594e+01   4.346166e+01   5.978582e+05   1.164502e+06   1.283307e+06   1.620340e+02  -8.318868e+01  -4.449822e-19   1.833133e+06   2.685338e-37   0.000000e+00   0.000000e+00
     1992000   1.991999e-05   1.200935e+01   4.054910e+01   4.356433e+01   5.978582e+05   1.164502e+06   1.283307e+06   1.573566e+02  -8.078730e+01   1.039361e-20   1.833133e+06   2.532338e-37   0.000000e+00   0.000000e+00
     2000000   1.999999e-05   1.205718e+01   4.064226e+01   4.366699e+01   5.978582e+05   1.164502e+06   1.283307e+06   1.131110e+02  -5.807146e+01   9.275752e-20   1.833133e+06   1.308791e-37   0.000000e+00   0.000000e+00
     2008000   2.007999e-05   1.210501e+01   4.073542e+01   4.376966e+01   5.978582e+05   1.164502e+06   1.283307e+06   1.422522e+02  -7.303266e+01  -1.355069e-19   1.833133e+06   2.069628e-37   0.000000e+00   0.000000e+00
     2016000   2.015999e-05   1.215284e+01   4.082858e+01   4.387232e+01   5.978582e+05   1.164502e+06   1.283307e+06   1.264522e+02  -6.492087e+01   6.915680e-20   1.833133e+06   1.635647e-37   0.000000e+00   0.000000e+00
     2024000   2.023999e-05   1.220066e+01   4.092174e+01   4.397499e+01   5.978582e+05   1.164502e+06   1.283307e+06   1.304714e+02  -6.698432e+01   4.245146e-21   1.833133e+06   1.741331e-37   0.000000e+00   0.000000e+00
     2032000   2.031999e-05   1.224849e+01   4.101490e+01   4.407765e+01   5.978582e+05   1.164502e+06   1.283307e+06   1.258983e+02  -6.463649e+01   1.085846e-19   1.833133e+06   1.621094e-37   0.000000e+00   0.000000e+00
     2040000   2.039999e-05   1.229632e+01   4.110806e+01   4.418032e+01   5.978582e+05   1.164502e+06   1.283307e+06   1.583871e+02  -8.131635e+01   3.323784e-19   1.833133e+06   2.565798e-37   0.000000e+00   0.000000e+00
     2048000   2.047999e-05   1.234415e+01   4.120122e+01   4.428298e+01   5.978582e+05   1.164502e+06   1.283307e+06   1.157491e+02  -5.942588e+01   1.554378e-19   1.833133e+06   1.370212e-37   0.000000e+00   0.000000e+00
     2056000   2.055999e-05   1.239198e+01   4.129438e+01   4.438564e+01   5.978582e+05   1.164502e+06   1.283307e+06   1.334211e+02  -6.849875e+01  -8.391000e-20   1.833133e+06   1.820717e-37   0.000000e+00   0.000000e+00
     2064000   2.063999e-05   1.243981e+01   4.138754e+01   4.448831e+01   5.978582e+05   1.164502e+06   1.283307e+06   2.069025e+02  -1.062243e+02  -3.715216e-20   1.833133e+06   4.377662e-37   0.000000e+00   0.000000e+00
     2072000   2.071999e-05   1.248764e+01   4.148070e+01   4.459097e+01   5.978582e+05   1.164502e+06   1.283307e+06   1.615723e+02  -8.295163e+01   6.937942e-20   1.833133e+06   2.669924e-37   0.000000e+00   0.000000e+00
     2080000   2.079999e-05   1.253547e+01   4.157386e+01   4.469364e+01   5.978582e+05   1.164502e+06   1.283307e+06   1.137023e+02  -5.837504e+01  -1.519503e-19   1.833133e+06   1.322335e-37   0.000000e+00   0.000000e+00
     2088000   2.087999e-05   1.258329e+01   4.166702e+01   4.479630e+01   5.978582e+05   1.164502e+06   1.283307e+06   1.404230e+02  -7.209352e+01   1.579204e-19   1.833133e+06   2.016774e-37   0.000000e+00   0.000000e+00
     2096000   2.095999e-05   1.263112e+01   4.176018e+01   4.489897e+01   5.978582e+05   1.164502e+06   1.283307e+06   8.782207e+01  -4.508807e+01   7.022169e-21   1.833133e+06   7.890201e-38   0.000000e+00   0.000000e+00
     2104000   2.103999e-05   1.267895e+01   4.185334e+01   4.500163e+01   5.978582e+05   1.164502e+06   1.283307e+06   9.293901e+01  -4.771512e+01  -8.394532e-20   1.833133e+06   8.835475e-38   0.000000e+00   0.000000e+00
     2112000   2.111999e-05   1.272678e+01   4.194650e+01   4.510430e+01   5.978582e+05   1.164502e+06   1.283307e+06   1.185946e+02  -6.088676e+01  -3.919222e-19   1.833133e+06   1.438357e-37   0.000000e+00   0.000000e+00
     2120000   2.119999e-05   1.277461e+01   4.203966e+01   4.520696e+01   5.978582e+05   1.164502e+06   1.283307e+06   9.029609e+01  -4.635824e+01   2.684935e-20   1.833133e+06   8.339487e-38   0.000000e+00   0.000000e+00
     2128000   2.127999e-05   1.282244e+01   4.213282e+01   4.530963e+01   5.978582e+05   1.164502e+06   1.283307e+06   1.108675e+02  -5.691966e+01   1.220082e-19   1.833133e+06   1.257156e-37   0.000000e+00   0.000000e+00
     2136000   2.135999e-05   1.287027e+01   4.222598e+01   4.541229e+01   5.978582e+05   1.164502e+06   1.283307e+06   8.604042e+01  -4.417337e+01   1.123172e-19   1.833133e+06   7.573188e-38   0.000000e+00   0.000000e+00
     2144000   2.143999e-05   1.291809e+01   4.231914e+01   4.551495e+01   5.978582e+05   1.164502e+06   1.283307e+06   1.076309e+02  -5.525797e+01   3.763817e-19   1.833133e+06   1.184761e-37   0.000000e+00   0.000000e+00
     2152000   2.151999e-05   1.296592e+01   4.241230e+01   4.561762e+01   5.978582e+05   1.164502e+06   1.283307e+06   1.094505e+02  -5.619218e+01   2.220435e-20   1.833133e+06   1.225378e-37   0.000000e+00   0.000000e+00
     2160000   2.159999e-05   1.301375e+01   4.250547e+01   4.572028e+01   5.978582e+05   1.164502e+06   1.283307e+06   1.040226e+02  -5.340549e+01  -5.448158e-20   1.833133e+06   1.106876e-37   0.000000e+00   0.000000e+00
     2168000   2.167999e-05   1.306158e+01   4.259863e+01   4.582295e+01   5.978582e+05   1.164502e+06   1.283307e+06   7.151215e+01  -3.671452e+01  -2.191354e-19   1.833133e+06   5.231080e-38   0.000000e+00   0.000000e+00
     2176000   2.175999e-05   1.310941e+01   4.269179e+01   4.592561e+01   5.978582e+05   1.164502e+06   1.283307e+06   1.145845e+02  -5.882799e+01   2.117604e-19   1.833133e+06   1.342770e-37   0.000000e+00   0.000000e+00
     2184000   2.183999e-05   1.315724e+01   4.278495e+01   4.602828e+01   5.978582e+05   1.164502e+06   1.283307e+06   6.271145e+01  -3.219622e+01  -1.070108e-19   1.833133e+06   4.022659e-38   0.000000e+00   0.000000e+00
     2192000   2.191999e-05   1.320507e+01   4.287811e+01   4.613094e+01   5.978582e+05   1.164502e+06   1.283307e+06   9.309675e+01  -4.779611e+01   7.106123e-20   1.833133e+06   8.864306e-38   0.000000e+00   0.000000e+00
     2200000   2.199999e-05   1.325290e+01   4.297127e+01   4.623361e+01   5.978582e+05   1.164502e+06   1.283307e+06   8.338825e+01  -4.281174e+01   1.103348e-20   1.833133e+06   7.112114e-38   0.000000e+00   0.000000e+00
     2208000   2.207999e-05   1.330072e+01   4.306443e+01   4.633627e+01   5.978582e+05   1.164502e+06   1.283307e+06   8.108668e+01  -4.163011e+01  -2.216897e-19   1.833133e+06   6.726168e-38   0.000000e+00   0.000000e+00
     2216000   2.215999e-05   1.334855e+01   4.315759e+01   4.643894e+01   5.978582e+05   1.164502e+06   1.283307e+06   7.075727e+01  -3.632696e+01   1.282021e-19   1.833133e+06   5.120863e-38   0.000000e+00   0.000000e+00
     2224000   2.223999e-05   1.339638e+01   4.325075e+01   4.654160e+01   5.978582e+05   1.164502e+06   1.283307e+06   8.845743e+01  -4.541427e+01   1.485121e-19   1.833133e+06   8.002740e-38   0.000000e+00   0.000000e+00
     2232000   2.231999e-05   1.344421e+01   4.334391e+01   4.664426e+01   5.978582e+05   1.164502e+06   1.283307e+06   7.921145e+01  -4.066736e+01   5.887477e-20   1.833133e+06   6.417191e-38   0.000000e+00   0.000000e+00
     2240000   2.239999e-05   1.349204e+01   4.343707e+01   4.674693e+01   5.978582e+05   1.164502e+06   1.283307e+06   9.635410e+01  -4.946844e+01   5.081346e-20   1.833133e+06   9.495282e-38   0.000000e+00   0.000000e+00
     2248000   2.247999e-05   1.353987e+01   4.353023e+01   4.684959e+01   5.978582e+05   1.164502e+06   1.283307e+06   6.241469e+01  -3.204386e+01  -1.261086e-19   1.833133e+06   3.984139e-38   0.000000e+00   0.000000e+00
     2256000   2.255999e-05   1.358770e+01   4.362339e+01   4.695226e+01   5.978582e+05   1.164502e+06   1.283307e+06   8.584625e+01  -4.407368e+01   5.281267e-20   1.833133e+06   7.536107e-38   0.000000e+00   0.000000e+00
     2264000   2.263999e-05   1.363552e+01   4.371655e+01   4.705492e+01   5.978582e+05   1.164502e+06   1.283307e+06   4.365081e+01  -2.241044e+01   2.080507e-22   1.833133e+06   1.949279e-38   0.000000e+00   0.000000e+00
     2272000   2.271999e-05   1.368335e+01   4.380971e+01   4.715759e+01   5.978582e+05   1.164502e+06   1.283307e+06   5.428561e+01  -2.787037e+01   1.176228e-19   1.833133e+06   3.014083e-38   0.000000e+00   0.000000e+00
     2280000   2.279999e-05   1.373118e+01   4.390287e+01   4.726025e+01   5.978582e+05   1.164502e+06   1.283307e+06   4.664231e+01  -2.394628e+01   1.058093e-19   1.833133e+06   2.225797e-38   0.000000e+00   0.000000e+00
     2288000   2.287999e-05   1.377901e+01   4.399603e+01   4.736292e+01   5.978582e+05   1.164502e+06   1.283307e+06   8.169507e+01  -4.194246e+01   3.367346e-19   1.833133e+06   6.825578e-38   0.000000e+00   0.000000e+00
     2296000   2.295999e-05   1.382684e+01   4.408919e+01   4.746558e+01   5.978582e+05   1.164502e+06   1.283307e+06   5.437322e+01  -2.791535e+01   8.926775e-20   1.833133e+06   3.024085e-38   0.000000e+00   0.000000e+00
     2304000   2.303999e-05   1.387467e+01   4.418235e+01   4.756825e+01   5.978582e+05   1.164502e+06   1.283307e+06   3.971019e+01  -2.038731e+01  -1.149005e-19   1.833133e+06   1.613131e-38   0.000000e+00   0.000000e+00
     2312000   2.311999e-05   1.392250e+01   4.427551e+01   4.767091e+01   5.978582e+05   1.164502e+06   1.283307e+06   3.882041e+01  -1.993050e+01  -9.987784e-20   1.833133e+06   1.541839e-38   0.000000e+00   0.000000e+00
     2320000   2.319999e-05   1.397033e+01   4.436867e+01   4.777357e+01   5.978582e+05   1.164502e+06   1.283307e+06   5.627664e+01  -2.889257e+01  -3.263247e-20   1.833133e+06   3.239338e-38   0.000000e+00   0.000000e+00
     2328000   2.327999e-05   1.401815e+01   4.446183e+01   4.787624e+01   5.978582e+05   1.164502e+06   1.283307e+06   4.418373e+01  -2.268404e+01  -1.336745e-19   1.833133e+06   1.997009e-38   0.000000e+00   0.000000e+00
     2336000   2.335999e-05   1.406598e+01   4.455499e+01   4.797890e+01   5.978582e+05   1.164502e+06   1.283307e+06   5.451481e+01  -2.798804e+01   3.170577e-20   1.833133e+06   3.039298e-38   0.000000e+00   0.000000e+00
     2344000   2.343999e-05   1.411381e+01   4.464815e+01   4.808157e+01   5.978582e+05   1.164502e+06   1.283307e+06   2.454614e+01  -1.260205e+01   5.751557e-20   1.833133e+06   6.162203e-39   0.000000e+00   0.000000e+00
     2352000   2.351999e-05   1.416164e+01   4.474131e+01   4.818423e+01   5.978582e+05   1.164502e+06   1.283307e+06   3.041130e+01  -1.561324e+01   1.890763e-20   1.833133e+06   9.460065e-39   0.000000e+00   0.000000e+00
     2360000   2.359999e-05   1.420947e+01   4.483447e+01   4.828690e+01   5.978582e+05   1.164502e+06   1.283307e+06   2.680634e+01  -1.376244e+01  -4.881356e-20   1.833133e+06   7.353138e-39   0.000000e+00   0.000000e+00
     2368000   2.367999e-05   1.425730e+01   4.492763e+01   4.838956e+01   5.978582e+05   1.164502e+06   1.283307e+06   5.997202e+01  -3.078979e+01   5.500282e-20   1.833133e+06   3.677930e-38   0.000000e+00   0.000000e+00
     2376000   2.375999e-05   1.430513e+01   4.502079e+01   4.849223e+01   5.978582e+05   1.164502e+06   1.283307e+06   3.170664e+01  -1.627827e+01  -1.542374e-20   1.833133e+06   1.028611e-38   0.000000e+00   0.000000e+00
     2384000   2.383999e-05   1.435295e+01   4.511395e+01   4.859489e+01   5.978582e+05   1.164502e+06   1.283307e+06   2.234146e+01  -1.147016e+01   6.528569e-20   1.833133e+06   5.105838e-39   0.000000e+00   0.000000e+00
     2392000   2.391999e-05   1.440078e+01   4.520711e+01   4.869756e+01   5.978582e+05   1.164502e+06   1.283307e+06   2.779817e+01  -1.427165e+01  -7.656004e-20   1.833133e+06   7.903689e-39   0.000000e+00   0.000000e+00
     2400000   2.399999e-05   1.444861e+01   4.530027e+01   4.880022e+01   5.978582e+05   1.164502e+06   1.283307e+06   2.660172e+01  -1.365739e+01   7.832511e-21   1.833133e+06   7.232187e-39   0.000000e+00   0.000000e+00
     2408000   2.407999e-05   1.449644e+01   4.539343e+01   4.890288e+01   5.978582e+05   1.164502e+06   1.283307e+06   7.153477e+01  -3.672613e+01  -6.296067e-20   1.833133e+06   5.233672e-38   0.000000e+00   0.000000e+00
     2416000   2.415999e-05   1.454427e+01   4.548659e+01   4.900555e+01   5.978582e+05   1.164502e+06   1.283307e+06   3.546491e+01  -1.820777e+01  -3.178274e-20   1.833133e+06   1.286723e-38   0.000000e+00   0.000000e+00
     2424000   2.423999e-05   1.459210e+01   4.557975e+01   4.910821e+01   5.978582e+05   1.164502e+06   1.283307e+06   2.960259e+01  -1.519804e+01   3.622585e-20   1.833133e+06   8.963173e-39   0.000000e+00   0.000000e+00
     2432000   2.431999e-05   1.463993e+01   4.567291e+01   4.921088e+01   5.978582e+05   1.164502e+06   1.283307e+06   4.806333e+01  -2.467583e+01  -1.508859e-19   1.833133e+06   2.361826e-38   0.000000e+00   0.000000e+00
     2440000   2.439999e-05   1.468775e+01   4.576607e+01   4.931354e+01   5.978582e+05   1.164502e+06   1.283307e+06  -3.783137e+00   1.942272e+00   5.451445e-21   1.833133e+06   1.462896e-40   0.000000e+00   0.000000e+00
     2448000   2.447999e-05   1.473558e+01   4.585923e+01   4.941621e+01   5.978582e+05   1.164502e+06   1.283307e+06   2.525810e+01  -1.296757e+01  -4.810234e-20   1.833133e+06   6.525366e-39   0.000000e+00   0.000000e+00
     2456000   2.455999e-05   1.478341e+01   4.595239e+01   4.951887e+01   5.978582e+05   1.164502e+06   1.283307e+06   7.353820e+00  -3.775470e+00  -5.313456e-21   1.833133e+06   5.540343e-40   0.000000e+00   0.000000e+00
     2464000   2.463999e-05   1.483124e+01   4.604555e+01   4.962154e+01   5.978572e+05   1.164501e+06   1.283308e+06  -6.894309e+07  -3.292522e+07   6.199573e+07   1.833133e+06   7.828798e-26   0.000000e+00   0.000000e+00
     2472000   2.471999e-05   1.487907e+01   4.613871e+01   4.972420e+01   5.978452e+05   1.164496e+06   1.283318e+06  -2.707680e+08  -1.280225e+08   2.423085e+08   1.833133e+06   1.201036e-24   0.000000e+00   0.000000e+00
     2480000   2.479999e-05   1.492690e+01   4.623187e+01   4.982687e+01   5.978242e+05   1.164486e+06   1.283337e+06  -1.969400e+08  -9.191969e+07   1.751486e+08   1.833133e+06   6.308378e-25   0.000000e+00   0.000000e+00
     2488000   2.487999e-05   1.497472e+01   4.632503e+01   4.992953e+01   5.978172e+05   1.164483e+06   1.283343e+06   0.000000e+00   0.000000e+00   0.000000e+00   1.833133e+06   0.000000e+00   0.000000e+00   0.000000e+00
