     timestep     time              x             y              z              vx             vy             vz             ax             ay             az         v_magnitude      ELoss        Electronic      Nuclear
           0   0.000000e+00   1.000000e-01   7.733157e+00   1.239017e+01   1.976797e+06  -6.907909e+05   2.939579e+05   0.000000e+00   0.000000e+00   0.000000e+00   2.114552e+06   0.000000e+00   0.000000e+00   0.000000e+00
        8000   7.999000e-08   2.581438e-01   7.677894e+00   1.241368e+01   1.976797e+06  -6.907909e+05   2.939579e+05   0.000000e+00   0.000000e+00   0.000000e+00   2.114552e+06   0.000000e+00   0.000000e+00   0.000000e+00
       16000   1.599900e-07   4.162875e-01   7.622630e+00   1.243720e+01   1.976797e+06  -6.907909e+05   2.939579e+05   0.000000e+00   0.000000e+00   0.000000e+00   2.114552e+06   0.000000e+00   0.000000e+00   0.000000e+00
       24000   2.399900e-07   5.744313e-01   7.567367e+00   1.246072e+01   1.976797e+06  -6.907909e+05   2.939579e+05   0.000000e+00   0.000000e+00   0.000000e+00   2.114552e+06   0.000000e+00   0.000000e+00   0.000000e+00
       32000   3.199900e-07   7.325750e-01   7.512104e+00   1.248423e+01   1.976797e+06  -6.907909e+05   2.939579e+05   0.000000e+00   0.000000e+00   0.000000e+00   2.114552e+06   0.000000e+00   0.000000e+00   0.000000e+00
       40000   3.999900e-07   8.907188e-01   7.456841e+00   1.250775e+01   1.976797e+06  -6.907909e+05   2.939579e+05   0.000000e+00   0.000000e+00   0.000000e+00   2.114552e+06   0.000000e+00   0.000000e+00   0.000000e+00
       48000   4.799900e-07   1.048863e+00   7.401577e+00   1.253127e+01   1.976797e+06  -6.907909e+05   2.939579e+05   0.000000e+00   0.000000e+00   0.000000e+00   2.114552e+06   0.000000e+00   0.000000e+00   0.000000e+00
       56000   5.599900e-07   1.207006e+00   7.346314e+00   1.255478e+01   1.976797e+06  -6.907909e+05   2.939579e+05   0.000000e+00   0.000000e+00   0.000000e+00   2.114552e+06   0.000000e+00   0.000000e+00   0.000000e+00
       64000   6.399900e-07   1.365150e+00   7.291051e+00   1.257830e+01   1.976797e+06  -6.907909e+05   2.939579e+05   0.000000e+00   0.000000e+00   0.000000e+00   2.114552e+06   0.000000e+00   0.000000e+00   0.000000e+00
       72000   7.199900e-07   1.523294e+00   7.235788e+00   1.260182e+01   1.976797e+06  -6.907909e+05   2.939579e+05   0.000000e+00   0.000000e+00   0.000000e+00   2.114552e+06   0.000000e+00   0.000000e+00   0.000000e+00
       80000   7.999900e-07   1.681438e+00   7.180524e+00   1.262533e+01   1.976797e+06  -6.907909e+05   2.939579e+05   0.000000e+00   0.000000e+00   0.000000e+00   2.114552e+06   0.000000e+00   0.000000e+00   0.000000e+00
       88000   8.799900e-07   1.839581e+00   7.125261e+00   1.264885e+01   1.976797e+06  -6.907909e+05   2.939579e+05   0.000000e+00   0.000000e+00   0.000000e+00   2.114552e+06   0.000000e+00   0.000000e+00   0.000000e+00
       96000   9.599900e-07   1.997725e+00   7.069998e+00   1.267237e+01   1.976797e+06  -6.907909e+05   2.939579e+05   0.000000e+00   0.000000e+00   0.000000e+00   2.114552e+06   0.000000e+00   0.000000e+00   0.000000e+00
      104000   1.039990e-06   2.155869e+00   7.014735e+00   1.269588e+01   1.976797e+06  -6.907909e+05   2.939579e+05   0.000000e+00   0.000000e+00   0.000000e+00   2.114552e+06   0.000000e+00   0.000000e+00   0.000000e+00
      112000   1.119990e-06   2.314013e+00   6.959471e+00   1.271940e+01   1.976797e+06  -6.907909e+05   2.939579e+05   0.000000e+00   0.000000e+00   0.000000e+00   2.114552e+06   0.000000e+00   0.000000e+00   0.000000e+00
      120000   1.199990e-06   2.472156e+00   6.904208e+00   1.274292e+01   1.976797e+06  -6.907909e+05   2.939579e+05   0.000000e+00   0.000000e+00   0.000000e+00   2.114552e+06   0.000000e+00   0.000000e+00   0.000000e+00
      128000   1.279990e-06   2.630300e+00   6.848945e+00   1.276643e+01   1.976797e+06  -6.907909e+05   2.939579e+05   0.000000e+00   0.000000e+00   0.000000e+00   2.114552e+06   0.000000e+00   0.000000e+00   0.000000e+00
      136000   1.359990e-06   2.788444e+00   6.793681e+00   1.278995e+01   1.976797e+06  -6.907909e+05   2.939579e+05   0.000000e+00   0.000000e+00   0.000000e+00   2.114552e+06   0.000000e+00   0.000000e+00   0.000000e+00
      144000   1.439990e-06   2.946588e+00   6.738418e+00   1.281347e+01   1.976797e+06  -6.907909e+05   2.939579e+05   0.000000e+00   0.000000e+00   0.000000e+00   2.114552e+06   0.000000e+00   0.000000e+00   0.000000e+00
      152000   1.519990e-06   3.104731e+00   6.683155e+00   1.283698e+01   1.976797e+06  -6.907909e+05   2.939579e+05   0.000000e+00   0.000000e+00   0.000000e+00   2.114552e+06   0.000000e+00   0.000000e+00   0.000000e+00
      160000   1.599990e-06   3.262875e+00   6.627892e+00   1.286050e+01   1.976797e+06  -6.907909e+05   2.939579e+05   0.000000e+00   0.000000e+00   0.000000e+00   2.114552e+06   0.000000e+00   0.000000e+00   0.000000e+00
      168000   1.679990e-06   3.421019e+00   6.572628e+00   1.288402e+01   1.976797e+06  -6.907909e+05   2.939579e+05   0.000000e+00   0.000000e+00   0.000000e+00   2.114552e+06   0.000000e+00   0.000000e+00   0.000000e+00
      176000   1.759990e-06   3.579163e+00   6.517365e+00   1.290753e+01   1.976797e+06  -6.907909e+05   2.939579e+05   0.000000e+00   0.000000e+00   0.000000e+00   2.114552e+06   0.000000e+00   0.000000e+00   0.000000e+00
      184000   1.839990e-06   3.737306e+00   6.462102e+00   1.293105e+01   1.976797e+06  -6.907909e+05   2.939579e+05   0.000000e+00   0.000000e+00   0.000000e+00   2.114552e+06   0.000000e+00   0.000000e+00   0.000000e+00
      192000   1.919990e-06   3.895450e+00   6.406839e+00   1.295457e+01   1.976797e+06  -6.907909e+05   2.939579e+05   0.000000e+00   0.000000e+00   0.000000e+00   2.114552e+06   0.000000e+00   0.000000e+00   0.000000e+00
      200000   1.999990e-06   4.053594e+00   6.351575e+00   1.297808e+01   1.976797e+06  -6.907909e+05   2.939579e+05   0.000000e+00   0.000000e+00   0.000000e+00   2.114552e+06   0.000000e+00   0.000000e+00   0.000000e+00
      208000   2.079990e-06   4.211738e+00   6.296312e+00   1.300160e+01   1.976797e+06  -6.907909e+05   2.939579e+05   0.000000e+00   0.000000e+00   0.000000e+00   2.114552e+06   0.000000e+00   0.000000e+00   0.000000e+00
      216000   2.159990e-06   4.369881e+00   6.241049e+00   1.302512e+01   1.976797e+06  -6.907909e+05   2.939579e+05   0.000000e+00   0.000000e+00   0.000000e+00   2.114552e+06   0.000000e+00   0.000000e+00   0.000000e+00
      224000   2.239990e-06   4.528025e+00   6.185785e+00   1.304863e+01   1.976797e+06  -6.907909e+05   2.939579e+05   0.000000e+00   0.000000e+00   0.000000e+00   2.114552e+06   0.000000e+00   0.000000e+00   0.000000e+00
      232000   2.319990e-06   4.686169e+00   6.130522e+00   1.307215e+01   1.976797e+06  -6.907909e+05   2.939579e+05   0.000000e+00   0.000000e+00   0.000000e+00   2.114552e+06   0.000000e+00   0.000000e+00   0.000000e+00
      240000   2.399990e-06   4.844313e+00   6.075259e+00   1.309566e+01   1.976797e+06  -6.907909e+05   2.939579e+05   0.000000e+00   0.000000e+00   0.000000e+00   2.114552e+06   0.000000e+00   0.000000e+00   0.000000e+00
      248000   2.479990e-06   5.002456e+00   6.019996e+00   1.311918e+01   1.976797e+06  -6.907909e+05   2.939579e+05   0.000000e+00   0.000000e+00   0.000000e+00   2.114552e+06   0.000000e+00   0.000000e+00   0.000000e+00
      256000   2.559990e-06   5.160600e+00   5.964732e+00   1.314270e+01   1.976797e+06  -6.907909e+05   2.939579e+05   0.000000e+00   0.000000e+00   0.000000e+00   2.114552e+06   0.000000e+00   0.000000e+00   0.000000e+00
      264000   2.639990e-06   5.318744e+00   5.909469e+00   1.316621e+01   1.976797e+06  -6.907909e+05   2.939579e+05   0.000000e+00   0.000000e+00   0.000000e+00   2.114552e+06   0.000000e+00   0.000000e+00   0.000000e+00
      272000   2.719990e-06   5.476888e+00   5.854206e+00   1.318973e+01   1.976797e+06  -6.907909e+05   2.939579e+05   0.000000e+00   0.000000e+00   0.000000e+00   2.114552e+06   0.000000e+00   0.000000e+00   0.000000e+00
      280000   2.799990e-06   5.635032e+00   5.798943e+00   1.321325e+01   1.976797e+06  -6.907909e+05   2.939579e+05   0.000000e+00   0.000000e+00   0.000000e+00   2.114552e+06   0.000000e+00   0.000000e+00   0.000000e+00
      288000   2.879990e-06   5.793175e+00   5.743679e+00   1.323676e+01   1.976797e+06  -6.907909e+05   2.939579e+05   0.000000e+00   0.000000e+00   0.000000e+00   2.114552e+06   0.000000e+00   0.000000e+00   0.000000e+00
      296000   2.959990e-06   5.951319e+00   5.688416e+00   1.326028e+01   1.976797e+06  -6.907909e+05   2.939579e+05   0.000000e+00   0.000000e+00   0.000000e+00   2.114552e+06   0.000000e+00   0.000000e+00   0.000000e+00
      304000   3.039990e-06   6.109463e+00   5.633153e+00   1.328380e+01   1.976797e+06  -6.907909e+05   2.939579e+05   0.000000e+00   0.000000e+00   0.000000e+00   2.114552e+06   0.000000e+00   0.000000e+00   0.000000e+00
      312000   3.119990e-06   6.267607e+00   5.577890e+00   1.330731e+01   1.976797e+06  -6.907909e+05   2.939579e+05   0.000000e+00   0.000000e+00   0.000000e+00   2.114552e+06   0.000000e+00   0.000000e+00   0.000000e+00
      320000   3.199990e-06   6.425750e+00   5.522626e+00   1.333083e+01   1.976797e+06  -6.907909e+05   2.939579e+05   0.000000e+00   0.000000e+00   0.000000e+00   2.114552e+06   0.000000e+00   0.000000e+00   0.000000e+00
      328000   3.279990e-06   6.583894e+00   5.467363e+00   1.335435e+01   1.976797e+06  -6.907909e+05   2.939579e+05   0.000000e+00   0.000000e+00   0.000000e+00   2.114552e+06   0.000000e+00   0.000000e+00   0.000000e+00
      336000   3.359990e-06   6.742038e+00   5.412100e+00   1.337786e+01   1.976797e+06  -6.907909e+05   2.939579e+05   0.000000e+00   0.000000e+00   0.000000e+00   2.114552e+06   0.000000e+00   0.000000e+00   0.000000e+00
      344000   3.439990e-06   6.900182e+00   5.356836e+00   1.340138e+01   1.976797e+06  -6.907909e+05   2.939579e+05   0.000000e+00   0.000000e+00   0.000000e+00   2.114552e+06   0.000000e+00   0.000000e+00   0.000000e+00
      352000   3.519990e-06   7.058325e+00   5.301573e+00   1.342490e+01   1.976797e+06  -6.907909e+05   2.939579e+05   0.000000e+00   0.000000e+00   0.000000e+00   2.114552e+06   0.000000e+00   0.000000e+00   0.000000e+00
      360000   3.599990e-06   7.216469e+00   5.246310e+00   1.344841e+01   1.976797e+06  -6.907909e+05   2.939579e+05   0.000000e+00   0.000000e+00   0.000000e+00   2.114552e+06   0.000000e+00   0.000000e+00   0.000000e+00
      368000   3.679990e-06   7.374613e+00   5.191047e+00   1.347193e+01   1.976797e+06  -6.907909e+05   2.939579e+05   0.000000e+00   0.000000e+00   0.000000e+00   2.114552e+06   0.000000e+00   0.000000e+00   0.000000e+00
      376000   3.759990e-06   7.532757e+00   5.135783e+00   1.349545e+01   1.976797e+06  -6.907909e+05   2.939579e+05   0.000000e+00   0.000000e+00   0.000000e+00   2.114552e+06   0.000000e+00   0.000000e+00   0.000000e+00
      384000   3.839990e-06   7.690900e+00   5.080520e+00   1.351896e+01   1.976797e+06  -6.907909e+05   2.939579e+05   0.000000e+00   0.000000e+00   0.000000e+00   2.114552e+06   0.000000e+00   0.000000e+00   0.000000e+00
      392000   3.919990e-06   7.849044e+00   5.025257e+00   1.354248e+01   1.976797e+06  -6.907909e+05   2.939579e+05   0.000000e+00   0.000000e+00   0.000000e+00   2.114552e+06   0.000000e+00   0.000000e+00   0.000000e+00
      400000   3.999990e-06   8.007188e+00   4.969994e+00   1.356600e+01   1.976797e+06  -6.907909e+05   2.939579e+05   0.000000e+00   0.000000e+00   0.000000e+00   2.114552e+06   0.000000e+00   0.000000e+00   0.000000e+00
      408000   4.079990e-06   8.165332e+00   4.914730e+00   1.358951e+01   1.976797e+06  -6.907909e+05   2.939579e+05   0.000000e+00   0.000000e+00   0.000000e+00   2.114552e+06   0.000000e+00   0.000000e+00   0.000000e+00
      416000   4.159990e-06   8.323475e+00   4.859467e+00   1.361303e+01   1.976797e+06  -6.907909e+05   2.939579e+05   0.000000e+00   0.000000e+00   0.000000e+00   2.114552e+06   0.000000e+00   0.000000e+00   0.000000e+00
      424000   4.239990e-06   8.481619e+00   4.804204e+00   1.363655e+01   1.976797e+06  -6.907909e+05   2.939579e+05   0.000000e+00   0.000000e+00   0.000000e+00   2.114552e+06   0.000000e+00   0.000000e+00   0.000000e+00
      432000   4.319990e-06   8.639763e+00   4.748940e+00   1.366006e+01   1.976797e+06  -6.907909e+05   2.939579e+05   0.000000e+00   0.000000e+00   0.000000e+00   2.114552e+06   0.000000e+00   0.000000e+00   0.000000e+00
      440000   4.399990e-06   8.797907e+00   4.693677e+00   1.368358e+01   1.976797e+06  -6.907909e+05   2.939579e+05   0.000000e+00   0.000000e+00   0.000000e+00   2.114552e+06   0.000000e+00   0.000000e+00   0.000000e+00
      448000   4.479990e-06   8.956050e+00   4.638414e+00   1.370710e+01   1.976797e+06  -6.907909e+05   2.939579e+05   0.000000e+00   0.000000e+00   0.000000e+00   2.114552e+06   0.000000e+00   0.000000e+00   0.000000e+00
      456000   4.559990e-06   9.114194e+00   4.583151e+00   1.373061e+01   1.976797e+06  -6.907909e+05   2.939579e+05   0.000000e+00   0.000000e+00   0.000000e+00   2.114552e+06   0.000000e+00   0.000000e+00   0.000000e+00
      464000   4.639990e-06   9.272338e+00   4.527887e+00   1.375413e+01   1.976797e+06  -6.907909e+05   2.939579e+05   0.000000e+00   0.000000e+00   0.000000e+00   2.114552e+06   0.000000e+00   0.000000e+00   0.000000e+00
      472000   4.719990e-06   9.430482e+00   4.472624e+00   1.377765e+01   1.976797e+06  -6.907909e+05   2.939579e+05   0.000000e+00   0.000000e+00   0.000000e+00   2.114552e+06   0.000000e+00   0.000000e+00   0.000000e+00
      480000   4.799990e-06   9.588625e+00   4.417361e+00   1.380116e+01   1.976797e+06  -6.907909e+05   2.939579e+05   0.000000e+00   0.000000e+00   0.000000e+00   2.114552e+06   0.000000e+00   0.000000e+00   0.000000e+00
      488000   4.879990e-06   9.746769e+00   4.362098e+00   1.382468e+01   1.976797e+06  -6.907909e+05   2.939579e+05   0.000000e+00   0.000000e+00   0.000000e+00   2.114552e+06   0.000000e+00   0.000000e+00   0.000000e+00
      496000   4.959990e-06   9.904913e+00   4.306834e+00   1.384820e+01   1.976797e+06  -6.907909e+05   2.939579e+05   0.000000e+00   0.000000e+00   0.000000e+00   2.114552e+06   0.000000e+00   0.000000e+00   0.000000e+00
      504000   5.039990e-06   1.006306e+01   4.251571e+00   1.387171e+01   1.976797e+06  -6.907909e+05   2.939579e+05   0.000000e+00   0.000000e+00   0.000000e+00   2.114552e+06   0.000000e+00   0.000000e+00   0.000000e+00
      512000   5.119990e-06   1.022120e+01   4.196308e+00   1.389523e+01   1.976797e+06  -6.907909e+05   2.939579e+05   0.000000e+00   0.000000e+00   0.000000e+00   2.114552e+06   0.000000e+00   0.000000e+00   0.000000e+00
      520000   5.199990e-06   1.037934e+01   4.141045e+00   1.391875e+01   1.976797e+06  -6.907909e+05   2.939579e+05   0.000000e+00   0.000000e+00   0.000000e+00   2.114552e+06   0.000000e+00   0.000000e+00   0.000000e+00
      528000   5.279990e-06   1.053749e+01   4.085781e+00   1.394226e+01   1.976797e+06  -6.907909e+05   2.939579e+05   0.000000e+00   0.000000e+00   0.000000e+00   2.114552e+06   0.000000e+00   0.000000e+00   0.000000e+00
      536000   5.359990e-06   1.069563e+01   4.030518e+00   1.396578e+01   1.976797e+06  -6.907909e+05   2.939579e+05   0.000000e+00   0.000000e+00   0.000000e+00   2.114552e+06   0.000000e+00   0.000000e+00   0.000000e+00
      544000   5.439990e-06   1.085378e+01   3.975255e+00   1.398930e+01   1.976797e+06  -6.907909e+05   2.939579e+05   0.000000e+00   0.000000e+00   0.000000e+00   2.114552e+06   0.000000e+00   0.000000e+00   0.000000e+00
      552000   5.519990e-06   1.101192e+01   3.919991e+00   1.401281e+01   1.976797e+06  -6.907909e+05   2.939579e+05   0.000000e+00   0.000000e+00   0.000000e+00   2.114552e+06   0.000000e+00   0.000000e+00   0.000000e+00
      560000   5.599990e-06   1.117006e+01   3.864728e+00   1.403633e+01   1.976797e+06  -6.907909e+05   2.939579e+05   0.000000e+00   0.000000e+00   0.000000e+00   2.114552e+06   0.000000e+00   0.000000e+00   0.000000e+00
      568000   5.679990e-06   1.132821e+01   3.809465e+00   1.405985e+01   1.976797e+06  -6.907909e+05   2.939579e+05   0.000000e+00   0.000000e+00   0.000000e+00   2.114552e+06   0.000000e+00   0.000000e+00   0.000000e+00
      576000   5.759990e-06   1.148635e+01   3.754202e+00   1.408336e+01   1.976797e+06  -6.907909e+05   2.939579e+05   0.000000e+00   0.000000e+00   0.000000e+00   2.114552e+06   0.000000e+00   0.000000e+00   0.000000e+00
      584000   5.839990e-06   1.164449e+01   3.698938e+00   1.410688e+01   1.976797e+06  -6.907909e+05   2.939579e+05   0.000000e+00   0.000000e+00   0.000000e+00   2.114552e+06   0.000000e+00   0.000000e+00   0.000000e+00
      592000   5.919990e-06   1.180264e+01   3.643675e+00   1.413040e+01   1.976797e+06  -6.907909e+05   2.939579e+05   0.000000e+00   0.000000e+00   0.000000e+00   2.114552e+06   0.000000e+00   0.000000e+00   0.000000e+00
      600000   5.999990e-06   1.196078e+01   3.588412e+00   1.415391e+01   1.976797e+06  -6.907909e+05   2.939579e+05   0.000000e+00   0.000000e+00   0.000000e+00   2.114552e+06   0.000000e+00   0.000000e+00   0.000000e+00
      608000   6.079990e-06   1.211893e+01   3.533149e+00   1.417743e+01   1.976797e+06  -6.907909e+05   2.939579e+05   0.000000e+00   0.000000e+00   0.000000e+00   2.114552e+06   0.000000e+00   0.000000e+00   0.000000e+00
      616000   6.159990e-06   1.227707e+01   3.477885e+00   1.420095e+01   1.976797e+06  -6.907909e+05   2.939579e+05   0.000000e+00   0.000000e+00   0.000000e+00   2.114552e+06   0.000000e+00   0.000000e+00   0.000000e+00
      624000   6.239990e-06   1.243521e+01   3.422622e+00   1.422446e+01   1.976797e+06  -6.907909e+05   2.939579e+05   0.000000e+00   0.000000e+00   0.000000e+00   2.114552e+06   0.000000e+00   0.000000e+00   0.000000e+00
      632000   6.319990e-06   1.259336e+01   3.367359e+00   1.424798e+01   1.976797e+06  -6.907909e+05   2.939579e+05   0.000000e+00   0.000000e+00   0.000000e+00   2.114552e+06   0.000000e+00   0.000000e+00   0.000000e+00
      640000   6.399990e-06   1.275150e+01   3.312095e+00   1.427150e+01   1.976797e+06  -6.907909e+05   2.939579e+05   0.000000e+00   0.000000e+00   0.000000e+00   2.114552e+06   0.000000e+00   0.000000e+00   0.000000e+00
      648000   6.479990e-06   1.290964e+01   3.256832e+00   1.429501e+01   1.976797e+06  -6.907909e+05   2.939579e+05   0.000000e+00   0.000000e+00   0.000000e+00   2.114552e+06   0.000000e+00   0.000000e+00   0.000000e+00
      656000   6.559990e-06   1.306779e+01   3.201569e+00   1.431853e+01   1.976797e+06  -6.907909e+05   2.939579e+05   0.000000e+00   0.000000e+00   0.000000e+00   2.114552e+06   0.000000e+00   0.000000e+00   0.000000e+00
      664000   6.639990e-06   1.322593e+01   3.146306e+00   1.434205e+01   1.976797e+06  -6.907909e+05   2.939579e+05   0.000000e+00   0.000000e+00   0.000000e+00   2.114552e+06   0.000000e+00   0.000000e+00   0.000000e+00
      672000   6.719990e-06   1.338408e+01   3.091042e+00   1.436556e+01   1.976797e+06  -6.907909e+05   2.939579e+05   0.000000e+00   0.000000e+00   0.000000e+00   2.114552e+06   0.000000e+00   0.000000e+00   0.000000e+00
      680000   6.799990e-06   1.354222e+01   3.035779e+00   1.438908e+01   1.976797e+06  -6.907909e+05   2.939579e+05   0.000000e+00   0.000000e+00   0.000000e+00   2.114552e+06   0.000000e+00   0.000000e+00   0.000000e+00
      688000   6.879990e-06   1.370036e+01   2.980516e+00   1.441260e+01   1.976797e+06  -6.907909e+05   2.939579e+05   0.000000e+00   0.000000e+00   0.000000e+00   2.114552e+06   0.000000e+00   0.000000e+00   0.000000e+00
      696000   6.959990e-06   1.385851e+01   2.925253e+00   1.443611e+01   1.976797e+06  -6.907909e+05   2.939579e+05   0.000000e+00   0.000000e+00   0.000000e+00   2.114552e+06   0.000000e+00   0.000000e+00   0.000000e+00
      704000   7.039990e-06   1.401665e+01   2.869989e+00   1.445963e+01   1.976797e+06  -6.907909e+05   2.939579e+05   0.000000e+00   0.000000e+00   0.000000e+00   2.114552e+06   0.000000e+00   0.000000e+00   0.000000e+00
      712000   7.119990e-06   1.417479e+01   2.814726e+00   1.448315e+01   1.976797e+06  -6.907909e+05   2.939579e+05   0.000000e+00   0.000000e+00   0.000000e+00   2.114552e+06   0.000000e+00   0.000000e+00   0.000000e+00
      720000   7.199990e-06   1.433294e+01   2.759463e+00   1.450666e+01   1.976797e+06  -6.907909e+05   2.939579e+05   0.000000e+00   0.000000e+00   0.000000e+00   2.114552e+06   0.000000e+00   0.000000e+00   0.000000e+00
      728000   7.279990e-06   1.449108e+01   2.704200e+00   1.453018e+01   1.976797e+06  -6.907909e+05   2.939579e+05   0.000000e+00   0.000000e+00   0.000000e+00   2.114552e+06   0.000000e+00   0.000000e+00   0.000000e+00
      736000   7.359990e-06   1.464923e+01   2.648936e+00   1.455370e+01   1.976797e+06  -6.907909e+05   2.939579e+05   0.000000e+00   0.000000e+00   0.000000e+00   2.114552e+06   0.000000e+00   0.000000e+00   0.000000e+00
      744000   7.439990e-06   1.480737e+01   2.593673e+00   1.457721e+01   1.976797e+06  -6.907909e+05   2.939579e+05   0.000000e+00   0.000000e+00   0.000000e+00   2.114552e+06   0.000000e+00   0.000000e+00   0.000000e+00
      752000   7.519990e-06   1.496551e+01   2.538410e+00   1.460073e+01   1.976797e+06  -6.907909e+05   2.939579e+05   0.000000e+00   0.000000e+00   0.000000e+00   2.114552e+06   0.000000e+00   0.000000e+00   0.000000e+00
      760000   7.599990e-06   1.512366e+01   2.483146e+00   1.462425e+01   1.976797e+06  -6.907909e+05   2.939579e+05   0.000000e+00   0.000000e+00   0.000000e+00   2.114552e+06   0.000000e+00   0.000000e+00   0.000000e+00
      768000   7.679990e-06   1.528180e+01   2.427883e+00   1.464776e+01   1.976797e+06  -6.907909e+05   2.939579e+05   0.000000e+00   0.000000e+00   0.000000e+00   2.114552e+06   0.000000e+00   0.000000e+00   0.000000e+00
      776000   7.759990e-06   1.543994e+01   2.372620e+00   1.467128e+01   1.976797e+06  -6.907909e+05   2.939579e+05   0.000000e+00   0.000000e+00   0.000000e+00   2.114552e+06   0.000000e+00   0.000000e+00   0.000000e+00
      784000   7.839990e-06   1.559809e+01   2.317357e+00   1.469480e+01   1.976797e+06  -6.907909e+05   2.939579e+05   0.000000e+00   0.000000e+00   0.000000e+00   2.114552e+06   0.000000e+00   0.000000e+00   0.000000e+00
      792000   7.919990e-06   1.575623e+01   2.262093e+00   1.471831e+01   1.976797e+06  -6.907909e+05   2.939579e+05   0.000000e+00   0.000000e+00   0.000000e+00   2.114552e+06   0.000000e+00   0.000000e+00   0.000000e+00
      800000   7.999990e-06   1.591438e+01   2.206830e+00   1.474183e+01   1.976797e+06  -6.907909e+05   2.939579e+05   0.000000e+00   0.000000e+00   0.000000e+00   2.114552e+06   0.000000e+00   0.000000e+00   0.000000e+00
      808000   8.079990e-06   1.607252e+01   2.151567e+00   1.476535e+01   1.976797e+06  -6.907909e+05   2.939579e+05   0.000000e+00   0.000000e+00   0.000000e+00   2.114552e+06   0.000000e+00   0.000000e+00   0.000000e+00
      816000   8.159990e-06   1.623066e+01   2.096304e+00   1.478886e+01   1.976797e+06  -6.907909e+05   2.939579e+05   0.000000e+00   0.000000e+00   0.000000e+00   2.114552e+06   0.000000e+00   0.000000e+00   0.000000e+00
      824000   8.239990e-06   1.638881e+01   2.041040e+00   1.481238e+01   1.976797e+06  -6.907909e+05   2.939579e+05   0.000000e+00   0.000000e+00   0.000000e+00   2.114552e+06   0.000000e+00   0.000000e+00   0.000000e+00
      832000   8.319990e-06   1.654695e+01   1.985777e+00   1.483590e+01   1.976797e+06  -6.907909e+05   2.939579e+05   0.000000e+00   0.000000e+00   0.000000e+00   2.114552e+06   0.000000e+00   0.000000e+00   0.000000e+00
      840000   8.399990e-06   1.670509e+01   1.930514e+00   1.485941e+01   1.976797e+06  -6.907909e+05   2.939579e+05   0.000000e+00   0.000000e+00   0.000000e+00   2.114552e+06   0.000000e+00   0.000000e+00   0.000000e+00
      848000   8.479990e-06   1.686324e+01   1.875250e+00   1.488293e+01   1.976797e+06  -6.907909e+05   2.939579e+05   0.000000e+00   0.000000e+00   0.000000e+00   2.114552e+06   0.000000e+00   0.000000e+00   0.000000e+00
      856000   8.559990e-06   1.702138e+01   1.819987e+00   1.490645e+01   1.976797e+06  -6.907909e+05   2.939579e+05   0.000000e+00   0.000000e+00   0.000000e+00   2.114552e+06   0.000000e+00   0.000000e+00   0.000000e+00
      864000   8.639990e-06   1.717953e+01   1.764724e+00   1.492996e+01   1.976797e+06  -6.907909e+05   2.939579e+05   0.000000e+00   0.000000e+00   0.000000e+00   2.114552e+06   0.000000e+00   0.000000e+00   0.000000e+00
      872000   8.719990e-06   1.733767e+01   1.709461e+00   1.495348e+01   1.976797e+06  -6.907909e+05   2.939579e+05   0.000000e+00   0.000000e+00   0.000000e+00   2.114552e+06   0.000000e+00   0.000000e+00   0.000000e+00
      880000   8.799990e-06   1.749581e+01   1.654197e+00   1.497700e+01   1.976797e+06  -6.907909e+05   2.939579e+05   0.000000e+00   0.000000e+00   0.000000e+00   2.114552e+06   0.000000e+00   0.000000e+00   0.000000e+00
      888000   8.879990e-06   1.765396e+01   1.598934e+00   1.500051e+01   1.976797e+06  -6.907909e+05   2.939579e+05   0.000000e+00   0.000000e+00   0.000000e+00   2.114552e+06   0.000000e+00   0.000000e+00   0.000000e+00
      896000   8.959990e-06   1.781210e+01   1.543671e+00   1.502403e+01   1.976797e+06  -6.907909e+05   2.939579e+05   0.000000e+00   0.000000e+00   0.000000e+00   2.114552e+06   0.000000e+00   0.000000e+00   0.000000e+00
      904000   9.039990e-06   1.797024e+01   1.488408e+00   1.504755e+01   1.976797e+06  -6.907909e+05   2.939579e+05   0.000000e+00   0.000000e+00   0.000000e+00   2.114552e+06   0.000000e+00   0.000000e+00   0.000000e+00
      912000   9.119990e-06   1.812839e+01   1.433144e+00   1.507106e+01   1.976797e+06  -6.907909e+05   2.939579e+05   0.000000e+00   0.000000e+00   0.000000e+00   2.114552e+06   0.000000e+00   0.000000e+00   0.000000e+00
      920000   9.199990e-06   1.828653e+01   1.377881e+00   1.509458e+01   1.976797e+06  -6.907909e+05   2.939579e+05   0.000000e+00   0.000000e+00   0.000000e+00   2.114552e+06   0.000000e+00   0.000000e+00   0.000000e+00
      928000   9.279990e-06   1.844468e+01   1.322618e+00   1.511810e+01   1.976797e+06  -6.907909e+05   2.939579e+05   0.000000e+00   0.000000e+00   0.000000e+00   2.114552e+06   0.000000e+00   0.000000e+00   0.000000e+00
      936000   9.359990e-06   1.860282e+01   1.267355e+00   1.514161e+01   1.976797e+06  -6.907909e+05   2.939579e+05   0.000000e+00   0.000000e+00   0.000000e+00   2.114552e+06   0.000000e+00   0.000000e+00   0.000000e+00
      944000   9.439990e-06   1.876096e+01   1.212091e+00   1.516513e+01   1.976797e+06  -6.907909e+05   2.939579e+05   0.000000e+00   0.000000e+00   0.000000e+00   2.114552e+06   0.000000e+00   0.000000e+00   0.000000e+00
      952000   9.519990e-06   1.891911e+01   1.156828e+00   1.518865e+01   1.976797e+06  -6.907909e+05   2.939579e+05   0.000000e+00   0.000000e+00   0.000000e+00   2.114552e+06   0.000000e+00   0.000000e+00   0.000000e+00
      960000   9.599990e-06   1.907725e+01   1.101565e+00   1.521216e+01   1.976797e+06  -6.907909e+05   2.939579e+05   0.000000e+00   0.000000e+00   0.000000e+00   2.114552e+06   0.000000e+00   0.000000e+00   0.000000e+00
      968000   9.679990e-06   1.923539e+01   1.046301e+00   1.523568e+01   1.976797e+06  -6.907909e+05   2.939579e+05   0.000000e+00   0.000000e+00   0.000000e+00   2.114552e+06   0.000000e+00   0.000000e+00   0.000000e+00
      976000   9.759990e-06   1.939354e+01   9.910382e-01   1.525919e+01   1.976797e+06  -6.907909e+05   2.939579e+05   0.000000e+00   0.000000e+00   0.000000e+00   2.114552e+06   0.000000e+00   0.000000e+00   0.000000e+00
      984000   9.839990e-06   1.955168e+01   9.357749e-01   1.528271e+01   1.976797e+06  -6.907909e+05   2.939579e+05   0.000000e+00   0.000000e+00   0.000000e+00   2.114552e+06   0.000000e+00   0.000000e+00   0.000000e+00
      992000   9.919990e-06   1.970983e+01   8.805116e-01   1.530623e+01   1.976797e+06  -6.907909e+05   2.939579e+05   0.000000e+00   0.000000e+00   0.000000e+00   2.114552e+06   0.000000e+00   0.000000e+00   0.000000e+00
     1000000   9.999990e-06   1.986797e+01   8.252484e-01   1.532974e+01   1.976797e+06  -6.907909e+05   2.939579e+05   0.000000e+00   0.000000e+00   0.000000e+00   2.114552e+06   0.000000e+00   0.000000e+00   0.000000e+00
     1008000   1.007999e-05   2.002611e+01   7.699851e-01   1.535326e+01   1.976797e+06  -6.907909e+05   2.939579e+05   0.000000e+00   0.000000e+00   0.000000e+00   2.114552e+06   0.000000e+00   0.000000e+00   0.000000e+00
     1016000   1.015999e-05   2.018426e+01   7.147218e-01   1.537678e+01   1.976797e+06  -6.907909e+05   2.939579e+05   0.000000e+00   0.000000e+00   0.000000e+00   2.114552e+06   0.000000e+00   0.000000e+00   0.000000e+00
     1024000   1.023999e-05   2.034240e+01   6.594586e-01   1.540029e+01   1.976797e+06  -6.907909e+05   2.939579e+05   0.000000e+00   0.000000e+00   0.000000e+00   2.114552e+06   0.000000e+00   0.000000e+00   0.000000e+00
     1032000   1.031999e-05   2.050054e+01   6.041953e-01   1.542381e+01   1.976797e+06  -6.907909e+05   2.939579e+05   0.000000e+00   0.000000e+00   0.000000e+00   2.114552e+06   0.000000e+00   0.000000e+00   0.000000e+00
     1040000   1.039999e-05   2.065869e+01   5.489320e-01   1.544733e+01   1.976797e+06  -6.907909e+05   2.939579e+05   0.000000e+00   0.000000e+00   0.000000e+00   2.114552e+06   0.000000e+00   0.000000e+00   0.000000e+00
     1048000   1.047999e-05   2.081683e+01   4.936688e-01   1.547084e+01   1.976797e+06  -6.907909e+05   2.939579e+05   0.000000e+00   0.000000e+00   0.000000e+00   2.114552e+06   0.000000e+00   0.000000e+00   0.000000e+00
     1056000   1.055999e-05   2.097498e+01   4.384055e-01   1.549436e+01   1.976797e+06  -6.907909e+05   2.939579e+05   0.000000e+00   0.000000e+00   0.000000e+00   2.114552e+06   0.000000e+00   0.000000e+00   0.000000e+00
     1064000   1.063999e-05   2.113312e+01   3.831422e-01   1.551788e+01   1.976797e+06  -6.907909e+05   2.939579e+05   0.000000e+00   0.000000e+00   0.000000e+00   2.114552e+06   0.000000e+00   0.000000e+00   0.000000e+00
     1072000   1.071999e-05   2.129126e+01   3.278789e-01   1.554139e+01   1.976797e+06  -6.907909e+05   2.939579e+05   0.000000e+00   0.000000e+00   0.000000e+00   2.114552e+06   0.000000e+00   0.000000e+00   0.000000e+00
     1080000   1.079999e-05   2.144941e+01   2.726157e-01   1.556491e+01   1.976797e+06  -6.907909e+05   2.939579e+05   0.000000e+00   0.000000e+00   0.000000e+00   2.114552e+06   0.000000e+00   0.000000e+00   0.000000e+00
     1088000   1.087999e-05   2.160755e+01   2.173524e-01   1.558843e+01   1.976797e+06  -6.907909e+05   2.939579e+05   0.000000e+00   0.000000e+00   0.000000e+00   2.114552e+06   0.000000e+00   0.000000e+00   0.000000e+00
     1096000   1.095999e-05   2.176569e+01   1.620891e-01   1.561194e+01   1.976797e+06  -6.907909e+05   2.939579e+05   0.000000e+00   0.000000e+00   0.000000e+00   2.114552e+06   0.000000e+00   0.000000e+00   0.000000e+00
     1104000   1.103999e-05   2.192384e+01   1.068259e-01   1.563546e+01   1.976797e+06  -6.907909e+05   2.939579e+05   0.000000e+00   0.000000e+00   0.000000e+00   2.114552e+06   0.000000e+00   0.000000e+00   0.000000e+00
     1112000   1.111999e-05   2.208198e+01   5.156260e-02   1.565898e+01   1.976797e+06  -6.907909e+05   2.939579e+05   0.000000e+00   0.000000e+00   0.000000e+00   2.114552e+06   0.000000e+00   0.000000e+00   0.000000e+00
