     timestep     time              x             y              z              vx             vy             vz             ax             ay             az         v_magnitude      ELoss        Electronic      Nuclear
           0   0.000000e+00   1.000000e-01   1.830251e+01   1.541575e+01   9.555977e+05   1.338647e+06   8.094650e+05   0.000000e+00   0.000000e+00   0.000000e+00   1.833133e+06   0.000000e+00   0.000000e+00   0.000000e+00
        8000   7.999000e-08   1.764478e-01   1.840960e+01   1.548050e+01   9.555977e+05   1.338647e+06   8.094650e+05   0.000000e+00   0.000000e+00   0.000000e+00   1.833133e+06   0.000000e+00   0.000000e+00   0.000000e+00
       16000   1.599900e-07   2.528956e-01   1.851669e+01   1.554526e+01   9.555977e+05   1.338647e+06   8.094650e+05   0.000000e+00   0.000000e+00   0.000000e+00   1.833133e+06   0.000000e+00   0.000000e+00   0.000000e+00
       24000   2.399900e-07   3.293435e-01   1.862378e+01   1.561002e+01   9.555977e+05   1.338647e+06   8.094650e+05   0.000000e+00   0.000000e+00   0.000000e+00   1.833133e+06   0.000000e+00   0.000000e+00   0.000000e+00
       32000   3.199900e-07   4.057913e-01   1.873087e+01   1.567478e+01   9.555977e+05   1.338647e+06   8.094650e+05   0.000000e+00   0.000000e+00   0.000000e+00   1.833133e+06   0.000000e+00   0.000000e+00   0.000000e+00
       40000   3.999900e-07   4.822391e-01   1.883797e+01   1.573953e+01   9.555977e+05   1.338647e+06   8.094650e+05   0.000000e+00   0.000000e+00   0.000000e+00   1.833133e+06   0.000000e+00   0.000000e+00   0.000000e+00
       48000   4.799900e-07   5.586869e-01   1.894506e+01   1.580429e+01   9.555977e+05   1.338647e+06   8.094650e+05   0.000000e+00   0.000000e+00   0.000000e+00   1.833133e+06   0.000000e+00   0.000000e+00   0.000000e+00
       56000   5.599900e-07   6.351347e-01   1.905215e+01   1.586905e+01   9.555977e+05   1.338647e+06   8.094650e+05   0.000000e+00   0.000000e+00   0.000000e+00   1.833133e+06   0.000000e+00   0.000000e+00   0.000000e+00
       64000   6.399900e-07   7.115825e-01   1.915924e+01   1.593380e+01   9.555977e+05   1.338647e+06   8.094650e+05   0.000000e+00   0.000000e+00   0.000000e+00   1.833133e+06   0.000000e+00   0.000000e+00   0.000000e+00
       72000   7.199900e-07   7.880304e-01   1.926633e+01   1.599856e+01   9.555977e+05   1.338647e+06   8.094650e+05   0.000000e+00   0.000000e+00   0.000000e+00   1.833133e+06   0.000000e+00   0.000000e+00   0.000000e+00
       80000   7.999900e-07   8.644782e-01   1.937343e+01   1.606332e+01   9.555977e+05   1.338647e+06   8.094650e+05   0.000000e+00   0.000000e+00   0.000000e+00   1.833133e+06   0.000000e+00   0.000000e+00   0.000000e+00
       88000   8.799900e-07   9.409260e-01   1.948052e+01   1.612808e+01   9.555977e+05   1.338647e+06   8.094650e+05   0.000000e+00   0.000000e+00   0.000000e+00   1.833133e+06   0.000000e+00   0.000000e+00   0.000000e+00
       96000   9.599900e-07   1.017374e+00   1.958761e+01   1.619283e+01   9.555977e+05   1.338647e+06   8.094650e+05   0.000000e+00   0.000000e+00   0.000000e+00   1.833133e+06   0.000000e+00   0.000000e+00   0.000000e+00
      104000   1.039990e-06   1.093822e+00   1.969470e+01   1.625759e+01   9.555977e+05   1.338647e+06   8.094650e+05   0.000000e+00   0.000000e+00   0.000000e+00   1.833133e+06   0.000000e+00   0.000000e+00   0.000000e+00
      112000   1.119990e-06   1.170269e+00   1.980179e+01   1.632235e+01   9.555977e+05   1.338647e+06   8.094650e+05   0.000000e+00   0.000000e+00   0.000000e+00   1.833133e+06   0.000000e+00   0.000000e+00   0.000000e+00
      120000   1.199990e-06   1.246717e+00   1.990888e+01   1.638710e+01   9.555977e+05   1.338647e+06   8.094650e+05   0.000000e+00   0.000000e+00   0.000000e+00   1.833133e+06   0.000000e+00   0.000000e+00   0.000000e+00
      128000   1.279990e-06   1.323165e+00   2.001598e+01   1.645186e+01   9.555977e+05   1.338647e+06   8.094650e+05   0.000000e+00   0.000000e+00   0.000000e+00   1.833133e+06   0.000000e+00   0.000000e+00   0.000000e+00
      136000   1.359990e-06   1.399613e+00   2.012307e+01   1.651662e+01   9.555977e+05   1.338647e+06   8.094650e+05   0.000000e+00   0.000000e+00   0.000000e+00   1.833133e+06   0.000000e+00   0.000000e+00   0.000000e+00
      144000   1.439990e-06   1.476061e+00   2.023016e+01   1.658138e+01   9.555977e+05   1.338647e+06   8.094650e+05   0.000000e+00   0.000000e+00   0.000000e+00   1.833133e+06   0.000000e+00   0.000000e+00   0.000000e+00
      152000   1.519990e-06   1.552509e+00   2.033725e+01   1.664613e+01   9.555977e+05   1.338647e+06   8.094650e+05   0.000000e+00   0.000000e+00   0.000000e+00   1.833133e+06   0.000000e+00   0.000000e+00   0.000000e+00
      160000   1.599990e-06   1.628956e+00   2.044434e+01   1.671089e+01   9.555977e+05   1.338647e+06   8.094650e+05   0.000000e+00   0.000000e+00   0.000000e+00   1.833133e+06   0.000000e+00   0.000000e+00   0.000000e+00
      168000   1.679990e-06   1.705404e+00   2.055143e+01   1.677565e+01   9.555977e+05   1.338647e+06   8.094650e+05   0.000000e+00   0.000000e+00   0.000000e+00   1.833133e+06   0.000000e+00   0.000000e+00   0.000000e+00
      176000   1.759990e-06   1.781852e+00   2.065853e+01   1.684041e+01   9.555977e+05   1.338647e+06   8.094650e+05   0.000000e+00   0.000000e+00   0.000000e+00   1.833133e+06   0.000000e+00   0.000000e+00   0.000000e+00
      184000   1.839990e-06   1.858300e+00   2.076562e+01   1.690516e+01   9.555977e+05   1.338647e+06   8.094650e+05   0.000000e+00   0.000000e+00   0.000000e+00   1.833133e+06   0.000000e+00   0.000000e+00   0.000000e+00
      192000   1.919990e-06   1.934748e+00   2.087271e+01   1.696992e+01   9.555977e+05   1.338647e+06   8.094650e+05   0.000000e+00   0.000000e+00   0.000000e+00   1.833133e+06   0.000000e+00   0.000000e+00   0.000000e+00
      200000   1.999990e-06   2.011195e+00   2.097980e+01   1.703468e+01   9.555977e+05   1.338647e+06   8.094650e+05   0.000000e+00   0.000000e+00   0.000000e+00   1.833133e+06   0.000000e+00   0.000000e+00   0.000000e+00
      208000   2.079990e-06   2.087643e+00   2.108689e+01   1.709943e+01   9.555977e+05   1.338647e+06   8.094650e+05   0.000000e+00   0.000000e+00   0.000000e+00   1.833133e+06   0.000000e+00   0.000000e+00   0.000000e+00
      216000   2.159990e-06   2.164091e+00   2.119398e+01   1.716419e+01   9.555977e+05   1.338647e+06   8.094650e+05   0.000000e+00   0.000000e+00   0.000000e+00   1.833133e+06   0.000000e+00   0.000000e+00   0.000000e+00
      224000   2.239990e-06   2.240539e+00   2.130108e+01   1.722895e+01   9.555977e+05   1.338647e+06   8.094650e+05   0.000000e+00   0.000000e+00   0.000000e+00   1.833133e+06   0.000000e+00   0.000000e+00   0.000000e+00
      232000   2.319990e-06   2.316987e+00   2.140817e+01   1.729371e+01   9.555977e+05   1.338647e+06   8.094650e+05   0.000000e+00   0.000000e+00   0.000000e+00   1.833133e+06   0.000000e+00   0.000000e+00   0.000000e+00
      240000   2.399990e-06   2.393435e+00   2.151526e+01   1.735846e+01   9.555977e+05   1.338647e+06   8.094650e+05   0.000000e+00   0.000000e+00   0.000000e+00   1.833133e+06   0.000000e+00   0.000000e+00   0.000000e+00
      248000   2.479990e-06   2.469882e+00   2.162235e+01   1.742322e+01   9.555977e+05   1.338647e+06   8.094650e+05   0.000000e+00   0.000000e+00   0.000000e+00   1.833133e+06   0.000000e+00   0.000000e+00   0.000000e+00
      256000   2.559990e-06   2.546330e+00   2.172944e+01   1.748798e+01   9.555977e+05   1.338647e+06   8.094650e+05   0.000000e+00   0.000000e+00   0.000000e+00   1.833133e+06   0.000000e+00   0.000000e+00   0.000000e+00
      264000   2.639990e-06   2.622778e+00   2.183653e+01   1.755273e+01   9.555977e+05   1.338647e+06   8.094650e+05   0.000000e+00   0.000000e+00   0.000000e+00   1.833133e+06   0.000000e+00   0.000000e+00   0.000000e+00
      272000   2.719990e-06   2.699226e+00   2.194363e+01   1.761749e+01   9.555977e+05   1.338647e+06   8.094650e+05   0.000000e+00   0.000000e+00   0.000000e+00   1.833133e+06   0.000000e+00   0.000000e+00   0.000000e+00
      280000   2.799990e-06   2.775674e+00   2.205072e+01   1.768225e+01   9.555977e+05   1.338647e+06   8.094650e+05   0.000000e+00   0.000000e+00   0.000000e+00   1.833133e+06   0.000000e+00   0.000000e+00   0.000000e+00
      288000   2.879990e-06   2.852121e+00   2.215781e+01   1.774701e+01   9.555977e+05   1.338647e+06   8.094650e+05   0.000000e+00   0.000000e+00   0.000000e+00   1.833133e+06   0.000000e+00   0.000000e+00   0.000000e+00
      296000   2.959990e-06   2.928569e+00   2.226490e+01   1.781176e+01   9.555977e+05   1.338647e+06   8.094650e+05   0.000000e+00   0.000000e+00   0.000000e+00   1.833133e+06   0.000000e+00   0.000000e+00   0.000000e+00
      304000   3.039990e-06   3.005017e+00   2.237199e+01   1.787652e+01   9.555977e+05   1.338647e+06   8.094650e+05   0.000000e+00   0.000000e+00   0.000000e+00   1.833133e+06   0.000000e+00   0.000000e+00   0.000000e+00
      312000   3.119990e-06   3.081465e+00   2.247909e+01   1.794128e+01   9.555977e+05   1.338647e+06   8.094650e+05   0.000000e+00   0.000000e+00   0.000000e+00   1.833133e+06   0.000000e+00   0.000000e+00   0.000000e+00
      320000   3.199990e-06   3.157913e+00   2.258618e+01   1.800603e+01   9.555977e+05   1.338647e+06   8.094650e+05   0.000000e+00   0.000000e+00   0.000000e+00   1.833133e+06   0.000000e+00   0.000000e+00   0.000000e+00
      328000   3.279990e-06   3.234361e+00   2.269327e+01   1.807079e+01   9.555977e+05   1.338647e+06   8.094650e+05   0.000000e+00   0.000000e+00   0.000000e+00   1.833133e+06   0.000000e+00   0.000000e+00   0.000000e+00
      336000   3.359990e-06   3.310808e+00   2.280036e+01   1.813555e+01   9.555977e+05   1.338647e+06   8.094650e+05   0.000000e+00   0.000000e+00   0.000000e+00   1.833133e+06   0.000000e+00   0.000000e+00   0.000000e+00
      344000   3.439990e-06   3.387256e+00   2.290745e+01   1.820031e+01   9.555977e+05   1.338647e+06   8.094650e+05   0.000000e+00   0.000000e+00   0.000000e+00   1.833133e+06   0.000000e+00   0.000000e+00   0.000000e+00
      352000   3.519990e-06   3.463704e+00   2.301454e+01   1.826506e+01   9.555977e+05   1.338647e+06   8.094650e+05   0.000000e+00   0.000000e+00   0.000000e+00   1.833133e+06   0.000000e+00   0.000000e+00   0.000000e+00
      360000   3.599990e-06   3.540152e+00   2.312164e+01   1.832982e+01   9.555977e+05   1.338647e+06   8.094650e+05   0.000000e+00   0.000000e+00   0.000000e+00   1.833133e+06   0.000000e+00   0.000000e+00   0.000000e+00
      368000   3.679990e-06   3.616600e+00   2.322873e+01   1.839458e+01   9.555977e+05   1.338647e+06   8.094650e+05   0.000000e+00   0.000000e+00   0.000000e+00   1.833133e+06   0.000000e+00   0.000000e+00   0.000000e+00
      376000   3.759990e-06   3.693047e+00   2.333582e+01   1.845934e+01   9.555977e+05   1.338647e+06   8.094650e+05   0.000000e+00   0.000000e+00   0.000000e+00   1.833133e+06   0.000000e+00   0.000000e+00   0.000000e+00
      384000   3.839990e-06   3.769495e+00   2.344291e+01   1.852409e+01   9.555977e+05   1.338647e+06   8.094650e+05   0.000000e+00   0.000000e+00   0.000000e+00   1.833133e+06   0.000000e+00   0.000000e+00   0.000000e+00
      392000   3.919990e-06   3.845943e+00   2.355000e+01   1.858885e+01   9.555977e+05   1.338647e+06   8.094650e+05   0.000000e+00   0.000000e+00   0.000000e+00   1.833133e+06   0.000000e+00   0.000000e+00   0.000000e+00
      400000   3.999990e-06   3.922391e+00   2.365709e+01   1.865361e+01   9.555977e+05   1.338647e+06   8.094650e+05   0.000000e+00   0.000000e+00   0.000000e+00   1.833133e+06   0.000000e+00   0.000000e+00   0.000000e+00
      408000   4.079990e-06   3.998839e+00   2.376419e+01   1.871836e+01   9.555977e+05   1.338647e+06   8.094650e+05   0.000000e+00   0.000000e+00   0.000000e+00   1.833133e+06   0.000000e+00   0.000000e+00   0.000000e+00
      416000   4.159990e-06   4.075287e+00   2.387128e+01   1.878312e+01   9.555977e+05   1.338647e+06   8.094650e+05   0.000000e+00   0.000000e+00   0.000000e+00   1.833133e+06   0.000000e+00   0.000000e+00   0.000000e+00
      424000   4.239990e-06   4.151734e+00   2.397837e+01   1.884788e+01   9.555977e+05   1.338647e+06   8.094650e+05   0.000000e+00   0.000000e+00   0.000000e+00   1.833133e+06   0.000000e+00   0.000000e+00   0.000000e+00
      432000   4.319990e-06   4.228182e+00   2.408546e+01   1.891264e+01   9.555977e+05   1.338647e+06   8.094650e+05   0.000000e+00   0.000000e+00   0.000000e+00   1.833133e+06   0.000000e+00   0.000000e+00   0.000000e+00
      440000   4.399990e-06   4.304630e+00   2.419255e+01   1.897739e+01   9.555977e+05   1.338647e+06   8.094650e+05   0.000000e+00   0.000000e+00   0.000000e+00   1.833133e+06   0.000000e+00   0.000000e+00   0.000000e+00
      448000   4.479990e-06   4.381078e+00   2.429964e+01   1.904215e+01   9.555977e+05   1.338647e+06   8.094650e+05   0.000000e+00   0.000000e+00   0.000000e+00   1.833133e+06   0.000000e+00   0.000000e+00   0.000000e+00
      456000   4.559990e-06   4.457526e+00   2.440674e+01   1.910691e+01   9.555977e+05   1.338647e+06   8.094650e+05   0.000000e+00   0.000000e+00   0.000000e+00   1.833133e+06   0.000000e+00   0.000000e+00   0.000000e+00
      464000   4.639990e-06   4.533973e+00   2.451383e+01   1.917166e+01   9.555977e+05   1.338647e+06   8.094650e+05   0.000000e+00   0.000000e+00   0.000000e+00   1.833133e+06   0.000000e+00   0.000000e+00   0.000000e+00
      472000   4.719990e-06   4.610421e+00   2.462092e+01   1.923642e+01   9.555977e+05   1.338647e+06   8.094650e+05   0.000000e+00   0.000000e+00   0.000000e+00   1.833133e+06   0.000000e+00   0.000000e+00   0.000000e+00
      480000   4.799990e-06   4.686869e+00   2.472801e+01   1.930118e+01   9.555977e+05   1.338647e+06   8.094650e+05   0.000000e+00   0.000000e+00   0.000000e+00   1.833133e+06   0.000000e+00   0.000000e+00   0.000000e+00
      488000   4.879990e-06   4.763317e+00   2.483510e+01   1.936594e+01   9.555977e+05   1.338647e+06   8.094650e+05   0.000000e+00   0.000000e+00   0.000000e+00   1.833133e+06   0.000000e+00   0.000000e+00   0.000000e+00
      496000   4.959990e-06   4.839765e+00   2.494220e+01   1.943069e+01   9.555977e+05   1.338647e+06   8.094650e+05   0.000000e+00   0.000000e+00   0.000000e+00   1.833133e+06   0.000000e+00   0.000000e+00   0.000000e+00
      504000   5.039990e-06   4.916213e+00   2.504929e+01   1.949545e+01   9.555977e+05   1.338647e+06   8.094650e+05   0.000000e+00   0.000000e+00   0.000000e+00   1.833133e+06   0.000000e+00   0.000000e+00   0.000000e+00
      512000   5.119990e-06   4.992660e+00   2.515638e+01   1.956021e+01   9.555977e+05   1.338647e+06   8.094648e+05   0.000000e+00   0.000000e+00   0.000000e+00   1.833133e+06   0.000000e+00   0.000000e+00   0.000000e+00
      520000   5.199990e-06   5.069108e+00   2.526347e+01   1.962496e+01   9.555978e+05   1.338649e+06   8.094616e+05   1.235626e+06   7.661656e+07  -1.281635e+08   1.833133e+06   1.803976e-25   0.000000e+00   0.000000e+00
      528000   5.279990e-06   5.145556e+00   2.537056e+01   1.968972e+01   9.555979e+05   1.338658e+06   8.094456e+05   3.856518e+06   1.864339e+08  -3.128765e+08   1.833133e+06   1.073644e-24   0.000000e+00   0.000000e+00
      536000   5.359990e-06   5.222004e+00   2.547766e+01   1.975448e+01   9.555983e+05   1.338671e+06   8.094237e+05   2.963379e+06   1.049038e+08  -1.769945e+08   1.833133e+06   3.428561e-25   0.000000e+00   0.000000e+00
      544000   5.439990e-06   5.298452e+00   2.558475e+01   1.981923e+01   9.555988e+05   1.338689e+06   8.093937e+05   8.359723e+06   2.410207e+08  -4.085037e+08   1.833133e+06   1.821568e-24   0.000000e+00   0.000000e+00
      552000   5.519990e-06   5.374900e+00   2.569185e+01   1.988398e+01   9.555994e+05   1.338704e+06   8.093672e+05   8.420662e+06   2.047462e+08  -3.485952e+08   1.833133e+06   1.323541e-24   0.000000e+00   0.000000e+00
      560000   5.599990e-06   5.451348e+00   2.579894e+01   1.994873e+01   9.555996e+05   1.338709e+06   8.093601e+05  -2.719598e+06  -7.298946e+07   1.239380e+08   1.833133e+06   1.673591e-25   0.000000e+00   0.000000e+00
      568000   5.679990e-06   5.527796e+00   2.590604e+01   2.001348e+01   9.555999e+05   1.338714e+06   8.093508e+05  -2.098338e+02   1.747086e+02  -4.122775e+01   1.833133e+06   6.172902e-37   0.000000e+00   0.000000e+00
      576000   5.759990e-06   5.604244e+00   2.601314e+01   2.007822e+01   9.555999e+05   1.338714e+06   8.093508e+05  -2.326886e+02   1.703532e+02  -7.039097e+00   1.833133e+06   6.735995e-37   0.000000e+00   0.000000e+00
      584000   5.839990e-06   5.680692e+00   2.612023e+01   2.014297e+01   9.555999e+05   1.338714e+06   8.093508e+05  -1.911484e+02   1.344681e+02   3.270483e+00   1.833133e+06   4.422075e-37   0.000000e+00   0.000000e+00
      592000   5.919990e-06   5.757140e+00   2.622733e+01   2.020772e+01   9.555999e+05   1.338714e+06   8.093508e+05  -2.060843e+02   1.471069e+02   2.119887e-19   1.833133e+06   5.188930e-37   0.000000e+00   0.000000e+00
      600000   5.999990e-06   5.833588e+00   2.633443e+01   2.027247e+01   9.555999e+05   1.338714e+06   8.093508e+05  -2.076551e+02   1.482282e+02   2.991955e-19   1.833133e+06   5.269750e-37   0.000000e+00   0.000000e+00
      608000   6.079990e-06   5.910036e+00   2.644152e+01   2.033722e+01   9.555999e+05   1.338714e+06   8.093508e+05  -1.892106e+02   1.350622e+02  -2.933275e-19   1.833133e+06   4.374596e-37   0.000000e+00   0.000000e+00
      616000   6.159990e-06   5.986484e+00   2.654862e+01   2.040196e+01   9.555999e+05   1.338714e+06   8.093508e+05  -2.234022e+02   1.594688e+02   5.609886e-20   1.833133e+06   6.098043e-37   0.000000e+00   0.000000e+00
      624000   6.239990e-06   6.062932e+00   2.665572e+01   2.046671e+01   9.555999e+05   1.338714e+06   8.093508e+05  -2.246871e+02   1.603859e+02  -3.442357e-19   1.833133e+06   6.168816e-37   0.000000e+00   0.000000e+00
      632000   6.319990e-06   6.139380e+00   2.676282e+01   2.053146e+01   9.555999e+05   1.338714e+06   8.093508e+05  -2.334107e+02   1.666131e+02   8.658548e-20   1.833133e+06   6.656814e-37   0.000000e+00   0.000000e+00
      640000   6.399990e-06   6.215828e+00   2.686991e+01   2.059621e+01   9.555999e+05   1.338714e+06   8.093508e+05  -2.515681e+02   1.795742e+02   1.037635e-19   1.833133e+06   7.732461e-37   0.000000e+00   0.000000e+00
      648000   6.479990e-06   6.292276e+00   2.697701e+01   2.066096e+01   9.555999e+05   1.338714e+06   8.093508e+05  -2.581412e+02   1.842662e+02   2.154319e-19   1.833133e+06   8.141829e-37   0.000000e+00   0.000000e+00
      656000   6.559990e-06   6.368724e+00   2.708411e+01   2.072571e+01   9.555999e+05   1.338714e+06   8.093508e+05  -1.891548e+02   1.350223e+02  -1.141673e-19   1.833133e+06   4.372291e-37   0.000000e+00   0.000000e+00
      664000   6.639990e-06   6.445172e+00   2.719120e+01   2.079045e+01   9.555999e+05   1.338714e+06   8.093508e+05  -2.611568e+02   1.864188e+02   2.877240e-19   1.833133e+06   8.333297e-37   0.000000e+00   0.000000e+00
      672000   6.719990e-06   6.521620e+00   2.729830e+01   2.085520e+01   9.555999e+05   1.338714e+06   8.093508e+05  -1.647909e+02   1.176309e+02  -3.263354e-19   1.833133e+06   3.319146e-37   0.000000e+00   0.000000e+00
      680000   6.799990e-06   6.598068e+00   2.740540e+01   2.091995e+01   9.555999e+05   1.338714e+06   8.093508e+05  -2.606394e+02   1.860494e+02   3.269657e-19   1.833133e+06   8.300721e-37   0.000000e+00   0.000000e+00
      688000   6.879990e-06   6.674516e+00   2.751250e+01   2.098470e+01   9.555999e+05   1.338714e+06   8.093508e+05  -1.711041e+02   1.221374e+02  -2.699202e-19   1.833133e+06   3.577569e-37   0.000000e+00   0.000000e+00
      696000   6.959990e-06   6.750964e+00   2.761959e+01   2.104945e+01   9.555999e+05   1.338714e+06   8.093508e+05  -2.230369e+02   1.592081e+02   2.719413e-19   1.833133e+06   6.078308e-37   0.000000e+00   0.000000e+00
      704000   7.039990e-06   6.827411e+00   2.772669e+01   2.111419e+01   9.555999e+05   1.338714e+06   8.093508e+05  -2.359760e+02   1.684442e+02  -8.894084e-20   1.833133e+06   6.803767e-37   0.000000e+00   0.000000e+00
      712000   7.119990e-06   6.903859e+00   2.783379e+01   2.117894e+01   9.555999e+05   1.338714e+06   8.093508e+05  -1.766512e+02   1.260970e+02   6.855889e-19   1.833133e+06   3.812821e-37   0.000000e+00   0.000000e+00
      720000   7.199990e-06   6.980307e+00   2.794088e+01   2.124369e+01   9.555999e+05   1.338714e+06   8.093508e+05  -1.942502e+02   1.386595e+02   3.873422e-19   1.833133e+06   4.611093e-37   0.000000e+00   0.000000e+00
      728000   7.279990e-06   7.056755e+00   2.804798e+01   2.130844e+01   9.555999e+05   1.338714e+06   8.093508e+05  -2.140140e+02   1.527673e+02  -1.190282e-19   1.833133e+06   5.597147e-37   0.000000e+00   0.000000e+00
      736000   7.359990e-06   7.133203e+00   2.815508e+01   2.137319e+01   9.555999e+05   1.338714e+06   8.093508e+05  -2.252257e+02   1.607705e+02  -2.585273e-19   1.833133e+06   6.197945e-37   0.000000e+00   0.000000e+00
      744000   7.439990e-06   7.209651e+00   2.826218e+01   2.143793e+01   9.555999e+05   1.338714e+06   8.093508e+05  -2.372296e+02   1.693391e+02   1.047505e-19   1.833133e+06   6.876631e-37   0.000000e+00   0.000000e+00
      752000   7.519990e-06   7.286099e+00   2.836927e+01   2.150268e+01   9.555999e+05   1.338714e+06   8.093508e+05  -1.398879e+02   9.985465e+01  -2.839713e-19   1.833133e+06   2.391681e-37   0.000000e+00   0.000000e+00
      760000   7.599990e-06   7.362547e+00   2.847637e+01   2.156743e+01   9.555999e+05   1.338714e+06   8.093508e+05  -2.194959e+02   1.566804e+02   2.278320e-19   1.833133e+06   5.886843e-37   0.000000e+00   0.000000e+00
      768000   7.679990e-06   7.438995e+00   2.858347e+01   2.163218e+01   9.555999e+05   1.338714e+06   8.093508e+05  -1.332657e+02   9.512760e+01  -3.255279e-19   1.833133e+06   2.170604e-37   0.000000e+00   0.000000e+00
      776000   7.759990e-06   7.515443e+00   2.869056e+01   2.169693e+01   9.555999e+05   1.338714e+06   8.093508e+05  -1.623999e+02   1.159242e+02  -1.413138e-19   1.833133e+06   3.223185e-37   0.000000e+00   0.000000e+00
      784000   7.839990e-06   7.591891e+00   2.879766e+01   2.176167e+01   9.555999e+05   1.338714e+06   8.093508e+05  -2.147445e+02   1.532888e+02   4.073713e-19   1.833133e+06   5.634702e-37   0.000000e+00   0.000000e+00
      792000   7.919990e-06   7.668339e+00   2.890476e+01   2.182642e+01   9.555999e+05   1.338714e+06   8.093508e+05  -1.977919e+02   1.411877e+02  -3.408598e-19   1.833133e+06   4.779980e-37   0.000000e+00   0.000000e+00
      800000   7.999990e-06   7.744787e+00   2.901186e+01   2.189117e+01   9.555999e+05   1.338714e+06   8.093508e+05  -1.994668e+02   1.423833e+02  -1.026218e-19   1.833133e+06   4.862180e-37   0.000000e+00   0.000000e+00
      808000   8.079990e-06   7.821235e+00   2.911895e+01   2.195592e+01   9.555999e+05   1.338714e+06   8.093508e+05  -1.958473e+02   1.397996e+02  -3.896325e-19   1.833133e+06   4.686956e-37   0.000000e+00   0.000000e+00
      816000   8.159990e-06   7.897683e+00   2.922605e+01   2.202067e+01   9.555999e+05   1.338714e+06   8.093508e+05  -1.725881e+02   1.231967e+02   3.663509e-19   1.833133e+06   3.639617e-37   0.000000e+00   0.000000e+00
      824000   8.239990e-06   7.974131e+00   2.933315e+01   2.208541e+01   9.555999e+05   1.338714e+06   8.093508e+05  -1.875529e+02   1.338789e+02  -2.874371e-20   1.833133e+06   4.297931e-37   0.000000e+00   0.000000e+00
      832000   8.319990e-06   8.050579e+00   2.944024e+01   2.215016e+01   9.555999e+05   1.338714e+06   8.093508e+05  -1.837829e+02   1.311878e+02  -2.359141e-19   1.833133e+06   4.126921e-37   0.000000e+00   0.000000e+00
      840000   8.399990e-06   8.127027e+00   2.954734e+01   2.221491e+01   9.555999e+05   1.338714e+06   8.093508e+05  -1.441680e+02   1.029099e+02  -3.775892e-20   1.833133e+06   2.540133e-37   0.000000e+00   0.000000e+00
      848000   8.479990e-06   8.203475e+00   2.965444e+01   2.227966e+01   9.555999e+05   1.338714e+06   8.093508e+05  -1.272570e+02   9.083852e+01  -1.339167e-21   1.833133e+06   1.978985e-37   0.000000e+00   0.000000e+00
      856000   8.559990e-06   8.279923e+00   2.976154e+01   2.234441e+01   9.555999e+05   1.338714e+06   8.093508e+05  -8.576387e+01   6.121990e+01  -8.460929e-20   1.833133e+06   8.989853e-38   0.000000e+00   0.000000e+00
      864000   8.639990e-06   8.356371e+00   2.986863e+01   2.240915e+01   9.555999e+05   1.338714e+06   8.093508e+05  -7.481560e+01   5.340482e+01   2.578274e-19   1.833133e+06   6.842205e-38   0.000000e+00   0.000000e+00
      872000   8.719990e-06   8.432819e+00   2.997573e+01   2.247390e+01   9.555999e+05   1.338714e+06   8.093508e+05  -1.129462e+02   8.062319e+01   6.832852e-20   1.833133e+06   1.558747e-37   0.000000e+00   0.000000e+00
      880000   8.799990e-06   8.509267e+00   3.008283e+01   2.253865e+01   9.555999e+05   1.338714e+06   8.093508e+05  -1.108302e+02   7.911273e+01  -1.340449e-19   1.833133e+06   1.500730e-37   0.000000e+00   0.000000e+00
      888000   8.879990e-06   8.585715e+00   3.018992e+01   2.260340e+01   9.555999e+05   1.338714e+06   8.093508e+05  -5.920404e+01   4.226099e+01  -4.538785e-20   1.833133e+06   4.283950e-38   0.000000e+00   0.000000e+00
      896000   8.959990e-06   8.662163e+00   3.029702e+01   2.266815e+01   9.555999e+05   1.338714e+06   8.093508e+05  -1.339999e+02   9.565171e+01   1.090955e-19   1.833133e+06   2.193975e-37   0.000000e+00   0.000000e+00
      904000   9.039990e-06   8.738611e+00   3.040412e+01   2.273290e+01   9.555999e+05   1.338714e+06   8.093508e+05  -1.158917e+02   8.272576e+01   7.420556e-20   1.833133e+06   1.641307e-37   0.000000e+00   0.000000e+00
      912000   9.119990e-06   8.815059e+00   3.051122e+01   2.279764e+01   9.555999e+05   1.338714e+06   8.093508e+05  -1.566003e+02   1.117843e+02   3.171811e-19   1.833133e+06   2.996540e-37   0.000000e+00   0.000000e+00
      920000   9.199990e-06   8.891507e+00   3.061831e+01   2.286239e+01   9.555999e+05   1.338714e+06   8.093508e+05  -1.677488e+02   1.197423e+02  -6.100689e-19   1.833133e+06   3.437534e-37   0.000000e+00   0.000000e+00
      928000   9.279990e-06   8.967955e+00   3.072541e+01   2.292714e+01   9.555999e+05   1.338714e+06   8.093508e+05  -4.685614e+01   3.344682e+01  -4.176573e-20   1.833133e+06   2.683666e-38   0.000000e+00   0.000000e+00
      936000   9.359990e-06   9.044403e+00   3.083251e+01   2.299189e+01   9.555999e+05   1.338714e+06   8.093508e+05  -8.875083e+01   6.335205e+01   1.693554e-19   1.833133e+06   9.620301e-38   0.000000e+00   0.000000e+00
      944000   9.439990e-06   9.120851e+00   3.093960e+01   2.305664e+01   9.555999e+05   1.338714e+06   8.093508e+05  -3.189075e+01   2.276423e+01  -3.920405e-20   1.833133e+06   1.243386e-38   0.000000e+00   0.000000e+00
      952000   9.519990e-06   9.197299e+00   3.104670e+01   2.312138e+01   9.555999e+05   1.338714e+06   8.093508e+05  -3.320867e+01   2.370499e+01   6.662317e-20   1.833133e+06   1.347833e-38   0.000000e+00   0.000000e+00
      960000   9.599990e-06   9.273747e+00   3.115380e+01   2.318613e+01   9.555999e+05   1.338714e+06   8.093508e+05  -5.274167e+01   3.764802e+01   4.025441e-20   1.833133e+06   3.398089e-38   0.000000e+00   0.000000e+00
      968000   9.679990e-06   9.350195e+00   3.126090e+01   2.325088e+01   9.555999e+05   1.338714e+06   8.093508e+05   2.779380e+01  -1.983975e+01   5.108236e-20   1.833133e+06   9.432956e-39   0.000000e+00   0.000000e+00
      976000   9.759990e-06   9.426643e+00   3.136799e+01   2.331563e+01   9.555999e+05   1.338714e+06   8.093508e+05   6.742067e+00  -4.812617e+00   5.775264e-21   1.833133e+06   5.552507e-40   0.000000e+00   0.000000e+00
      984000   9.839990e-06   9.503091e+00   3.147509e+01   2.338038e+01   9.555999e+05   1.338714e+06   8.093508e+05   3.779679e+01  -2.698008e+01   7.824211e-20   1.833133e+06   1.745664e-38   0.000000e+00   0.000000e+00
      992000   9.919990e-06   9.579539e+00   3.158219e+01   2.344512e+01   9.555999e+05   1.338714e+06   8.093508e+05   3.523041e+01  -2.514815e+01  -2.329004e-20   1.833133e+06   1.516683e-38   0.000000e+00   0.000000e+00
     1000000   9.999990e-06   9.655987e+00   3.168928e+01   2.350987e+01   9.555999e+05   1.338714e+06   8.093508e+05   7.842192e+00  -5.597908e+00   1.229525e-20   1.833133e+06   7.513608e-40   0.000000e+00   0.000000e+00
     1008000   1.007999e-05   9.732435e+00   3.179638e+01   2.357462e+01   9.555999e+05   1.338714e+06   8.093508e+05   2.233598e+00  -1.594385e+00  -8.570962e-21   1.833133e+06   6.154835e-41   0.000000e+00   0.000000e+00
     1016000   1.015999e-05   9.808883e+00   3.190348e+01   2.363937e+01   9.555999e+05   1.338714e+06   8.093508e+05   9.743004e+01  -6.954744e+01  -3.202430e-20   1.833133e+06   1.160375e-37   0.000000e+00   0.000000e+00
     1024000   1.023999e-05   9.885331e+00   3.201058e+01   2.370412e+01   9.555999e+05   1.338714e+06   8.093508e+05   5.507551e+01  -3.931396e+01   5.666640e-20   1.833133e+06   3.704966e-38   0.000000e+00   0.000000e+00
     1032000   1.031999e-05   9.961779e+00   3.211767e+01   2.376886e+01   9.555999e+05   1.338714e+06   8.093508e+05   8.153060e+01  -5.819811e+01  -9.484141e-20   1.833133e+06   8.124988e-38   0.000000e+00   0.000000e+00
     1040000   1.039999e-05   1.003823e+01   3.222477e+01   2.383361e+01   9.555999e+05   1.338714e+06   8.093508e+05   8.773720e+01  -6.262851e+01   6.260401e-20   1.833133e+06   9.408511e-38   0.000000e+00   0.000000e+00
     1048000   1.047999e-05   1.011468e+01   3.233187e+01   2.389836e+01   9.555999e+05   1.338714e+06   8.093508e+05   9.835464e+01  -7.020743e+01   1.367194e-21   1.833133e+06   1.182227e-37   0.000000e+00   0.000000e+00
     1056000   1.055999e-05   1.019112e+01   3.243896e+01   2.396311e+01   9.555999e+05   1.338714e+06   8.093508e+05   1.569452e+02  -1.120305e+02   7.995699e-20   1.833133e+06   3.009626e-37   0.000000e+00   0.000000e+00
     1064000   1.063999e-05   1.026757e+01   3.254606e+01   2.402786e+01   9.555999e+05   1.338714e+06   8.093508e+05   1.344175e+02  -9.594983e+01  -1.807327e-19   1.833133e+06   2.207691e-37   0.000000e+00   0.000000e+00
     1072000   1.071999e-05   1.034402e+01   3.265316e+01   2.409260e+01   9.555999e+05   1.338714e+06   8.093508e+05   1.765843e+02  -1.260493e+02  -1.513115e-19   1.833133e+06   3.810187e-37   0.000000e+00   0.000000e+00
     1080000   1.079999e-05   1.042047e+01   3.276026e+01   2.415735e+01   9.555999e+05   1.338714e+06   8.093508e+05   1.292346e+02  -9.225014e+01  -1.759323e-19   1.833133e+06   2.041102e-37   0.000000e+00   0.000000e+00
     1088000   1.087999e-05   1.049692e+01   3.286735e+01   2.422210e+01   9.555999e+05   1.338714e+06   8.093508e+05   1.839711e+02  -1.313221e+02  -1.219601e-20   1.833133e+06   4.135633e-37   0.000000e+00   0.000000e+00
     1096000   1.095999e-05   1.057336e+01   3.297445e+01   2.428685e+01   9.555999e+05   1.338714e+06   8.093508e+05   1.429782e+02  -1.020606e+02   8.097660e-22   1.833133e+06   2.498257e-37   0.000000e+00   0.000000e+00
     1104000   1.103999e-05   1.064981e+01   3.308155e+01   2.435160e+01   9.555999e+05   1.338714e+06   8.093508e+05   2.246722e+02  -1.603753e+02   4.934902e-19   1.833133e+06   6.167462e-37   0.000000e+00   0.000000e+00
     1112000   1.111999e-05   1.072626e+01   3.318864e+01   2.441635e+01   9.555999e+05   1.338714e+06   8.093508e+05   2.140899e+02  -1.528215e+02   3.495699e-19   1.833133e+06   5.600636e-37   0.000000e+00   0.000000e+00
     1120000   1.119999e-05   1.080271e+01   3.329574e+01   2.448109e+01   9.555999e+05   1.338714e+06   8.093508e+05   2.337178e+02  -1.668323e+02   1.300263e-19   1.833133e+06   6.674993e-37   0.000000e+00   0.000000e+00
     1128000   1.127999e-05   1.087916e+01   3.340284e+01   2.454584e+01   9.555999e+05   1.338714e+06   8.093508e+05   2.125323e+02  -1.517096e+02  -3.881902e-19   1.833133e+06   5.520054e-37   0.000000e+00   0.000000e+00
     1136000   1.135999e-05   1.095560e+01   3.350994e+01   2.461059e+01   9.555999e+05   1.338714e+06   8.093508e+05   2.778348e+02  -1.983239e+02  -1.243512e-19   1.833133e+06   9.431139e-37   0.000000e+00   0.000000e+00
     1144000   1.143999e-05   1.103205e+01   3.361703e+01   2.467534e+01   9.555999e+05   1.338714e+06   8.093508e+05   2.310519e+02  -1.649293e+02  -4.791815e-20   1.833133e+06   6.522521e-37   0.000000e+00   0.000000e+00
     1152000   1.151999e-05   1.110850e+01   3.372413e+01   2.474009e+01   9.555999e+05   1.338714e+06   8.093508e+05   2.574434e+02  -1.837681e+02  -3.804065e-19   1.833133e+06   8.098547e-37   0.000000e+00   0.000000e+00
     1160000   1.159999e-05   1.118495e+01   3.383123e+01   2.480483e+01   9.555999e+05   1.338714e+06   8.093508e+05   2.580491e+02  -1.842004e+02   7.029038e-19   1.833133e+06   8.137922e-37   0.000000e+00   0.000000e+00
     1168000   1.167999e-05   1.126139e+01   3.393832e+01   2.486958e+01   9.555999e+05   1.338714e+06   8.093508e+05   2.912677e+02  -2.079125e+02   1.443286e-19   1.833133e+06   1.036673e-36   0.000000e+00   0.000000e+00
     1176000   1.175999e-05   1.133784e+01   3.404542e+01   2.493433e+01   9.555999e+05   1.338714e+06   8.093508e+05   3.149973e+02  -2.248511e+02  -5.353721e-19   1.833133e+06   1.212367e-36   0.000000e+00   0.000000e+00
     1184000   1.183999e-05   1.141429e+01   3.415252e+01   2.499908e+01   9.555999e+05   1.338714e+06   8.093508e+05   2.583155e+02  -1.843906e+02   3.315013e-19   1.833133e+06   8.153326e-37   0.000000e+00   0.000000e+00
     1192000   1.191999e-05   1.149074e+01   3.425961e+01   2.506383e+01   9.555999e+05   1.338714e+06   8.093508e+05   2.788094e+02  -1.990195e+02   1.186445e-19   1.833133e+06   9.498193e-37   0.000000e+00   0.000000e+00
     1200000   1.199999e-05   1.156719e+01   3.436671e+01   2.512857e+01   9.555999e+05   1.338714e+06   8.093508e+05   3.429047e+02  -2.447720e+02   8.415836e-20   1.833133e+06   1.436695e-36   0.000000e+00   0.000000e+00
     1208000   1.207999e-05   1.164363e+01   3.447381e+01   2.519332e+01   9.555999e+05   1.338714e+06   8.093508e+05   3.600768e+02  -2.570298e+02   2.111244e-20   1.833133e+06   1.584253e-36   0.000000e+00   0.000000e+00
     1216000   1.215999e-05   1.172008e+01   3.458091e+01   2.525807e+01   9.555999e+05   1.338714e+06   8.093508e+05   3.444910e+02  -2.459043e+02  -5.317472e-19   1.833133e+06   1.450154e-36   0.000000e+00   0.000000e+00
     1224000   1.223999e-05   1.179653e+01   3.468800e+01   2.532282e+01   9.555999e+05   1.338714e+06   8.093508e+05   3.369187e+02  -2.404991e+02  -8.606066e-20   1.833133e+06   1.387071e-36   0.000000e+00   0.000000e+00
     1232000   1.231999e-05   1.187298e+01   3.479510e+01   2.538757e+01   9.555999e+05   1.338714e+06   8.093508e+05   4.269032e+02  -3.047317e+02  -7.932130e-19   1.833133e+06   2.226813e-36   0.000000e+00   0.000000e+00
     1240000   1.239999e-05   1.194943e+01   3.490220e+01   2.545231e+01   9.555999e+05   1.338714e+06   8.093508e+05   3.700816e+02  -2.641713e+02   8.270479e-20   1.833133e+06   1.673618e-36   0.000000e+00   0.000000e+00
     1248000   1.247999e-05   1.202587e+01   3.500929e+01   2.551706e+01   9.555999e+05   1.338714e+06   8.093508e+05   3.735382e+02  -2.666388e+02   1.249612e-19   1.833133e+06   1.704990e-36   0.000000e+00   0.000000e+00
     1256000   1.255999e-05   1.210232e+01   3.511639e+01   2.558181e+01   9.555999e+05   1.338714e+06   8.093508e+05   3.480106e+02  -2.484167e+02  -2.816317e-19   1.833133e+06   1.480051e-36   0.000000e+00   0.000000e+00
     1264000   1.263999e-05   1.217877e+01   3.522349e+01   2.564656e+01   9.555999e+05   1.338714e+06   8.093508e+05   3.412019e+02  -2.435565e+02   3.615370e-19   1.833133e+06   1.422659e-36   0.000000e+00   0.000000e+00
     1272000   1.271999e-05   1.225522e+01   3.533059e+01   2.571131e+01   9.555999e+05   1.338714e+06   8.093508e+05   3.937188e+02  -2.810441e+02  -5.636268e-19   1.833133e+06   1.894135e-36   0.000000e+00   0.000000e+00
     1280000   1.279999e-05   1.233167e+01   3.543768e+01   2.577605e+01   9.555999e+05   1.338714e+06   8.093508e+05   4.072127e+02  -2.906763e+02  -3.493120e-19   1.833133e+06   2.026325e-36   0.000000e+00   0.000000e+00
     1288000   1.287999e-05   1.240811e+01   3.554478e+01   2.584080e+01   9.555999e+05   1.338714e+06   8.093508e+05   4.048697e+02  -2.890038e+02  -2.700310e-20   1.833133e+06   2.003063e-36   0.000000e+00   0.000000e+00
     1296000   1.295999e-05   1.248456e+01   3.565188e+01   2.590555e+01   9.555999e+05   1.338714e+06   8.093508e+05   3.759975e+02  -2.683943e+02  -2.063113e-19   1.833133e+06   1.727517e-36   0.000000e+00   0.000000e+00
     1304000   1.303999e-05   1.256101e+01   3.575897e+01   2.597030e+01   9.555999e+05   1.338714e+06   8.093508e+05   3.272171e+02  -2.335739e+02   2.146333e-19   1.833133e+06   1.308512e-36   0.000000e+00   0.000000e+00
     1312000   1.311999e-05   1.263746e+01   3.586607e+01   2.603505e+01   9.555999e+05   1.338714e+06   8.093508e+05   3.855260e+02  -2.751959e+02  -1.101170e-18   1.833133e+06   1.816117e-36   0.000000e+00   0.000000e+00
     1320000   1.319999e-05   1.271391e+01   3.597317e+01   2.609979e+01   9.555999e+05   1.338714e+06   8.093508e+05   3.782884e+02  -2.700296e+02   7.790894e-20   1.833133e+06   1.748529e-36   0.000000e+00   0.000000e+00
     1328000   1.327999e-05   1.279035e+01   3.608027e+01   2.616454e+01   9.555999e+05   1.338714e+06   8.093508e+05   4.494607e+02  -3.208337e+02  -3.527584e-20   1.833133e+06   2.468372e-36   0.000000e+00   0.000000e+00
     1336000   1.335999e-05   1.286680e+01   3.618736e+01   2.622929e+01   9.555999e+05   1.338714e+06   8.093508e+05   3.368386e+02  -2.404419e+02  -6.722939e-19   1.833133e+06   1.386549e-36   0.000000e+00   0.000000e+00
     1344000   1.343999e-05   1.294325e+01   3.629446e+01   2.629404e+01   9.555999e+05   1.338714e+06   8.093508e+05   3.834316e+02  -2.737009e+02   1.646739e-19   1.833133e+06   1.796507e-36   0.000000e+00   0.000000e+00
     1352000   1.351999e-05   1.301970e+01   3.640156e+01   2.635879e+01   9.555999e+05   1.338714e+06   8.093508e+05   4.085124e+02  -2.916040e+02  -2.738122e-19   1.833133e+06   2.039311e-36   0.000000e+00   0.000000e+00
     1360000   1.359999e-05   1.309615e+01   3.650865e+01   2.642354e+01   9.555999e+05   1.338714e+06   8.093508e+05   3.855042e+02  -2.751803e+02  -6.916074e-19   1.833133e+06   1.816134e-36   0.000000e+00   0.000000e+00
     1368000   1.367999e-05   1.317259e+01   3.661575e+01   2.648828e+01   9.555999e+05   1.338714e+06   8.093508e+05   3.747644e+02  -2.675140e+02  -5.485401e-20   1.833133e+06   1.716251e-36   0.000000e+00   0.000000e+00
     1376000   1.375999e-05   1.324904e+01   3.672285e+01   2.655303e+01   9.555999e+05   1.338714e+06   8.093508e+05   4.021830e+02  -2.870860e+02  -9.811036e-19   1.833133e+06   1.976499e-36   0.000000e+00   0.000000e+00
     1384000   1.383999e-05   1.332549e+01   3.682995e+01   2.661778e+01   9.555999e+05   1.338714e+06   8.093508e+05   3.917463e+02  -2.796360e+02   1.973117e-19   1.833133e+06   1.875399e-36   0.000000e+00   0.000000e+00
     1392000   1.391999e-05   1.340194e+01   3.693704e+01   2.668253e+01   9.555999e+05   1.338714e+06   8.093508e+05   3.946109e+02  -2.816808e+02  -3.570329e-19   1.833133e+06   1.902736e-36   0.000000e+00   0.000000e+00
     1400000   1.399999e-05   1.347839e+01   3.704414e+01   2.674728e+01   9.555999e+05   1.338714e+06   8.093508e+05   3.539974e+02  -2.526902e+02   1.312107e-18   1.833133e+06   1.531352e-36   0.000000e+00   0.000000e+00
     1408000   1.407999e-05   1.355483e+01   3.715124e+01   2.681202e+01   9.555999e+05   1.338714e+06   8.093508e+05   3.593972e+02  -2.565446e+02  -6.136400e-19   1.833133e+06   1.578401e-36   0.000000e+00   0.000000e+00
     1416000   1.415999e-05   1.363128e+01   3.725833e+01   2.687677e+01   9.555999e+05   1.338714e+06   8.093508e+05   2.996930e+02  -2.139266e+02   4.034076e-19   1.833133e+06   1.097587e-36   0.000000e+00   0.000000e+00
     1424000   1.423999e-05   1.370773e+01   3.736543e+01   2.694152e+01   9.555999e+05   1.338714e+06   8.093508e+05   3.780168e+02  -2.698357e+02   9.263033e-19   1.833133e+06   1.745958e-36   0.000000e+00   0.000000e+00
     1432000   1.431999e-05   1.378418e+01   3.747253e+01   2.700627e+01   9.555999e+05   1.338714e+06   8.093508e+05   4.297048e+02  -3.067316e+02   1.749026e-19   1.833133e+06   2.256055e-36   0.000000e+00   0.000000e+00
     1440000   1.439999e-05   1.386063e+01   3.757963e+01   2.707102e+01   9.555999e+05   1.338714e+06   8.093508e+05   3.429679e+02  -2.448171e+02   3.690421e-20   1.833133e+06   1.437370e-36   0.000000e+00   0.000000e+00
     1448000   1.447999e-05   1.393707e+01   3.768672e+01   2.713576e+01   9.555999e+05   1.338714e+06   8.093508e+05   3.541905e+02  -2.528280e+02  -4.281901e-19   1.833133e+06   1.532912e-36   0.000000e+00   0.000000e+00
     1456000   1.455999e-05   1.401352e+01   3.779382e+01   2.720051e+01   9.555999e+05   1.338714e+06   8.093508e+05   3.475457e+02  -2.480848e+02  -3.570912e-19   1.833133e+06   1.476036e-36   0.000000e+00   0.000000e+00
     1464000   1.463999e-05   1.408997e+01   3.790092e+01   2.726526e+01   9.555999e+05   1.338714e+06   8.093508e+05   3.796410e+02  -2.709951e+02  -4.017613e-19   1.833133e+06   1.760980e-36   0.000000e+00   0.000000e+00
     1472000   1.471999e-05   1.416642e+01   3.800801e+01   2.733001e+01   9.555999e+05   1.338714e+06   8.093508e+05   2.912232e+02  -2.078807e+02   1.541935e-20   1.833133e+06   1.036349e-36   0.000000e+00   0.000000e+00
     1480000   1.479999e-05   1.424287e+01   3.811511e+01   2.739476e+01   9.555999e+05   1.338714e+06   8.093508e+05   2.983438e+02  -2.129635e+02   1.511298e-19   1.833133e+06   1.087579e-36   0.000000e+00   0.000000e+00
     1488000   1.487999e-05   1.431931e+01   3.822221e+01   2.745950e+01   9.555999e+05   1.338714e+06   8.093508e+05   3.160618e+02  -2.256110e+02   1.122861e-18   1.833133e+06   1.220583e-36   0.000000e+00   0.000000e+00
     1496000   1.495999e-05   1.439576e+01   3.832931e+01   2.752425e+01   9.555999e+05   1.338714e+06   8.093508e+05   3.146153e+02  -2.245785e+02   1.521078e-19   1.833133e+06   1.209575e-36   0.000000e+00   0.000000e+00
     1504000   1.503999e-05   1.447221e+01   3.843640e+01   2.758900e+01   9.555999e+05   1.338714e+06   8.093508e+05   3.246023e+02  -2.317074e+02   6.547748e-19   1.833133e+06   1.287432e-36   0.000000e+00   0.000000e+00
     1512000   1.511999e-05   1.454866e+01   3.854350e+01   2.765375e+01   9.555999e+05   1.338714e+06   8.093508e+05   3.151533e+02  -2.249625e+02  -1.661904e-19   1.833133e+06   1.213574e-36   0.000000e+00   0.000000e+00
     1520000   1.519999e-05   1.462511e+01   3.865060e+01   2.771850e+01   9.555999e+05   1.338714e+06   8.093508e+05   2.811890e+02  -2.007182e+02   4.695671e-19   1.833133e+06   9.661843e-37   0.000000e+00   0.000000e+00
     1528000   1.527999e-05   1.470155e+01   3.875769e+01   2.778324e+01   9.555999e+05   1.338714e+06   8.093508e+05   2.849610e+02  -2.034106e+02   4.120210e-20   1.833133e+06   9.923043e-37   0.000000e+00   0.000000e+00
     1536000   1.535999e-05   1.477800e+01   3.886479e+01   2.784799e+01   9.555999e+05   1.338714e+06   8.093508e+05   2.968845e+02  -2.119219e+02   4.711642e-19   1.833133e+06   1.076961e-36   0.000000e+00   0.000000e+00
     1544000   1.543999e-05   1.485445e+01   3.897189e+01   2.791274e+01   9.555999e+05   1.338714e+06   8.093508e+05   2.651899e+02  -1.892976e+02  -4.135737e-19   1.833133e+06   8.593428e-37   0.000000e+00   0.000000e+00
     1552000   1.551999e-05   1.493090e+01   3.907899e+01   2.797749e+01   9.555999e+05   1.338714e+06   8.093508e+05   1.854364e+02  -1.323681e+02  -1.018300e-19   1.833133e+06   4.202216e-37   0.000000e+00   0.000000e+00
     1560000   1.559999e-05   1.500735e+01   3.918608e+01   2.804224e+01   9.555999e+05   1.338714e+06   8.093508e+05   2.620537e+02  -1.870590e+02  -3.430042e-19   1.833133e+06   8.391351e-37   0.000000e+00   0.000000e+00
     1568000   1.567999e-05   1.508379e+01   3.929318e+01   2.810698e+01   9.555999e+05   1.338714e+06   8.093508e+05   2.302814e+02  -1.643793e+02   5.684024e-19   1.833133e+06   6.479872e-37   0.000000e+00   0.000000e+00
     1576000   1.575999e-05   1.516024e+01   3.940028e+01   2.817173e+01   9.555999e+05   1.338714e+06   8.093508e+05   2.241775e+02  -1.600222e+02  -3.838273e-19   1.833133e+06   6.141032e-37   0.000000e+00   0.000000e+00
     1584000   1.583999e-05   1.523669e+01   3.950737e+01   2.823648e+01   9.555999e+05   1.338714e+06   8.093508e+05   2.295328e+02  -1.638449e+02   8.491727e-19   1.833133e+06   6.437917e-37   0.000000e+00   0.000000e+00
     1592000   1.591999e-05   1.531314e+01   3.961447e+01   2.830123e+01   9.555999e+05   1.338714e+06   8.093508e+05   1.926765e+02  -1.375362e+02  -6.586690e-19   1.833133e+06   4.535746e-37   0.000000e+00   0.000000e+00
     1600000   1.599999e-05   1.538959e+01   3.972157e+01   2.836598e+01   9.555999e+05   1.338714e+06   8.093508e+05   1.745960e+02  -1.246300e+02   7.479619e-19   1.833133e+06   3.725360e-37   0.000000e+00   0.000000e+00
     1608000   1.607999e-05   1.546603e+01   3.982867e+01   2.843073e+01   9.555999e+05   1.338714e+06   8.093508e+05   1.964843e+02  -1.402543e+02  -9.733244e-20   1.833133e+06   4.717579e-37   0.000000e+00   0.000000e+00
     1616000   1.615999e-05   1.554248e+01   3.993576e+01   2.849547e+01   9.555999e+05   1.338714e+06   8.093508e+05   1.604464e+02  -1.145297e+02  -2.347118e-19   1.833133e+06   3.145603e-37   0.000000e+00   0.000000e+00
     1624000   1.623999e-05   1.561893e+01   4.004286e+01   2.856022e+01   9.555999e+05   1.338714e+06   8.093508e+05   1.866479e+02  -1.332329e+02   1.025545e-19   1.833133e+06   4.256402e-37   0.000000e+00   0.000000e+00
     1632000   1.631999e-05   1.569538e+01   4.014996e+01   2.862497e+01   9.555999e+05   1.338714e+06   8.093508e+05   1.181762e+02  -8.435645e+01   1.183283e-19   1.833133e+06   1.706852e-37   0.000000e+00   0.000000e+00
     1640000   1.639999e-05   1.577183e+01   4.025705e+01   2.868972e+01   9.555999e+05   1.338714e+06   8.093508e+05   1.278793e+02  -9.128269e+01  -2.262888e-20   1.833133e+06   1.998555e-37   0.000000e+00   0.000000e+00
     1648000   1.647999e-05   1.584827e+01   4.036415e+01   2.875447e+01   9.555999e+05   1.338714e+06   8.093508e+05   1.495616e+02  -1.067600e+02   9.687257e-20   1.833133e+06   2.733421e-37   0.000000e+00   0.000000e+00
     1656000   1.655999e-05   1.592472e+01   4.047125e+01   2.881921e+01   9.555999e+05   1.338714e+06   8.093508e+05   1.634066e+02  -1.166428e+02   3.449736e-20   1.833133e+06   3.262362e-37   0.000000e+00   0.000000e+00
     1664000   1.663999e-05   1.600117e+01   4.057835e+01   2.888396e+01   9.555999e+05   1.338714e+06   8.093508e+05   1.091553e+02  -7.791715e+01   1.618296e-19   1.833133e+06   1.456340e-37   0.000000e+00   0.000000e+00
     1672000   1.671999e-05   1.607762e+01   4.068544e+01   2.894871e+01   9.555999e+05   1.338714e+06   8.093508e+05   1.120729e+02  -7.999978e+01  -1.206791e-19   1.833133e+06   1.534858e-37   0.000000e+00   0.000000e+00
     1680000   1.679999e-05   1.615407e+01   4.079254e+01   2.901346e+01   9.555999e+05   1.338714e+06   8.093508e+05   1.263634e+02  -9.020062e+01   1.908403e-19   1.833133e+06   1.951022e-37   0.000000e+00   0.000000e+00
     1688000   1.687999e-05   1.623051e+01   4.089964e+01   2.907821e+01   9.555999e+05   1.338714e+06   8.093508e+05   7.133285e+01  -5.091877e+01  -7.185475e-20   1.833133e+06   6.218210e-38   0.000000e+00   0.000000e+00
     1696000   1.695999e-05   1.630696e+01   4.100673e+01   2.914295e+01   9.555999e+05   1.338714e+06   8.093508e+05   1.184687e+02  -8.456527e+01  -2.643011e-19   1.833133e+06   1.715126e-37   0.000000e+00   0.000000e+00
     1704000   1.703999e-05   1.638341e+01   4.111383e+01   2.920770e+01   9.555999e+05   1.338714e+06   8.093508e+05   1.301944e+02  -9.293525e+01   3.009788e-19   1.833133e+06   2.070964e-37   0.000000e+00   0.000000e+00
     1712000   1.711999e-05   1.645986e+01   4.122093e+01   2.927245e+01   9.555999e+05   1.338714e+06   8.093508e+05   7.611188e+01  -5.433012e+01   1.815615e-19   1.833133e+06   7.078284e-38   0.000000e+00   0.000000e+00
     1720000   1.719999e-05   1.653631e+01   4.132803e+01   2.933720e+01   9.555999e+05   1.338714e+06   8.093508e+05   8.870282e+01  -6.331778e+01  -3.813748e-23   1.833133e+06   9.611938e-38   0.000000e+00   0.000000e+00
     1728000   1.727999e-05   1.661275e+01   4.143512e+01   2.940195e+01   9.555999e+05   1.338714e+06   8.093508e+05   7.326296e+01  -5.229652e+01  -7.187382e-20   1.833133e+06   6.560600e-38   0.000000e+00   0.000000e+00
     1736000   1.735999e-05   1.668920e+01   4.154222e+01   2.946669e+01   9.555999e+05   1.338714e+06   8.093508e+05   7.989036e+01  -5.702728e+01   4.439189e-20   1.833133e+06   7.797782e-38   0.000000e+00   0.000000e+00
     1744000   1.743999e-05   1.676565e+01   4.164932e+01   2.953144e+01   9.555999e+05   1.338714e+06   8.093508e+05   7.042188e+01  -5.026849e+01   8.266560e-20   1.833133e+06   6.059530e-38   0.000000e+00   0.000000e+00
     1752000   1.751999e-05   1.684210e+01   4.175641e+01   2.959619e+01   9.555999e+05   1.338714e+06   8.093508e+05   3.584147e+01  -2.558433e+01  -7.420894e-21   1.833133e+06   1.570087e-38   0.000000e+00   0.000000e+00
     1760000   1.759999e-05   1.691855e+01   4.186351e+01   2.966094e+01   9.555999e+05   1.338714e+06   8.093508e+05   7.850649e+01  -5.603944e+01  -2.758410e-19   1.833133e+06   7.530100e-38   0.000000e+00   0.000000e+00
     1768000   1.767999e-05   1.699499e+01   4.197061e+01   2.972569e+01   9.555999e+05   1.338714e+06   8.093508e+05   6.799104e+01  -4.729674e+01  -2.045374e+00   1.833133e+06   5.555398e-38   0.000000e+00   0.000000e+00
     1776000   1.775999e-05   1.707144e+01   4.207771e+01   2.979043e+01   9.555999e+05   1.338714e+06   8.093508e+05   7.249427e+01  -5.732759e+01   9.229292e+00   1.833133e+06   6.981608e-38   0.000000e+00   0.000000e+00
     1784000   1.783999e-05   1.714789e+01   4.218480e+01   2.985518e+01   9.555999e+05   1.338714e+06   8.093508e+05   7.778190e+00  -9.962267e+00   7.294474e+00   1.833133e+06   1.724148e-39   0.000000e+00   0.000000e+00
     1792000   1.791999e-05   1.722434e+01   4.229190e+01   2.991993e+01   9.555999e+05   1.338714e+06   8.093508e+05   1.720373e+01  -7.809410e+00  -7.395208e+00   1.833133e+06   3.333893e-39   0.000000e+00   0.000000e+00
     1800000   1.799999e-05   1.730079e+01   4.239900e+01   2.998468e+01   9.555999e+05   1.338714e+06   8.093508e+05  -2.619664e+01   2.056701e+01  -3.088697e+00   1.833133e+06   9.048717e-39   0.000000e+00   0.000000e+00
     1808000   1.807999e-05   1.737723e+01   4.250609e+01   3.004943e+01   9.555999e+05   1.338714e+06   8.093508e+05  -4.030312e+01   2.935608e+00   4.273019e+01   1.833133e+06   2.798177e-38   0.000000e+00   0.000000e+00
     1816000   1.815999e-05   1.745368e+01   4.261319e+01   3.011417e+01   9.555999e+05   1.338714e+06   8.093508e+05  -7.779024e+00   5.967906e+00  -6.865814e-01   1.833133e+06   7.795355e-40   0.000000e+00   0.000000e+00
     1824000   1.823999e-05   1.753013e+01   4.272029e+01   3.017892e+01   9.555999e+05   1.338714e+06   8.093508e+05   6.493463e+00  -2.656853e+00  -3.272236e+00   1.833133e+06   4.836758e-40   0.000000e+00   0.000000e+00
     1832000   1.831999e-05   1.760658e+01   4.282738e+01   3.024367e+01   9.555999e+05   1.338714e+06   8.093508e+05  -1.370028e+01   9.779523e+00   1.428927e-20   1.833133e+06   2.291733e-39   0.000000e+00   0.000000e+00
     1840000   1.839999e-05   1.768303e+01   4.293448e+01   3.030842e+01   9.555999e+05   1.338714e+06   8.093508e+05  -1.854997e+01   1.324133e+01   1.079767e-20   1.833133e+06   4.197600e-39   0.000000e+00   0.000000e+00
     1848000   1.847999e-05   1.775947e+01   4.304158e+01   3.037317e+01   9.555999e+05   1.338714e+06   8.093508e+05  -4.039764e+01   2.883661e+01  -1.762778e-20   1.833133e+06   1.994036e-38   0.000000e+00   0.000000e+00
     1856000   1.855999e-05   1.783592e+01   4.314868e+01   3.043792e+01   9.555999e+05   1.338714e+06   8.093508e+05  -3.004961e+01   2.144999e+01   1.461579e-20   1.833133e+06   1.103092e-38   0.000000e+00   0.000000e+00
     1864000   1.863999e-05   1.791237e+01   4.325577e+01   3.050266e+01   9.555999e+05   1.338714e+06   8.093508e+05  -3.483337e+01   2.486473e+01  -8.001645e-20   1.833133e+06   1.482256e-38   0.000000e+00   0.000000e+00
     1872000   1.871999e-05   1.798882e+01   4.336287e+01   3.056741e+01   9.555999e+05   1.338714e+06   8.093508e+05   5.609667e+00  -4.004288e+00   1.083609e-20   1.833133e+06   3.835257e-40   0.000000e+00   0.000000e+00
     1880000   1.879999e-05   1.806527e+01   4.346997e+01   3.063216e+01   9.555999e+05   1.338714e+06   8.093508e+05  -2.371522e+01   1.692838e+01   2.388223e-20   1.833133e+06   6.873480e-39   0.000000e+00   0.000000e+00
     1888000   1.887999e-05   1.814171e+01   4.357706e+01   3.069691e+01   9.555999e+05   1.338714e+06   8.093508e+05  -3.621214e+01   2.584892e+01  -1.522200e-20   1.833133e+06   1.602449e-38   0.000000e+00   0.000000e+00
     1896000   1.895999e-05   1.821816e+01   4.368416e+01   3.076166e+01   9.555999e+05   1.338714e+06   8.093508e+05  -6.838595e+01   4.881521e+01   4.368194e-20   1.833133e+06   5.712253e-38   0.000000e+00   0.000000e+00
     1904000   1.903999e-05   1.829461e+01   4.379126e+01   3.082640e+01   9.555999e+05   1.338714e+06   8.093508e+05  -2.756710e+01   1.967793e+01   2.946739e-20   1.833133e+06   9.286659e-39   0.000000e+00   0.000000e+00
     1912000   1.911999e-05   1.837106e+01   4.389836e+01   3.089115e+01   9.555999e+05   1.338714e+06   8.093508e+05  -2.849664e+01   2.034145e+01  -1.654041e-21   1.833133e+06   9.923866e-39   0.000000e+00   0.000000e+00
     1920000   1.919999e-05   1.844751e+01   4.400545e+01   3.095590e+01   9.555999e+05   1.338714e+06   8.093508e+05  -4.100029e+01   2.926680e+01   6.590032e-20   1.833133e+06   2.052816e-38   0.000000e+00   0.000000e+00
     1928000   1.927999e-05   1.852395e+01   4.411255e+01   3.102065e+01   9.555999e+05   1.338714e+06   8.093508e+05  -4.135435e+01   2.951953e+01   4.862303e-20   1.833133e+06   2.089815e-38   0.000000e+00   0.000000e+00
     1936000   1.935999e-05   1.860040e+01   4.421965e+01   3.108540e+01   9.555999e+05   1.338714e+06   8.093508e+05  -2.528826e+01   1.805125e+01   1.625441e-21   1.833133e+06   7.814027e-39   0.000000e+00   0.000000e+00
     1944000   1.943999e-05   1.867685e+01   4.432674e+01   3.115014e+01   9.555999e+05   1.338714e+06   8.093508e+05  -7.508751e+01   5.359891e+01  -1.556655e-19   1.833133e+06   6.888716e-38   0.000000e+00   0.000000e+00
     1952000   1.951999e-05   1.875330e+01   4.443384e+01   3.121489e+01   9.555999e+05   1.338714e+06   8.093508e+05  -3.867966e+01   2.761028e+01  -8.334191e-20   1.833133e+06   1.828196e-38   0.000000e+00   0.000000e+00
     1960000   1.959999e-05   1.882975e+01   4.454094e+01   3.127964e+01   9.555999e+05   1.338714e+06   8.093508e+05  -6.588304e+01   4.702858e+01  -2.069753e-20   1.833133e+06   5.302278e-38   0.000000e+00   0.000000e+00
     1968000   1.967999e-05   1.890619e+01   4.464804e+01   3.134439e+01   9.555999e+05   1.338714e+06   8.093508e+05  -4.900462e+01   3.498044e+01   4.027403e-20   1.833133e+06   2.934252e-38   0.000000e+00   0.000000e+00
     1976000   1.975999e-05   1.898264e+01   4.475513e+01   3.140914e+01   9.555999e+05   1.338714e+06   8.093508e+05  -5.466073e+01   3.901788e+01   1.047303e-19   1.833133e+06   3.651645e-38   0.000000e+00   0.000000e+00
     1984000   1.983999e-05   1.905909e+01   4.486223e+01   3.147388e+01   9.555999e+05   1.338714e+06   8.093508e+05  -8.604317e+01   6.141928e+01   1.579512e-20   1.833133e+06   9.046455e-38   0.000000e+00   0.000000e+00
     1992000   1.991999e-05   1.913554e+01   4.496933e+01   3.153863e+01   9.555999e+05   1.338714e+06   8.093508e+05  -6.308495e+01   4.503125e+01   1.076318e-19   1.833133e+06   4.862277e-38   0.000000e+00   0.000000e+00
     2000000   1.999999e-05   1.921199e+01   4.507642e+01   3.160338e+01   9.555999e+05   1.338714e+06   8.093508e+05  -6.680310e+01   4.768534e+01  -1.650575e-19   1.833133e+06   5.453735e-38   0.000000e+00   0.000000e+00
     2008000   2.007999e-05   1.928843e+01   4.518352e+01   3.166813e+01   9.555999e+05   1.338714e+06   8.093508e+05  -1.161553e+02   8.291388e+01  -2.091937e-19   1.833133e+06   1.648431e-37   0.000000e+00   0.000000e+00
     2016000   2.015999e-05   1.936488e+01   4.529062e+01   3.173288e+01   9.555999e+05   1.338714e+06   8.093508e+05  -9.740760e+01   6.953142e+01  -1.417075e-19   1.833133e+06   1.159276e-37   0.000000e+00   0.000000e+00
     2024000   2.023999e-05   1.944133e+01   4.539772e+01   3.179762e+01   9.555999e+05   1.338714e+06   8.093508e+05  -8.556386e+01   6.107713e+01   4.907334e-20   1.833133e+06   8.945495e-38   0.000000e+00   0.000000e+00
     2032000   2.031999e-05   1.951778e+01   4.550481e+01   3.186237e+01   9.555999e+05   1.338714e+06   8.093508e+05  -1.003953e+02   7.166408e+01   1.725059e-19   1.833133e+06   1.231624e-37   0.000000e+00   0.000000e+00
     2040000   2.039999e-05   1.959423e+01   4.561191e+01   3.192712e+01   9.555999e+05   1.338714e+06   8.093508e+05  -7.498577e+01   5.352629e+01  -6.280842e-22   1.833133e+06   6.872504e-38   0.000000e+00   0.000000e+00
     2048000   2.047999e-05   1.967067e+01   4.571901e+01   3.199187e+01   9.555999e+05   1.338714e+06   8.093508e+05  -6.011679e+01   4.291252e+01  -7.860439e-20   1.833133e+06   4.415744e-38   0.000000e+00   0.000000e+00
     2056000   2.055999e-05   1.974712e+01   4.582610e+01   3.205662e+01   9.555999e+05   1.338714e+06   8.093508e+05  -6.180968e+01   4.412094e+01  -8.589462e-20   1.833133e+06   4.669718e-38   0.000000e+00   0.000000e+00
     2064000   2.063999e-05   1.982357e+01   4.593320e+01   3.212137e+01   9.555999e+05   1.338714e+06   8.093508e+05  -9.517167e+01   6.793537e+01   7.288323e-20   1.833133e+06   1.106814e-37   0.000000e+00   0.000000e+00
     2072000   2.071999e-05   1.990002e+01   4.604030e+01   3.218611e+01   9.555999e+05   1.338714e+06   8.093508e+05  -8.579358e+01   6.124111e+01  -2.733164e-20   1.833133e+06   6.002087e-38   0.000000e+00   0.000000e+00
     2080000   2.079999e-05   1.997647e+01   4.614740e+01   3.225086e+01   9.555999e+05   1.338714e+06   8.093508e+05  -5.761597e+01   4.112739e+01  -1.962367e-19   1.833133e+06   4.057223e-38   0.000000e+00   0.000000e+00
     2088000   2.087999e-05   2.005291e+01   4.625449e+01   3.231561e+01   9.555999e+05   1.338714e+06   8.093508e+05  -6.715944e+01   4.793970e+01  -1.928277e-19   1.833133e+06   5.511840e-38   0.000000e+00   0.000000e+00
     2096000   2.095999e-05   2.012936e+01   4.636159e+01   3.238036e+01   9.555999e+05   1.338714e+06   8.093508e+05  -5.717139e+01   4.081004e+01   1.835454e-21   1.833133e+06   3.994798e-38   0.000000e+00   0.000000e+00
     2104000   2.103999e-05   2.020581e+01   4.646869e+01   3.244511e+01   9.555999e+05   1.338714e+06   8.093508e+05  -9.131065e+01   6.517930e+01  -1.775452e-20   1.833133e+06   1.018806e-37   0.000000e+00   0.000000e+00
     2112000   2.111999e-05   2.028226e+01   4.657578e+01   3.250985e+01   9.555999e+05   1.338714e+06   8.093508e+05  -9.096392e+01   6.493180e+01   8.123783e-20   1.833133e+06   1.011038e-37   0.000000e+00   0.000000e+00
     2120000   2.119999e-05   2.035871e+01   4.668288e+01   3.257460e+01   9.555999e+05   1.338714e+06   8.093508e+05  -3.418601e+01   2.440263e+01   6.162768e-20   1.833133e+06   1.429130e-38   0.000000e+00   0.000000e+00
     2128000   2.127999e-05   2.043515e+01   4.678998e+01   3.263935e+01   9.555999e+05   1.338714e+06   8.093508e+05  -7.820833e+01   5.582661e+01  -1.426743e-19   1.833133e+06   7.474730e-38   0.000000e+00   0.000000e+00
     2136000   2.135999e-05   2.051160e+01   4.689708e+01   3.270410e+01   9.555999e+05   1.338714e+06   8.093508e+05  -5.503517e+01   3.928517e+01   2.524661e-21   1.833133e+06   3.701207e-38   0.000000e+00   0.000000e+00
     2144000   2.143999e-05   2.058805e+01   4.700417e+01   3.276885e+01   9.555999e+05   1.338714e+06   8.093508e+05  -1.221748e+02   8.721073e+01  -2.454318e-19   1.833133e+06   1.823727e-37   0.000000e+00   0.000000e+00
     2152000   2.151999e-05   2.066450e+01   4.711127e+01   3.283359e+01   9.555999e+05   1.338714e+06   8.093508e+05  -9.809718e+01   7.002366e+01  -3.798210e-20   1.833133e+06   1.175658e-37   0.000000e+00   0.000000e+00
     2160000   2.159999e-05   2.074095e+01   4.721837e+01   3.289834e+01   9.555999e+05   1.338714e+06   8.093508e+05  -8.034204e+01   5.734970e+01   7.888926e-20   1.833133e+06   7.887919e-38   0.000000e+00   0.000000e+00
     2168000   2.167999e-05   2.081739e+01   4.732546e+01   3.296309e+01   9.555999e+05   1.338714e+06   8.093508e+05  -8.085225e+01   5.771389e+01  -1.004145e-19   1.833133e+06   7.988206e-38   0.000000e+00   0.000000e+00
     2176000   2.175999e-05   2.089384e+01   4.743256e+01   3.302784e+01   9.555999e+05   1.338714e+06   8.093508e+05  -7.314250e+01   5.221053e+01  -5.621441e-20   1.833133e+06   6.536501e-38   0.000000e+00   0.000000e+00
     2184000   2.183999e-05   2.097029e+01   4.753966e+01   3.309259e+01   9.555999e+05   1.338714e+06   8.093508e+05  -1.151676e+02   8.220887e+01   7.092945e-20   1.833133e+06   1.620619e-37   0.000000e+00   0.000000e+00
     2192000   2.191999e-05   2.104674e+01   4.764676e+01   3.315733e+01   9.555999e+05   1.338714e+06   8.093508e+05  -8.480799e+01   6.053757e+01  -2.187855e-20   1.833133e+06   8.789627e-38   0.000000e+00   0.000000e+00
     2200000   2.199999e-05   2.112319e+01   4.775385e+01   3.322208e+01   9.555999e+05   1.338714e+06   8.093508e+05  -9.151045e+01   6.532192e+01   4.947711e-20   1.833133e+06   1.023279e-37   0.000000e+00   0.000000e+00
     2208000   2.207999e-05   2.119963e+01   4.786095e+01   3.328683e+01   9.555999e+05   1.338714e+06   8.093508e+05  -7.558417e+01   5.395344e+01  -1.894114e-20   1.833133e+06   6.980898e-38   0.000000e+00   0.000000e+00
     2216000   2.215999e-05   2.127608e+01   4.796805e+01   3.335158e+01   9.555999e+05   1.338714e+06   8.093508e+05  -1.133509e+02   8.091204e+01   1.412364e-19   1.833133e+06   1.569707e-37   0.000000e+00   0.000000e+00
     2224000   2.223999e-05   2.135253e+01   4.807514e+01   3.341633e+01   9.555999e+05   1.338714e+06   8.093508e+05  -8.363921e+01   5.970328e+01  -8.898571e-21   1.833133e+06   8.548151e-38   0.000000e+00   0.000000e+00
     2232000   2.231999e-05   2.142898e+01   4.818224e+01   3.348107e+01   9.555999e+05   1.338714e+06   8.093508e+05  -7.939622e+01   5.667455e+01   2.217463e-20   1.833133e+06   7.703466e-38   0.000000e+00   0.000000e+00
     2240000   2.239999e-05   2.150543e+01   4.828934e+01   3.354582e+01   9.555999e+05   1.338714e+06   8.093508e+05  -7.540525e+01   5.382572e+01  -1.262410e-19   1.833133e+06   6.947820e-38   0.000000e+00   0.000000e+00
     2248000   2.247999e-05   2.158187e+01   4.839644e+01   3.361057e+01   9.555999e+05   1.338714e+06   8.093508e+05  -7.859635e+01   5.610359e+01   8.494239e-20   1.833133e+06   7.547998e-38   0.000000e+00   0.000000e+00
     2256000   2.255999e-05   2.165832e+01   4.850353e+01   3.367532e+01   9.555999e+05   1.338714e+06   8.093508e+05  -7.120057e+01   5.082434e+01   2.007236e-19   1.833133e+06   6.194584e-38   0.000000e+00   0.000000e+00
     2264000   2.263999e-05   2.173477e+01   4.861063e+01   3.374007e+01   9.555999e+05   1.338714e+06   8.093508e+05  -6.263327e+01   4.470883e+01   1.020700e-19   1.833133e+06   4.793026e-38   0.000000e+00   0.000000e+00
     2272000   2.271999e-05   2.181122e+01   4.871773e+01   3.380481e+01   9.555999e+05   1.338714e+06   8.093508e+05  -7.828184e+01   5.587909e+01   1.027283e-19   1.833133e+06   7.487711e-38   0.000000e+00   0.000000e+00
     2280000   2.279999e-05   2.188767e+01   4.882482e+01   3.386956e+01   9.555999e+05   1.338714e+06   8.093508e+05  -7.682647e+01   5.484022e+01   1.266571e-19   1.833133e+06   7.211986e-38   0.000000e+00   0.000000e+00
     2288000   2.287999e-05   2.196411e+01   4.893192e+01   3.393431e+01   9.555999e+05   1.338714e+06   8.093508e+05  -7.874850e+01   5.621220e+01   1.463407e-19   1.833133e+06   7.576824e-38   0.000000e+00   0.000000e+00
     2296000   2.295999e-05   2.204056e+01   4.903902e+01   3.399906e+01   9.555999e+05   1.338714e+06   8.093508e+05  -8.465673e+01   6.042961e+01   1.680970e-19   1.833133e+06   8.756021e-38   0.000000e+00   0.000000e+00
     2304000   2.303999e-05   2.211701e+01   4.914612e+01   3.406381e+01   9.555999e+05   1.338714e+06   8.093508e+05  -7.590131e+01   5.417982e+01   1.001453e-20   1.833133e+06   7.039655e-38   0.000000e+00   0.000000e+00
     2312000   2.311999e-05   2.219346e+01   4.925321e+01   3.412856e+01   9.555999e+05   1.338714e+06   8.093508e+05  -7.123804e+01   5.085109e+01  -5.074898e-20   1.833133e+06   6.200777e-38   0.000000e+00   0.000000e+00
     2320000   2.319999e-05   2.226991e+01   4.936031e+01   3.419330e+01   9.555999e+05   1.338714e+06   8.093508e+05  -8.474220e+01   6.049062e+01   1.330164e-19   1.833133e+06   8.773849e-38   0.000000e+00   0.000000e+00
     2328000   2.327999e-05   2.234635e+01   4.946741e+01   3.425805e+01   9.555999e+05   1.338714e+06   8.093508e+05  -6.670883e+01   4.761805e+01  -1.626204e-19   1.833133e+06   5.437858e-38   0.000000e+00   0.000000e+00
     2336000   2.335999e-05   2.242280e+01   4.957450e+01   3.432280e+01   9.555993e+05   1.338714e+06   8.093508e+05  -2.415262e+07   1.724059e+07  -9.567804e-15   1.833133e+06   7.125504e-27   0.000000e+00   0.000000e+00
     2344000   2.343999e-05   2.249925e+01   4.968160e+01   3.438755e+01   9.555978e+05   1.338716e+06   8.093508e+05  -2.527331e+07   1.804051e+07   5.611785e-15   1.833133e+06   7.803012e-27   0.000000e+00   0.000000e+00
     2352000   2.351999e-05   2.257570e+01   4.978870e+01   3.445230e+01   9.555773e+05   1.338730e+06   8.093508e+05  -4.127464e+08   2.946158e+08   5.366530e-13   1.833133e+06   2.081155e-24   0.000000e+00   0.000000e+00
     2360000   2.359999e-05   2.265214e+01   4.989580e+01   3.451704e+01   9.555631e+05   1.338740e+06   8.093508e+05  -3.305013e+07   2.359045e+07  -8.532470e-14   1.833133e+06   1.337087e-26   0.000000e+00   0.000000e+00
