     timestep     time              x             y              z              vx             vy             vz             ax             ay             az         v_magnitude      ELoss        Electronic      Nuclear
           0   0.000000e+00   1.000000e-01   1.026932e+01   2.084866e+01   1.365849e+05  -6.350179e+04   8.559266e+05   0.000000e+00   0.000000e+00   0.000000e+00   8.690790e+05   0.000000e+00   0.000000e+00   0.000000e+00
        8000   7.999000e-08   1.109268e-01   1.026424e+01   2.091714e+01   1.365851e+05  -6.350134e+04   8.559266e+05   7.009200e+06   1.507609e+07  -3.725251e-16   8.690790e+05   5.028393e-28   0.000000e+00   0.000000e+00
       16000   1.599900e-07   1.218536e-01   1.025916e+01   2.098561e+01   1.365857e+05  -6.349991e+04   8.559266e+05   9.682791e+06   2.082729e+07  -5.048468e-15   8.690790e+05   9.596756e-28   0.000000e+00   0.000000e+00
       24000   2.399900e-07   1.327805e-01   1.025408e+01   2.105409e+01   1.365860e+05  -6.349928e+04   8.559266e+05   4.571147e+05   9.832471e+05  -5.006725e-17   8.690790e+05   2.143474e-30   0.000000e+00   0.000000e+00
       32000   3.199900e-07   1.437074e-01   1.024900e+01   2.112256e+01   1.365861e+05  -6.349907e+04   8.559266e+05   5.786952e+06   1.244770e+07   1.930450e-15   8.690790e+05   3.427791e-28   0.000000e+00   0.000000e+00
       40000   3.999900e-07   1.546343e-01   1.024392e+01   2.119103e+01   1.365867e+05  -6.349784e+04   8.559266e+05   8.460509e+06   1.819893e+07  -3.694858e-15   8.690790e+05   7.327236e-28   0.000000e+00   0.000000e+00
       48000   4.799900e-07   1.655612e-01   1.023884e+01   2.125951e+01   1.365868e+05  -6.349766e+04   8.559266e+05  -1.748307e+06  -3.760699e+06  -3.379080e-16   8.690790e+05   3.127391e-29   0.000000e+00   0.000000e+00
       56000   5.599900e-07   1.764882e-01   1.023376e+01   2.132798e+01   1.365868e+05  -6.349767e+04   8.559266e+05   4.564870e+06   9.819272e+06  -5.290698e-17   8.690790e+05   2.132933e-28   0.000000e+00   0.000000e+00
       64000   6.399900e-07   1.874151e-01   1.022868e+01   2.139646e+01   1.365873e+05  -6.349666e+04   8.559266e+05   7.238419e+06   1.557052e+07  -7.041614e-16   8.690790e+05   5.363461e-28   0.000000e+00   0.000000e+00
       72000   7.199900e-07   1.983421e-01   1.022360e+01   2.146493e+01   1.365871e+05  -6.349694e+04   8.559266e+05  -3.953696e+06  -8.504724e+06   7.657903e-16   8.690790e+05   1.599910e-28   0.000000e+00   0.000000e+00
       80000   7.999900e-07   2.092691e-01   1.021852e+01   2.153340e+01   1.365871e+05  -6.349692e+04   8.559266e+05   4.480005e+05   9.636863e+05   1.200472e-16   8.690790e+05   2.055697e-30   0.000000e+00   0.000000e+00
       88000   8.799900e-07   2.201961e-01   1.021344e+01   2.160188e+01   1.365871e+05  -6.349691e+04   8.559266e+05   1.772879e+05   3.813610e+05  -5.440762e-18   8.690790e+05   3.214433e-31   0.000000e+00   0.000000e+00
       96000   9.599900e-07   2.311230e-01   1.020836e+01   2.167035e+01   1.365872e+05  -6.349682e+04   8.559266e+05   9.087999e+05   1.954908e+06  -1.140098e-17   8.690790e+05   8.453657e-30   0.000000e+00   0.000000e+00
      104000   1.039990e-06   2.420500e-01   1.020328e+01   2.173883e+01   1.365872e+05  -6.349670e+04   8.559266e+05   1.829409e+05   3.935227e+05   3.495827e-17   8.690790e+05   3.430266e-31   0.000000e+00   0.000000e+00
      112000   1.119990e-06   2.529770e-01   1.019820e+01   2.180730e+01   1.365873e+05  -6.349663e+04   8.559266e+05  -6.725371e+05  -1.446691e+06  -6.661196e-17   8.690790e+05   4.629059e-30   0.000000e+00   0.000000e+00
      120000   1.199990e-06   2.639040e-01   1.019312e+01   2.187577e+01   1.365872e+05  -6.349682e+04   8.559266e+05  -1.527380e+06  -3.285526e+06  -1.095456e-17   8.690790e+05   2.387969e-29   0.000000e+00   0.000000e+00
      128000   1.279990e-06   2.748309e-01   1.018804e+01   2.194425e+01   1.365872e+05  -6.349678e+04   8.559266e+05   1.525084e+06   3.280592e+06  -8.885830e-16   8.690790e+05   2.380850e-29   0.000000e+00   0.000000e+00
      136000   1.359990e-06   2.857579e-01   1.018296e+01   2.201272e+01   1.365873e+05  -6.349655e+04   8.559266e+05  -9.366675e+05  -2.014864e+06   1.738924e-16   8.690790e+05   8.979891e-30   0.000000e+00   0.000000e+00
      144000   1.439990e-06   2.966849e-01   1.017788e+01   2.208120e+01   1.365872e+05  -6.349678e+04   8.559266e+05  -1.791511e+06  -3.853699e+06   5.477264e-16   8.690790e+05   3.285362e-29   0.000000e+00   0.000000e+00
      152000   1.519990e-06   3.076119e-01   1.017280e+01   2.214967e+01   1.365872e+05  -6.349687e+04   8.559266e+05  -1.952305e+00  -4.199574e+00   8.148883e-22   8.690790e+05   3.901467e-41   0.000000e+00   0.000000e+00
      160000   1.599990e-06   3.185389e-01   1.016772e+01   2.221815e+01   1.365872e+05  -6.349687e+04   8.559266e+05  -5.632659e-01  -1.211633e+00   1.107555e-22   8.690790e+05   3.249560e-42   0.000000e+00   0.000000e+00
      168000   1.679990e-06   3.294658e-01   1.016264e+01   2.228662e+01   1.365872e+05  -6.349687e+04   8.559266e+05   4.892680e-01   1.052457e+00   9.165683e-24   8.690790e+05   2.449373e-42   0.000000e+00   0.000000e+00
      176000   1.759990e-06   3.403928e-01   1.015757e+01   2.235509e+01   1.365872e+05  -6.349687e+04   8.559266e+05  -2.441644e+00  -5.252185e+00   1.264081e-21   8.690790e+05   6.102529e-41   0.000000e+00   0.000000e+00
      184000   1.839990e-06   3.513198e-01   1.015249e+01   2.242357e+01   1.365872e+05  -6.349687e+04   8.559266e+05  -2.816265e-01  -6.058026e-01   4.347578e-23   8.690790e+05   8.127326e-43   0.000000e+00   0.000000e+00
      192000   1.919990e-06   3.622467e-01   1.014741e+01   2.249204e+01   1.365872e+05  -6.349687e+04   8.559266e+05   7.709073e-01   1.658287e+00  -5.855295e-23   8.690790e+05   6.082064e-42   0.000000e+00   0.000000e+00
      200000   1.999990e-06   3.731737e-01   1.014233e+01   2.256052e+01   1.365872e+05  -6.349687e+04   8.559266e+05  -2.930984e+00  -6.304795e+00   2.787321e-22   8.690790e+05   8.793872e-41   0.000000e+00   0.000000e+00
      208000   2.079990e-06   3.841007e-01   1.013725e+01   2.262899e+01   1.365872e+05  -6.349687e+04   8.559266e+05   1.281081e-05   2.755713e-05   6.781691e-29   8.690790e+05   1.443795e-49   0.000000e+00   0.000000e+00
      216000   2.159990e-06   3.950277e-01   1.013217e+01   2.269746e+01   1.365872e+05  -6.349687e+04   8.559266e+05   1.052547e+00   2.264117e+00  -2.702384e-22   8.690790e+05   1.133885e-41   0.000000e+00   0.000000e+00
      224000   2.239990e-06   4.059546e-01   1.012709e+01   2.276594e+01   1.365872e+05  -6.349687e+04   8.559266e+05  -5.618219e-01  -1.208527e+00   3.652059e-22   8.690790e+05   3.232855e-42   0.000000e+00   0.000000e+00
      232000   2.319990e-06   4.168816e-01   1.012201e+01   2.283441e+01   1.365872e+05  -6.349687e+04   8.559266e+05  -9.107135e-01  -1.959022e+00  -1.734334e-22   8.690790e+05   8.488723e-42   0.000000e+00   0.000000e+00
      240000   2.399990e-06   4.278086e-01   1.011693e+01   2.290289e+01   1.365872e+05  -6.349687e+04   8.559266e+05  -1.428323e+00  -3.072445e+00   1.418025e-22   8.690790e+05   2.088932e-41   0.000000e+00   0.000000e+00
      248000   2.479990e-06   4.387356e-01   1.011185e+01   2.297136e+01   1.365872e+05  -6.349687e+04   8.559266e+05  -4.238573e-01  -9.117532e-01   6.395295e-23   8.690790e+05   1.840312e-42   0.000000e+00   0.000000e+00
      256000   2.559990e-06   4.496625e-01   1.010677e+01   2.303984e+01   1.365872e+05  -6.349687e+04   8.559266e+05  -9.567120e-01  -2.057969e+00   2.555920e-22   8.690790e+05   9.367998e-42   0.000000e+00   0.000000e+00
      264000   2.639990e-06   4.605895e-01   1.010169e+01   2.310831e+01   1.365872e+05  -6.349687e+04   8.559266e+05  -1.290359e+00  -2.775671e+00  -1.463643e-23   8.690790e+05   1.704905e-41   0.000000e+00   0.000000e+00
      272000   2.719990e-06   4.715165e-01   1.009661e+01   2.317678e+01   1.365872e+05  -6.349687e+04   8.559266e+05  -3.584726e+00  -7.711051e+00   7.879934e-22   8.690790e+05   1.315459e-40   0.000000e+00   0.000000e+00
      280000   2.799990e-06   4.824434e-01   1.009153e+01   2.324526e+01   1.365872e+05  -6.349687e+04   8.559266e+05   7.558775e-01   1.625957e+00  -1.726551e-22   8.690790e+05   5.847382e-42   0.000000e+00   0.000000e+00
      288000   2.879990e-06   4.933704e-01   1.008645e+01   2.331373e+01   1.365872e+05  -6.349687e+04   8.559266e+05  -2.811630e+00  -6.048055e+00  -9.433598e-23   8.690790e+05   8.092330e-41   0.000000e+00   0.000000e+00
      296000   2.959990e-06   5.042974e-01   1.008137e+01   2.338221e+01   1.365872e+05  -6.349687e+04   8.559266e+05  -7.821719e-01  -1.682518e+00   3.859436e-22   8.690790e+05   6.264037e-42   0.000000e+00   0.000000e+00
      304000   3.039990e-06   5.152244e-01   1.007629e+01   2.345068e+01   1.365872e+05  -6.349687e+04   8.559266e+05  -6.379619e-01  -1.372310e+00  -4.735279e-23   8.690790e+05   4.166152e-42   0.000000e+00   0.000000e+00
      312000   3.119990e-06   5.261513e-01   1.007121e+01   2.351915e+01   1.365872e+05  -6.349687e+04   8.559266e+05  -9.671084e-01  -2.080332e+00   4.935229e-22   8.690790e+05   9.576124e-42   0.000000e+00   0.000000e+00
      320000   3.199990e-06   5.370783e-01   1.006613e+01   2.358763e+01   1.365872e+05  -6.349687e+04   8.559266e+05  -5.701497e-01  -1.226440e+00   2.598671e-22   8.690790e+05   3.328498e-42   0.000000e+00   0.000000e+00
      328000   3.279990e-06   5.480053e-01   1.006105e+01   2.365610e+01   1.365872e+05  -6.349687e+04   8.559266e+05  -5.265983e-01  -1.132758e+00  -4.076456e-23   8.690790e+05   2.838534e-42   0.000000e+00   0.000000e+00
      336000   3.359990e-06   5.589323e-01   1.005597e+01   2.372458e+01   1.365872e+05  -6.349687e+04   8.559266e+05  -7.550862e-01  -1.624255e+00  -6.330502e-23   8.690790e+05   5.837744e-42   0.000000e+00   0.000000e+00
      344000   3.439990e-06   5.698592e-01   1.005089e+01   2.379305e+01   1.365872e+05  -6.349687e+04   8.559266e+05  -3.581275e-01  -7.703627e-01  -8.234085e-23   8.690790e+05   1.313381e-42   0.000000e+00   0.000000e+00
      352000   3.519990e-06   5.807862e-01   1.004581e+01   2.386152e+01   1.365872e+05  -6.349687e+04   8.559266e+05  -4.152347e-01  -8.932051e-01   2.525333e-22   8.690790e+05   1.764845e-42   0.000000e+00   0.000000e+00
      360000   3.599990e-06   5.917132e-01   1.004073e+01   2.393000e+01   1.365872e+05  -6.349687e+04   8.559266e+05  -5.430641e-01  -1.168177e+00   9.693879e-23   8.690790e+05   3.019787e-42   0.000000e+00   0.000000e+00
      368000   3.679990e-06   6.026401e-01   1.003565e+01   2.399847e+01   1.365872e+05  -6.349687e+04   8.559266e+05  -8.784058e-01  -1.889526e+00   4.372925e-22   8.690790e+05   7.899826e-42   0.000000e+00   0.000000e+00
      376000   3.759990e-06   6.135671e-01   1.003057e+01   2.406695e+01   1.365872e+05  -6.349687e+04   8.559266e+05  -1.277282e+00  -2.747542e+00   6.178886e-22   8.690790e+05   1.670096e-41   0.000000e+00   0.000000e+00
      384000   3.839990e-06   6.244941e-01   1.002549e+01   2.413542e+01   1.365872e+05  -6.349687e+04   8.559266e+05  -1.340835e+00  -2.884250e+00   3.177452e-23   8.690790e+05   1.840631e-41   0.000000e+00   0.000000e+00
      392000   3.919990e-06   6.354211e-01   1.002041e+01   2.420390e+01   1.365872e+05  -6.349687e+04   8.559266e+05  -9.273985e-01  -1.994913e+00  -8.245956e-23   8.690790e+05   8.804213e-42   0.000000e+00   0.000000e+00
      400000   3.999990e-06   6.463480e-01   1.001533e+01   2.427237e+01   1.365872e+05  -6.349687e+04   8.559266e+05  -1.244700e+00  -2.677456e+00   3.014521e-22   8.690790e+05   1.585977e-41   0.000000e+00   0.000000e+00
      408000   4.079990e-06   6.572750e-01   1.001025e+01   2.434084e+01   1.365872e+05  -6.349687e+04   8.559266e+05  -1.542235e+00  -3.317479e+00   5.569815e-22   8.690790e+05   2.435087e-41   0.000000e+00   0.000000e+00
      416000   4.159990e-06   6.682020e-01   1.000517e+01   2.440932e+01   1.365872e+05  -6.349687e+04   8.559266e+05  -8.948170e-01  -1.924827e+00  -1.135454e-22   8.690790e+05   8.196432e-42   0.000000e+00   0.000000e+00
      424000   4.239990e-06   6.791290e-01   1.000009e+01   2.447779e+01   1.365872e+05  -6.349687e+04   8.559266e+05  -1.212119e+00  -2.607371e+00   2.708236e-22   8.690790e+05   1.504031e-41   0.000000e+00   0.000000e+00
      432000   4.319990e-06   6.900559e-01   9.995013e+00   2.454627e+01   1.365872e+05  -6.349687e+04   8.559266e+05  -1.424012e+00  -3.063170e+00  -2.866329e-22   8.690790e+05   2.075860e-41   0.000000e+00   0.000000e+00
      440000   4.399990e-06   7.009829e-01   9.989933e+00   2.461474e+01   1.365872e+05  -6.349687e+04   8.559266e+05  -1.042228e+00  -2.241921e+00  -5.380166e-23   8.690790e+05   1.111997e-41   0.000000e+00   0.000000e+00
      448000   4.479990e-06   7.119099e-01   9.984854e+00   2.468321e+01   1.365872e+05  -6.349687e+04   8.559266e+05  -1.204107e+00  -2.590137e+00  -1.001391e-22   8.690790e+05   1.484262e-41   0.000000e+00   0.000000e+00
      456000   4.559990e-06   7.228368e-01   9.979774e+00   2.475169e+01   1.365872e+05  -6.349687e+04   8.559266e+05  -2.026062e+00  -4.358232e+00  -2.279349e-23   8.690790e+05   4.202521e-41   0.000000e+00   0.000000e+00
      464000   4.639990e-06   7.337638e-01   9.974694e+00   2.482016e+01   1.365872e+05  -6.349687e+04   8.559266e+05  -9.487873e-01  -2.040922e+00   4.214887e-22   8.690790e+05   9.215397e-42   0.000000e+00   0.000000e+00
      472000   4.719990e-06   7.446908e-01   9.969614e+00   2.488864e+01   1.365872e+05  -6.349687e+04   8.559266e+05  -1.110667e+00  -2.389138e+00  -5.544632e-23   8.690790e+05   1.262835e-41   0.000000e+00   0.000000e+00
      480000   4.799990e-06   7.556178e-01   9.964535e+00   2.495711e+01   1.365872e+05  -6.349687e+04   8.559266e+05  -2.073869e+00  -4.461069e+00  -2.208218e-22   8.690790e+05   4.403184e-41   0.000000e+00   0.000000e+00
      488000   4.879990e-06   7.665447e-01   9.959455e+00   2.502558e+01   1.365872e+05  -6.349687e+04   8.559266e+05  -8.553466e-01  -1.839923e+00   1.799557e-22   8.690790e+05   7.489600e-42   0.000000e+00   0.000000e+00
      496000   4.959990e-06   7.774717e-01   9.954375e+00   2.509406e+01   1.365872e+05  -6.349687e+04   8.559266e+05  -1.017226e+00  -2.188139e+00   5.660280e-22   8.690790e+05   1.059284e-41   0.000000e+00   0.000000e+00
      504000   5.039990e-06   7.883987e-01   9.949295e+00   2.516253e+01   1.365872e+05  -6.349687e+04   8.559266e+05  -2.121676e+00  -4.563906e+00   7.273200e-22   8.690790e+05   4.608528e-41   0.000000e+00   0.000000e+00
      512000   5.119990e-06   7.993257e-01   9.944216e+00   2.523101e+01   1.365872e+05  -6.349687e+04   8.559266e+05  -7.619060e-01  -1.638924e+00   8.471502e-23   8.690790e+05   5.942573e-42   0.000000e+00   0.000000e+00
      520000   5.199990e-06   8.102526e-01   9.939136e+00   2.529948e+01   1.365872e+05  -6.349687e+04   8.559266e+05  -1.857234e+00  -3.995067e+00   1.186772e-21   8.690790e+05   3.530856e-41   0.000000e+00   0.000000e+00
      528000   5.279990e-06   8.211796e-01   9.934056e+00   2.536796e+01   1.365872e+05  -6.349687e+04   8.559266e+05  -2.198276e-01  -4.728679e-01  -9.448801e-24   8.690790e+05   4.953018e-43   0.000000e+00   0.000000e+00
      536000   5.359990e-06   8.321066e-01   9.928976e+00   2.543643e+01   1.365872e+05  -6.349687e+04   8.559266e+05  -1.002276e+00  -2.155981e+00   2.389914e-22   8.690790e+05   1.028207e-41   0.000000e+00   0.000000e+00
      544000   5.439990e-06   8.430335e-01   9.923897e+00   2.550490e+01   1.365872e+05  -6.349687e+04   8.559266e+05  -6.475415e-01  -1.392917e+00   2.109476e-22   8.690790e+05   4.294409e-42   0.000000e+00   0.000000e+00
      552000   5.519990e-06   8.539605e-01   9.918817e+00   2.557338e+01   1.365872e+05  -6.349687e+04   8.559266e+05   3.863516e-01   8.310751e-01   3.598925e-23   8.690790e+05   1.527108e-42   0.000000e+00   0.000000e+00
      560000   5.599990e-06   8.648875e-01   9.913737e+00   2.564185e+01   1.365872e+05  -6.349687e+04   8.559266e+05  -9.675893e-01  -2.081367e+00   1.051644e-22   8.690790e+05   9.582634e-42   0.000000e+00   0.000000e+00
      568000   5.679990e-06   8.758145e-01   9.908657e+00   2.571033e+01   1.365872e+05  -6.349687e+04   8.559266e+05  -4.136227e-02  -8.897376e-02   1.402197e-23   8.690790e+05   1.762436e-44   0.000000e+00   0.000000e+00
      576000   5.759990e-06   8.867414e-01   9.903578e+00   2.577880e+01   1.365872e+05  -6.349687e+04   8.559266e+05   9.925308e-01   2.135018e+00  -6.260526e-23   8.690790e+05   1.008253e-41   0.000000e+00   0.000000e+00
      584000   5.839990e-06   8.976684e-01   9.898498e+00   2.584727e+01   1.365872e+05  -6.349687e+04   8.559266e+05   4.187830e-02   9.008378e-02   3.923656e-24   8.690790e+05   1.798831e-44   0.000000e+00   0.000000e+00
      592000   5.919990e-06   9.085954e-01   9.893418e+00   2.591575e+01   1.365872e+05  -6.349687e+04   8.559266e+05   3.360187e-01   7.228048e-01  -5.617073e-23   8.690790e+05   1.155496e-42   0.000000e+00   0.000000e+00
      600000   5.999990e-06   9.195224e-01   9.888338e+00   2.598422e+01   1.365872e+05  -6.349687e+04   8.559266e+05   8.099777e-01   1.742331e+00  -5.359629e-24   8.690790e+05   6.715486e-42   0.000000e+00   0.000000e+00
      608000   6.079990e-06   9.304493e-01   9.883259e+00   2.605270e+01   1.365872e+05  -6.349687e+04   8.559266e+05  -6.289439e-01  -1.352912e+00  -1.054626e-22   8.690790e+05   4.048995e-42   0.000000e+00   0.000000e+00
      616000   6.159990e-06   9.413763e-01   9.878179e+00   2.612117e+01   1.365872e+05  -6.349687e+04   8.559266e+05   4.859488e-01   1.045317e+00   9.376307e-23   8.690790e+05   2.416963e-42   0.000000e+00   0.000000e+00
      624000   6.239990e-06   9.523033e-01   9.873099e+00   2.618965e+01   1.365872e+05  -6.349687e+04   8.559266e+05   9.599077e-01   2.064843e+00  -2.141679e-22   8.690790e+05   9.431923e-42   0.000000e+00   0.000000e+00
      632000   6.319990e-06   9.632302e-01   9.868019e+00   2.625812e+01   1.365872e+05  -6.349687e+04   8.559266e+05  -5.986841e-01  -1.287820e+00  -2.640196e-23   8.690790e+05   3.668726e-42   0.000000e+00   0.000000e+00
      640000   6.399990e-06   9.741572e-01   9.862940e+00   2.632659e+01   1.365872e+05  -6.349687e+04   8.559266e+05   6.358788e-01   1.367829e+00   1.720725e-22   8.690790e+05   4.138688e-42   0.000000e+00   0.000000e+00
      648000   6.479990e-06   9.850842e-01   9.857860e+00   2.639507e+01   1.365872e+05  -6.349687e+04   8.559266e+05   1.109838e+00   2.387355e+00  -1.355604e-22   8.690790e+05   1.260862e-41   0.000000e+00   0.000000e+00
      656000   6.559990e-06   9.960112e-01   9.852780e+00   2.646354e+01   1.365872e+05  -6.349687e+04   8.559266e+05  -5.684243e-01  -1.222729e+00  -9.101165e-23   8.690790e+05   3.307204e-42   0.000000e+00   0.000000e+00
      664000   6.639990e-06   1.006938e+00   9.847700e+00   2.653202e+01   1.365872e+05  -6.349687e+04   8.559266e+05  -1.760644e+00  -3.787295e+00   2.983016e-22   8.690790e+05   3.173465e-41   0.000000e+00   0.000000e+00
      672000   6.719990e-06   1.017865e+00   9.842621e+00   2.660049e+01   1.365872e+05  -6.349687e+04   8.559266e+05  -1.192145e+00  -2.564406e+00   4.651805e-22   8.690790e+05   1.454994e-41   0.000000e+00   0.000000e+00
      680000   6.799990e-06   1.028792e+00   9.837541e+00   2.666896e+01   1.365872e+05  -6.349687e+04   8.559266e+05  -1.105751e+00  -2.378565e+00   6.412076e-23   8.690790e+05   1.251751e-41   0.000000e+00   0.000000e+00
      688000   6.879990e-06   1.039719e+00   9.832461e+00   2.673744e+01   1.365872e+05  -6.349687e+04   8.559266e+05  -1.794394e+00  -3.859894e+00  -3.112450e-23   8.690790e+05   3.296296e-41   0.000000e+00   0.000000e+00
      696000   6.959990e-06   1.050646e+00   9.827381e+00   2.680591e+01   1.365872e+05  -6.349687e+04   8.559266e+05  -1.111498e+00  -2.390928e+00   6.204611e-22   8.690790e+05   1.264798e-41   0.000000e+00   0.000000e+00
      704000   7.039990e-06   1.061573e+00   9.822302e+00   2.687439e+01   1.365872e+05  -6.349687e+04   8.559266e+05  -1.025104e+00  -2.205086e+00  -6.791124e-23   8.690790e+05   1.075821e-41   0.000000e+00   0.000000e+00
      712000   7.119990e-06   1.072500e+00   9.817222e+00   2.694286e+01   1.365872e+05  -6.349687e+04   8.559266e+05  -1.828144e+00  -3.932493e+00  -3.605364e-22   8.690790e+05   3.421461e-41   0.000000e+00   0.000000e+00
      720000   7.199990e-06   1.083427e+00   9.812142e+00   2.701133e+01   1.365872e+05  -6.349687e+04   8.559266e+05  -1.030852e+00  -2.217449e+00   4.885157e-22   8.690790e+05   1.087918e-41   0.000000e+00   0.000000e+00
      728000   7.279990e-06   1.094354e+00   9.807062e+00   2.707981e+01   1.365872e+05  -6.349687e+04   8.559266e+05  -9.444572e-01  -2.031608e+00   2.307103e-22   8.690790e+05   9.132072e-42   0.000000e+00   0.000000e+00
      736000   7.359990e-06   1.105281e+00   9.801983e+00   2.714828e+01   1.365872e+05  -6.349687e+04   8.559266e+05  -1.352050e+00  -2.908375e+00  -3.735138e-22   8.690790e+05   1.871622e-41   0.000000e+00   0.000000e+00
      744000   7.439990e-06   1.116208e+00   9.796903e+00   2.721676e+01   1.365872e+05  -6.349687e+04   8.559266e+05  -8.659972e-01  -1.862834e+00   3.187249e-22   8.690790e+05   7.677659e-42   0.000000e+00   0.000000e+00
      752000   7.519990e-06   1.127135e+00   9.791823e+00   2.728523e+01   1.365872e+05  -6.349687e+04   8.559266e+05  -8.579371e-01  -1.845496e+00  -1.871343e-22   8.690790e+05   7.535408e-42   0.000000e+00   0.000000e+00
      760000   7.599990e-06   1.138062e+00   9.786743e+00   2.735371e+01   1.365872e+05  -6.349687e+04   8.559266e+05  -1.456885e+00  -3.133883e+00   1.984060e-22   8.690790e+05   2.172976e-41   0.000000e+00   0.000000e+00
      768000   7.679990e-06   1.148989e+00   9.781664e+00   2.742218e+01   1.365872e+05  -6.349687e+04   8.559266e+05  -6.615241e-01  -1.422995e+00   5.029289e-23   8.690790e+05   4.480099e-42   0.000000e+00   0.000000e+00
      776000   7.759990e-06   1.159916e+00   9.776584e+00   2.749065e+01   1.365872e+05  -6.349687e+04   8.559266e+05  -6.534640e-01  -1.405657e+00  -2.517614e-23   8.690790e+05   4.371592e-42   0.000000e+00   0.000000e+00
      784000   7.839990e-06   1.170843e+00   9.771504e+00   2.755913e+01   1.365872e+05  -6.349687e+04   8.559266e+05  -1.245520e+00  -2.679218e+00  -2.194711e-23   8.690790e+05   1.588208e-41   0.000000e+00   0.000000e+00
      792000   7.919990e-06   1.181770e+00   9.766424e+00   2.762760e+01   1.365872e+05  -6.349687e+04   8.559266e+05  -4.570511e-01  -9.831558e-01   6.867357e-23   8.690790e+05   2.138584e-42   0.000000e+00   0.000000e+00
      800000   7.999990e-06   1.192697e+00   9.761345e+00   2.769608e+01   1.365872e+05  -6.349687e+04   8.559266e+05  -4.489910e-01  -9.658178e-01  -7.024636e-24   8.690790e+05   2.063821e-42   0.000000e+00   0.000000e+00
      808000   8.079990e-06   1.203624e+00   9.756265e+00   2.776455e+01   1.365872e+05  -6.349687e+04   8.559266e+05  -1.149462e+00  -2.472591e+00   7.108167e-23   8.690790e+05   1.352759e-41   0.000000e+00   0.000000e+00
      816000   8.159990e-06   1.214551e+00   9.751185e+00   2.783302e+01   1.365872e+05  -6.349687e+04   8.559266e+05  -5.126039e-01  -1.102655e+00  -1.450398e-22   8.690790e+05   2.689669e-42   0.000000e+00   0.000000e+00
      824000   8.239990e-06   1.225478e+00   9.746106e+00   2.790150e+01   1.365872e+05  -6.349687e+04   8.559266e+05  -1.209236e+00  -2.601169e+00   1.556822e-22   8.690790e+05   1.497101e-41   0.000000e+00   0.000000e+00
      832000   8.319990e-06   1.236405e+00   9.741026e+00   2.796997e+01   1.365872e+05  -6.349687e+04   8.559266e+05  -8.283794e-01  -1.781914e+00  -5.358745e-23   8.690790e+05   7.025923e-42   0.000000e+00   0.000000e+00
      840000   8.399990e-06   1.247332e+00   9.735946e+00   2.803845e+01   1.365872e+05  -6.349687e+04   8.559266e+05  -5.394408e-01  -1.160383e+00  -6.406716e-23   8.690790e+05   2.978692e-42   0.000000e+00   0.000000e+00
      848000   8.479990e-06   1.258259e+00   9.730866e+00   2.810692e+01   1.365872e+05  -6.349687e+04   8.559266e+05  -8.881528e-01  -1.910492e+00   1.742669e-22   8.690790e+05   8.076381e-42   0.000000e+00   0.000000e+00
      856000   8.559990e-06   1.269185e+00   9.725787e+00   2.817539e+01   1.365872e+05  -6.349687e+04   8.559266e+05  -5.072963e-01  -1.091237e+00   2.511573e-22   8.690790e+05   2.635116e-42   0.000000e+00   0.000000e+00
      864000   8.639990e-06   1.280112e+00   9.720707e+00   2.824387e+01   1.365872e+05  -6.349687e+04   8.559266e+05  -5.662777e-01  -1.218112e+00   1.603935e-22   8.690790e+05   3.282461e-42   0.000000e+00   0.000000e+00
      872000   8.719990e-06   1.291039e+00   9.715627e+00   2.831234e+01   1.365872e+05  -6.349687e+04   8.559266e+05  -5.670697e-01  -1.219815e+00  -9.554338e-23   8.690790e+05   3.292613e-42   0.000000e+00   0.000000e+00
      880000   8.799990e-06   1.301966e+00   9.710547e+00   2.838082e+01   1.365872e+05  -6.349687e+04   8.559266e+05  -5.322356e-01  -1.144884e+00   9.736249e-24   8.690790e+05   2.899940e-42   0.000000e+00   0.000000e+00
      888000   8.879990e-06   1.312893e+00   9.705468e+00   2.844929e+01   1.365872e+05  -6.349687e+04   8.559266e+05  -6.762919e-01  -1.454761e+00  -8.257135e-23   8.690790e+05   4.682411e-42   0.000000e+00   0.000000e+00
      896000   8.959990e-06   1.323820e+00   9.700388e+00   2.851777e+01   1.365872e+05  -6.349687e+04   8.559266e+05  -6.992248e-01  -1.504092e+00   4.441504e-24   8.690790e+05   5.005162e-42   0.000000e+00   0.000000e+00
      904000   9.039990e-06   1.334747e+00   9.695308e+00   2.858624e+01   1.365872e+05  -6.349687e+04   8.559266e+05  -1.365537e-02  -2.937387e-02   4.221978e-24   8.690790e+05   1.909324e-45   0.000000e+00   0.000000e+00
      912000   9.119990e-06   1.345674e+00   9.690228e+00   2.865471e+01   1.365872e+05  -6.349687e+04   8.559266e+05   9.688833e-02   2.084150e-01  -8.312081e-24   8.690790e+05   9.607275e-44   0.000000e+00   0.000000e+00
      920000   9.199990e-06   1.356601e+00   9.685149e+00   2.872319e+01   1.365872e+05  -6.349687e+04   8.559266e+05   2.274702e-01   4.893078e-01   6.942654e-23   8.690790e+05   5.297113e-43   0.000000e+00   0.000000e+00
      928000   9.279990e-06   1.367528e+00   9.680069e+00   2.879166e+01   1.365872e+05  -6.349687e+04   8.559266e+05   2.372292e-01   5.103002e-01   2.215303e-23   8.690790e+05   5.761382e-43   0.000000e+00   0.000000e+00
      936000   9.359990e-06   1.378455e+00   9.674989e+00   2.886014e+01   1.365872e+05  -6.349687e+04   8.559266e+05   2.434788e-01   5.237436e-01   4.986026e-23   8.690790e+05   6.068235e-43   0.000000e+00   0.000000e+00
      944000   9.439990e-06   1.389382e+00   9.669909e+00   2.892861e+01   1.365872e+05  -6.349687e+04   8.559266e+05   4.783548e-01   1.028982e+00   1.808167e-23   8.690790e+05   2.342572e-42   0.000000e+00   0.000000e+00
      952000   9.519990e-06   1.400309e+00   9.664830e+00   2.899708e+01   1.365872e+05  -6.349687e+04   8.559266e+05  -1.675463e+00  -3.604063e+00  -1.768805e-23   8.690790e+05   2.873725e-41   0.000000e+00   0.000000e+00
      960000   9.599990e-06   1.411236e+00   9.659750e+00   2.906556e+01   1.365872e+05  -6.349687e+04   8.559266e+05  -7.579091e-01  -1.630327e+00  -2.589354e-22   8.690790e+05   5.881589e-42   0.000000e+00   0.000000e+00
      968000   9.679990e-06   1.422163e+00   9.654670e+00   2.913403e+01   1.365872e+05  -6.349687e+04   8.559266e+05  -1.459100e+00  -3.138648e+00   3.603912e-23   8.690790e+05   2.179430e-41   0.000000e+00   0.000000e+00
      976000   9.759990e-06   1.433090e+00   9.649590e+00   2.920251e+01   1.365872e+05  -6.349687e+04   8.559266e+05  -6.552611e-01  -1.409522e+00   2.637029e-23   8.690790e+05   4.396424e-42   0.000000e+00   0.000000e+00
      984000   9.839990e-06   1.444017e+00   9.644511e+00   2.927098e+01   1.365872e+05  -6.349687e+04   8.559266e+05  -1.973828e-01  -4.245871e-01  -4.989173e-23   8.690790e+05   3.990848e-43   0.000000e+00   0.000000e+00
      992000   9.919990e-06   1.454944e+00   9.639431e+00   2.933946e+01   1.365872e+05  -6.349687e+04   8.559266e+05  -1.541110e+00  -3.315059e+00  -1.699654e-22   8.690790e+05   2.431315e-41   0.000000e+00   0.000000e+00
     1000000   9.999990e-06   1.465871e+00   9.634351e+00   2.940793e+01   1.365872e+05  -6.349687e+04   8.559266e+05  -9.473480e-02  -2.037826e-01   1.960852e-23   8.690790e+05   9.198956e-44   0.000000e+00   0.000000e+00
     1008000   1.007999e-05   1.476798e+00   9.629271e+00   2.947640e+01   1.365872e+05  -6.349687e+04   8.559266e+05   3.631435e-01   7.811526e-01  -5.686533e-23   8.690790e+05   1.349630e-42   0.000000e+00   0.000000e+00
     1016000   1.015999e-05   1.487725e+00   9.624192e+00   2.954488e+01   1.365872e+05  -6.349687e+04   8.559266e+05  -1.623120e+00  -3.491469e+00  -8.994855e-23   8.690790e+05   2.696971e-41   0.000000e+00   0.000000e+00
     1024000   1.023999e-05   1.498652e+00   9.619112e+00   2.961335e+01   1.365872e+05  -6.349687e+04   8.559266e+05   4.172840e-02   1.525849e+00   1.065361e-01   8.690790e+05   4.257002e-42   0.000000e+00   0.000000e+00
     1032000   1.031999e-05   1.509579e+00   9.614032e+00   2.968183e+01   1.365872e+05  -6.349687e+04   8.559266e+05  -1.553125e+00  -3.340904e+00   1.708093e-22   8.690790e+05   2.468964e-41   0.000000e+00   0.000000e+00
     1040000   1.039999e-05   1.520506e+00   9.608952e+00   2.975030e+01   1.365872e+05  -6.349687e+04   8.559266e+05  -2.446840e+00  -3.108255e+00   1.598765e-01   8.690790e+05   2.851465e-41   0.000000e+00   0.000000e+00
     1048000   1.047999e-05   1.531433e+00   9.603873e+00   2.981877e+01   1.365872e+05  -6.349687e+04   8.559266e+05  -2.329668e+00  -6.657636e+00  -1.221324e-01   8.690790e+05   9.052396e-41   0.000000e+00   0.000000e+00
     1056000   1.055999e-05   1.542360e+00   9.598793e+00   2.988725e+01   1.365872e+05  -6.349687e+04   8.559266e+05   7.960573e+00  -2.394853e+01  -3.046954e+00   8.690790e+05   1.175473e-39   0.000000e+00   0.000000e+00
     1064000   1.063999e-05   1.553287e+00   9.593713e+00   2.995572e+01   1.365872e+05  -6.349687e+04   8.559266e+05  -6.274011e-01  -1.323766e+01  -8.819153e-01   8.690790e+05   3.208990e-40   0.000000e+00   0.000000e+00
     1072000   1.071999e-05   1.564214e+00   9.588633e+00   3.002420e+01   1.365872e+05  -6.349687e+04   8.559266e+05  -8.648783e+00   2.114184e+01   2.948563e+00   8.690790e+05   9.650022e-40   0.000000e+00   0.000000e+00
     1080000   1.079999e-05   1.575141e+00   9.583554e+00   3.009267e+01   1.365872e+05  -6.349687e+04   8.559266e+05  -1.301147e+01   2.844712e+01   4.186694e+00   8.690790e+05   1.812023e-39   0.000000e+00   0.000000e+00
     1088000   1.087999e-05   1.586068e+00   9.578474e+00   3.016114e+01   1.365872e+05  -6.349687e+04   8.559266e+05  -2.473920e+00   3.560992e+00   6.589556e-01   8.690790e+05   3.498824e-41   0.000000e+00   0.000000e+00
     1096000   1.095999e-05   1.596995e+00   9.573394e+00   3.022962e+01   1.365872e+05  -6.349687e+04   8.559266e+05   8.697857e-01   1.870983e+00  -7.409048e-23   8.690790e+05   7.745388e-42   0.000000e+00   0.000000e+00
     1104000   1.103999e-05   1.607922e+00   9.568314e+00   3.029809e+01   1.365872e+05  -6.349687e+04   8.559266e+05  -1.989773e+00  -4.280171e+00   4.830374e-22   8.690790e+05   4.053025e-41   0.000000e+00   0.000000e+00
     1112000   1.111999e-05   1.618849e+00   9.563235e+00   3.036657e+01   1.365872e+05  -6.349687e+04   8.559266e+05  -1.560272e+00  -3.356279e+00  -9.048473e-23   8.690790e+05   2.492285e-41   0.000000e+00   0.000000e+00
     1120000   1.119999e-05   1.629776e+00   9.558155e+00   3.043504e+01   1.365872e+05  -6.349687e+04   8.559266e+05  -2.072930e+00  -4.459048e+00   6.155736e-22   8.690790e+05   4.398882e-41   0.000000e+00   0.000000e+00
     1128000   1.127999e-05   1.640703e+00   9.553075e+00   3.050352e+01   1.365872e+05  -6.349687e+04   8.559266e+05  -2.253667e+00  -4.847829e+00  -4.489401e-23   8.690790e+05   5.199668e-41   0.000000e+00   0.000000e+00
     1136000   1.135999e-05   1.651630e+00   9.547995e+00   3.057199e+01   1.365872e+05  -6.349687e+04   8.559266e+05  -2.226018e+00  -4.788354e+00   3.894739e-22   8.690790e+05   5.072869e-41   0.000000e+00   0.000000e+00
     1144000   1.143999e-05   1.662557e+00   9.542916e+00   3.064046e+01   1.365872e+05  -6.349687e+04   8.559266e+05  -2.572011e+00  -5.532614e+00  -8.858318e-22   8.690790e+05   6.772093e-41   0.000000e+00   0.000000e+00
     1152000   1.151999e-05   1.673483e+00   9.537836e+00   3.070894e+01   1.365872e+05  -6.349687e+04   8.559266e+05  -2.919412e+00  -6.279904e+00  -4.234915e-22   8.690790e+05   8.725430e-41   0.000000e+00   0.000000e+00
     1160000   1.159999e-05   1.684410e+00   9.532756e+00   3.077741e+01   1.365872e+05  -6.349687e+04   8.559266e+05  -2.891764e+00  -6.220430e+00   5.867912e-22   8.690790e+05   8.560942e-41   0.000000e+00   0.000000e+00
     1168000   1.167999e-05   1.695337e+00   9.527676e+00   3.084589e+01   1.365872e+05  -6.349687e+04   8.559266e+05  -3.071092e+00  -6.606180e+00  -8.506644e-23   8.690790e+05   9.655301e-41   0.000000e+00   0.000000e+00
     1176000   1.175999e-05   1.706264e+00   9.522597e+00   3.091436e+01   1.365872e+05  -6.349687e+04   8.559266e+05  -2.455760e+00  -5.282548e+00   5.477793e-22   8.690790e+05   6.174383e-41   0.000000e+00   0.000000e+00
     1184000   1.183999e-05   1.717191e+00   9.517517e+00   3.098283e+01   1.365872e+05  -6.349687e+04   8.559266e+05  -1.845147e+00  -3.969068e+00   5.512530e-22   8.690790e+05   3.485721e-41   0.000000e+00   0.000000e+00
     1192000   1.191999e-05   1.728118e+00   9.512437e+00   3.105131e+01   1.365872e+05  -6.349687e+04   8.559266e+05  -2.259324e+00  -4.859998e+00  -1.024194e-21   8.690790e+05   5.225639e-41   0.000000e+00   0.000000e+00
     1200000   1.199999e-05   1.739045e+00   9.507357e+00   3.111978e+01   1.365872e+05  -6.349687e+04   8.559266e+05  -2.034999e+00  -4.377455e+00   3.707128e-22   8.690790e+05   4.239901e-41   0.000000e+00   0.000000e+00
     1208000   1.207999e-05   1.749972e+00   9.502278e+00   3.118826e+01   1.365872e+05  -6.349687e+04   8.559266e+05  -1.424386e+00  -3.063975e+00   8.625031e-23   8.690790e+05   2.077288e-41   0.000000e+00   0.000000e+00
     1216000   1.215999e-05   1.760899e+00   9.497198e+00   3.125673e+01   1.365872e+05  -6.349687e+04   8.559266e+05  -2.614163e+00  -5.623286e+00   1.878915e-21   8.690790e+05   6.996390e-41   0.000000e+00   0.000000e+00
     1224000   1.223999e-05   1.771826e+00   9.492118e+00   3.132520e+01   1.365872e+05  -6.349687e+04   8.559266e+05  -3.416005e+00  -7.348117e+00   4.366571e-22   8.690790e+05   1.194602e-40   0.000000e+00   0.000000e+00
     1232000   1.231999e-05   1.782753e+00   9.487038e+00   3.139368e+01   1.365872e+05  -6.349687e+04   8.559266e+05  -3.683810e+00  -7.924189e+00   8.542620e-22   8.690790e+05   1.389253e-40   0.000000e+00   0.000000e+00
     1240000   1.239999e-05   1.793680e+00   9.481959e+00   3.146215e+01   1.365872e+05  -6.349687e+04   8.559266e+05  -2.634383e+00  -5.666783e+00  -1.924231e-23   8.690790e+05   7.105042e-41   0.000000e+00   0.000000e+00
     1248000   1.247999e-05   1.804607e+00   9.476879e+00   3.153063e+01   1.365872e+05  -6.349687e+04   8.559266e+05  -1.298854e+00  -2.793945e+00   2.304968e-22   8.690790e+05   1.726884e-41   0.000000e+00   0.000000e+00
     1256000   1.255999e-05   1.815534e+00   9.471799e+00   3.159910e+01   1.365872e+05  -6.349687e+04   8.559266e+05  -1.924626e+00  -4.140034e+00   8.830279e-22   8.690790e+05   3.791860e-41   0.000000e+00   0.000000e+00
     1264000   1.263999e-05   1.826461e+00   9.466719e+00   3.166758e+01   1.365872e+05  -6.349687e+04   8.559266e+05   2.065486e-01   4.443035e-01   4.564148e-23   8.690790e+05   4.363666e-43   0.000000e+00   0.000000e+00
     1272000   1.271999e-05   1.837388e+00   9.461640e+00   3.173605e+01   1.365872e+05  -6.349687e+04   8.559266e+05  -1.474611e+00  -3.172014e+00   3.375759e-22   8.690790e+05   2.225891e-41   0.000000e+00   0.000000e+00
     1280000   1.279999e-05   1.848315e+00   9.456560e+00   3.180452e+01   1.365872e+05  -6.349687e+04   8.559266e+05  -2.004743e-02  -4.312372e-02  -1.462036e-25   8.690790e+05   4.152380e-45   0.000000e+00   0.000000e+00
     1288000   1.287999e-05   1.859242e+00   9.451480e+00   3.187300e+01   1.365872e+05  -6.349687e+04   8.559266e+05   7.174340e-01   1.543261e+00   6.992144e-23   8.690790e+05   5.268017e-42   0.000000e+00   0.000000e+00
     1296000   1.295999e-05   1.870169e+00   9.446400e+00   3.194147e+01   1.365872e+05  -6.349687e+04   8.559266e+05  -1.650368e+00  -3.550082e+00  -1.309697e-22   8.690790e+05   2.788146e-41   0.000000e+00   0.000000e+00
     1304000   1.303999e-05   1.881096e+00   9.441321e+00   3.200995e+01   1.365872e+05  -6.349687e+04   8.559266e+05   4.908380e-01   1.055834e+00  -1.917097e-22   8.690790e+05   2.465517e-42   0.000000e+00   0.000000e+00
     1312000   1.311999e-05   1.892023e+00   9.436241e+00   3.207842e+01   1.365872e+05  -6.349687e+04   8.559266e+05   1.228319e+00   2.642219e+00   5.617121e-23   8.690790e+05   1.544373e-41   0.000000e+00   0.000000e+00
     1320000   1.319999e-05   1.902950e+00   9.431161e+00   3.214689e+01   1.365872e+05  -6.349687e+04   8.559266e+05  -7.728542e-01  -1.662475e+00  -6.330160e-23   8.690790e+05   6.116833e-42   0.000000e+00   0.000000e+00
     1328000   1.327999e-05   1.913877e+00   9.426081e+00   3.221537e+01   1.365872e+05  -6.349687e+04   8.559266e+05  -1.115823e+00  -2.400230e+00   4.093827e-24   8.690790e+05   1.274283e-41   0.000000e+00   0.000000e+00
     1336000   1.335999e-05   1.924804e+00   9.421002e+00   3.228384e+01   1.365872e+05  -6.349687e+04   8.559266e+05  -2.342656e+00  -5.039251e+00   2.099083e-22   8.690790e+05   5.617653e-41   0.000000e+00   0.000000e+00
     1344000   1.343999e-05   1.935731e+00   9.415922e+00   3.235232e+01   1.365872e+05  -6.349687e+04   8.559266e+05  -1.107478e+00  -2.382279e+00   2.664160e-23   8.690790e+05   1.255915e-41   0.000000e+00   0.000000e+00
     1352000   1.351999e-05   1.946658e+00   9.410842e+00   3.242079e+01   1.365872e+05  -6.349687e+04   8.559266e+05  -1.544898e+00  -3.323207e+00  -2.871501e-22   8.690790e+05   2.442915e-41   0.000000e+00   0.000000e+00
     1360000   1.359999e-05   1.957585e+00   9.405762e+00   3.248926e+01   1.365872e+05  -6.349687e+04   8.559266e+05  -2.771731e+00  -5.962229e+00  -3.670430e-22   8.690790e+05   7.864099e-41   0.000000e+00   0.000000e+00
     1368000   1.367999e-05   1.968512e+00   9.400683e+00   3.255774e+01   1.365872e+05  -6.349687e+04   8.559266e+05  -1.442102e+00  -3.102083e+00  -1.700712e-22   8.690790e+05   2.129413e-41   0.000000e+00   0.000000e+00
     1376000   1.375999e-05   1.979439e+00   9.395603e+00   3.262621e+01   1.365872e+05  -6.349687e+04   8.559266e+05   8.990132e-02   1.933854e-01  -2.322038e-23   8.690790e+05   8.257889e-44   0.000000e+00   0.000000e+00
     1384000   1.383999e-05   1.990366e+00   9.390523e+00   3.269469e+01   1.365872e+05  -6.349687e+04   8.559266e+05   7.999835e-01   1.720833e+00  -7.563447e-23   8.690790e+05   6.550291e-42   0.000000e+00   0.000000e+00
     1392000   1.391999e-05   2.001293e+00   9.385443e+00   3.276316e+01   1.365872e+05  -6.349687e+04   8.559266e+05  -2.365845e+00  -5.089133e+00  -1.752908e-22   8.690790e+05   5.730193e-41   0.000000e+00   0.000000e+00
     1400000   1.399999e-05   2.012220e+00   9.380364e+00   3.283164e+01   1.365872e+05  -6.349687e+04   8.559266e+05  -2.200857e+00  -4.734230e+00   4.263280e-22   8.690790e+05   4.958612e-41   0.000000e+00   0.000000e+00
     1408000   1.407999e-05   2.023147e+00   9.375284e+00   3.290011e+01   1.365872e+05  -6.349687e+04   8.559266e+05  -3.130552e+00  -6.734083e+00  -3.424272e-24   8.690790e+05   1.003317e-40   0.000000e+00   0.000000e+00
     1416000   1.415999e-05   2.034074e+00   9.370204e+00   3.296858e+01   1.365872e+05  -6.349687e+04   8.559266e+05  -3.089952e+00  -6.646749e+00  -2.915207e-22   8.690790e+05   9.774617e-41   0.000000e+00   0.000000e+00
     1424000   1.423999e-05   2.045001e+00   9.365124e+00   3.303706e+01   1.365872e+05  -6.349687e+04   8.559266e+05  -2.466800e+00  -5.306297e+00  -3.474860e-22   8.690790e+05   6.229404e-41   0.000000e+00   0.000000e+00
     1432000   1.431999e-05   2.055928e+00   9.360045e+00   3.310553e+01   1.365872e+05  -6.349687e+04   8.559266e+05  -3.854659e+00  -8.291699e+00  -6.901461e-22   8.690790e+05   1.521136e-40   0.000000e+00   0.000000e+00
     1440000   1.439999e-05   2.066854e+00   9.354965e+00   3.317401e+01   1.365872e+05  -6.349687e+04   8.559266e+05  -3.814059e+00  -8.204365e+00   1.727505e-22   8.690790e+05   1.489261e-40   0.000000e+00   0.000000e+00
     1448000   1.447999e-05   2.077781e+00   9.349885e+00   3.324248e+01   1.365872e+05  -6.349687e+04   8.559266e+05  -2.732744e+00  -5.878364e+00   3.098899e-23   8.690790e+05   7.645009e-41   0.000000e+00   0.000000e+00
     1456000   1.455999e-05   2.088708e+00   9.344805e+00   3.331095e+01   1.365872e+05  -6.349687e+04   8.559266e+05  -4.578766e+00  -9.849315e+00  -2.212613e-22   8.690790e+05   2.146311e-40   0.000000e+00   0.000000e+00
     1464000   1.463999e-05   2.099635e+00   9.339726e+00   3.337943e+01   1.365872e+05  -6.349687e+04   8.559266e+05  -4.538166e+00  -9.761981e+00  -1.084050e-21   8.690790e+05   2.108417e-40   0.000000e+00   0.000000e+00
     1472000   1.471999e-05   2.110562e+00   9.334646e+00   3.344790e+01   1.365872e+05  -6.349687e+04   8.559266e+05  -3.408065e+00  -7.331036e+00  -1.513484e-22   8.690790e+05   1.188953e-40   0.000000e+00   0.000000e+00
     1480000   1.479999e-05   2.121489e+00   9.329566e+00   3.351638e+01   1.365872e+05  -6.349687e+04   8.559266e+05  -2.778720e+00  -5.977263e+00  -9.091174e-22   8.690790e+05   7.905771e-41   0.000000e+00   0.000000e+00
     1488000   1.487999e-05   2.132416e+00   9.324486e+00   3.358485e+01   1.365872e+05  -6.349687e+04   8.559266e+05  -1.249664e+00  -2.688134e+00  -5.398849e-23   8.690790e+05   1.599243e-41   0.000000e+00   0.000000e+00
     1496000   1.495999e-05   2.143343e+00   9.319407e+00   3.365333e+01   1.365872e+05  -6.349687e+04   8.559266e+05  -3.568149e+00  -7.675391e+00  -5.324321e-22   8.690790e+05   1.303278e-40   0.000000e+00   0.000000e+00
     1504000   1.503999e-05   2.154270e+00   9.314327e+00   3.372180e+01   1.365872e+05  -6.349687e+04   8.559266e+05  -2.333112e+00  -5.018723e+00  -4.191009e-22   8.690790e+05   5.573620e-41   0.000000e+00   0.000000e+00
     1512000   1.511999e-05   2.165197e+00   9.309247e+00   3.379027e+01   1.365872e+05  -6.349687e+04   8.559266e+05  -8.040565e-01  -1.729594e+00   1.950846e-24   8.690790e+05   6.621776e-42   0.000000e+00   0.000000e+00
     1520000   1.519999e-05   2.176124e+00   9.304167e+00   3.385875e+01   1.365872e+05  -6.349687e+04   8.559266e+05  -3.728233e+00  -8.019746e+00   2.356946e-22   8.690790e+05   1.422850e-40   0.000000e+00   0.000000e+00
     1528000   1.527999e-05   2.187051e+00   9.299088e+00   3.392722e+01   1.365872e+05  -6.349687e+04   8.559266e+05  -5.776675e+00  -1.242612e+01   1.099086e-21   8.690790e+05   3.416337e-40   0.000000e+00   0.000000e+00
     1536000   1.535999e-05   2.197978e+00   9.294008e+00   3.399570e+01   1.365872e+05  -6.349687e+04   8.559266e+05  -5.241403e+00  -1.127470e+01  -5.950973e-22   8.690790e+05   2.812555e-40   0.000000e+00   0.000000e+00
     1544000   1.543999e-05   2.208905e+00   9.288928e+00   3.406417e+01   1.365872e+05  -6.349687e+04   8.559266e+05  -2.889024e+00  -6.214535e+00  -2.951818e-22   8.690790e+05   8.544400e-41   0.000000e+00   0.000000e+00
     1552000   1.551999e-05   2.219832e+00   9.283848e+00   3.413264e+01   1.365872e+05  -6.349687e+04   8.559266e+05  -2.010951e+00  -4.325727e+00  -3.499110e-22   8.690790e+05   4.140187e-41   0.000000e+00   0.000000e+00
     1560000   1.559999e-05   2.230759e+00   9.278769e+00   3.420112e+01   1.365872e+05  -6.349687e+04   8.559266e+05  -2.394155e+00  -5.150032e+00  -4.442383e-22   8.690790e+05   5.867875e-41   0.000000e+00   0.000000e+00
     1568000   1.567999e-05   2.241686e+00   9.273689e+00   3.426959e+01   1.365872e+05  -6.349687e+04   8.559266e+05  -2.806388e+00  -6.036779e+00   4.844560e-22   8.690790e+05   8.062585e-41   0.000000e+00   0.000000e+00
     1576000   1.575999e-05   2.252613e+00   9.268609e+00   3.433807e+01   1.365872e+05  -6.349687e+04   8.559266e+05  -2.106362e+00  -4.530964e+00   1.051359e-22   8.690790e+05   4.542364e-41   0.000000e+00   0.000000e+00
     1584000   1.583999e-05   2.263540e+00   9.263529e+00   3.440654e+01   1.365872e+05  -6.349687e+04   8.559266e+05  -2.311520e+00  -4.972275e+00  -2.392188e-22   8.690790e+05   5.469791e-41   0.000000e+00   0.000000e+00
     1592000   1.591999e-05   2.274467e+00   9.258450e+00   3.447501e+01   1.365872e+05  -6.349687e+04   8.559266e+05  -2.723752e+00  -5.859023e+00  -4.588472e-22   8.690790e+05   7.594753e-41   0.000000e+00   0.000000e+00
     1600000   1.599999e-05   2.285394e+00   9.253370e+00   3.454349e+01   1.365872e+05  -6.349687e+04   8.559266e+05  -2.201773e+00  -4.736201e+00  -5.881915e-22   8.690790e+05   4.963181e-41   0.000000e+00   0.000000e+00
     1608000   1.607999e-05   2.296321e+00   9.248290e+00   3.461196e+01   1.365872e+05  -6.349687e+04   8.559266e+05  -2.228884e+00  -4.794519e+00   1.114167e-21   8.690790e+05   5.085688e-41   0.000000e+00   0.000000e+00
     1616000   1.615999e-05   2.307248e+00   9.243210e+00   3.468044e+01   1.365872e+05  -6.349687e+04   8.559266e+05  -2.689715e+00  -5.785806e+00  -2.429131e-22   8.690790e+05   7.405949e-41   0.000000e+00   0.000000e+00
     1624000   1.623999e-05   2.318175e+00   9.238131e+00   3.474891e+01   1.365872e+05  -6.349687e+04   8.559266e+05  -1.416795e+00  -3.047646e+00  -4.498488e-22   8.690790e+05   2.055201e-41   0.000000e+00   0.000000e+00
     1632000   1.631999e-05   2.329102e+00   9.233051e+00   3.481739e+01   1.365872e+05  -6.349687e+04   8.559266e+05  -2.185781e+00  -4.701801e+00  -5.289094e-22   8.690790e+05   4.890747e-41   0.000000e+00   0.000000e+00
     1640000   1.639999e-05   2.340029e+00   9.227971e+00   3.488586e+01   1.365872e+05  -6.349687e+04   8.559266e+05  -2.849994e+00  -6.130578e+00  -5.919805e-22   8.690790e+05   8.314906e-41   0.000000e+00   0.000000e+00
     1648000   1.647999e-05   2.350956e+00   9.222891e+00   3.495433e+01   1.365872e+05  -6.349687e+04   8.559266e+05  -1.466737e+00  -3.155075e+00  -4.681662e-22   8.690790e+05   2.202638e-41   0.000000e+00   0.000000e+00
     1656000   1.655999e-05   2.361883e+00   9.217812e+00   3.502281e+01   1.365872e+05  -6.349687e+04   8.559266e+05  -2.346059e+00  -5.046573e+00   2.699773e-22   8.690790e+05   5.634327e-41   0.000000e+00   0.000000e+00
     1664000   1.663999e-05   2.372810e+00   9.212732e+00   3.509128e+01   1.365872e+05  -6.349687e+04   8.559266e+05  -3.010272e+00  -6.475351e+00   2.081245e-22   8.690790e+05   9.276461e-41   0.000000e+00   0.000000e+00
     1672000   1.671999e-05   2.383737e+00   9.207652e+00   3.515976e+01   1.365872e+05  -6.349687e+04   8.559266e+05  -1.516678e+00  -3.262504e+00   3.752450e-22   8.690790e+05   2.355181e-41   0.000000e+00   0.000000e+00
     1680000   1.679999e-05   2.394664e+00   9.202572e+00   3.522823e+01   1.365872e+05  -6.349687e+04   8.559266e+05  -2.506337e+00  -5.391345e+00  -7.932288e-23   8.690790e+05   6.430507e-41   0.000000e+00   0.000000e+00
     1688000   1.687999e-05   2.405591e+00   9.197493e+00   3.529670e+01   1.365872e+05  -6.349687e+04   8.559266e+05  -3.384389e+00  -7.280108e+00  -1.556297e-22   8.690790e+05   1.172549e-40   0.000000e+00   0.000000e+00
     1696000   1.695999e-05   2.416518e+00   9.192413e+00   3.536518e+01   1.365872e+05  -6.349687e+04   8.559266e+05  -1.050039e+00  -2.258724e+00   2.432514e-23   8.690790e+05   1.129042e-41   0.000000e+00   0.000000e+00
     1704000   1.703999e-05   2.427445e+00   9.187333e+00   3.543365e+01   1.365872e+05  -6.349687e+04   8.559266e+05  -2.526400e+00  -5.434501e+00   2.693247e-22   8.690790e+05   6.533811e-41   0.000000e+00   0.000000e+00
     1712000   1.711999e-05   2.438372e+00   9.182253e+00   3.550213e+01   1.365872e+05  -6.349687e+04   8.559266e+05  -1.411013e+00  -3.035208e+00   8.572809e-23   8.690790e+05   2.038610e-41   0.000000e+00   0.000000e+00
     1720000   1.719999e-05   2.449299e+00   9.177174e+00   3.557060e+01   1.365872e+05  -6.349687e+04   8.559266e+05  -4.059468e-01  -8.732260e-01   1.391963e-22   8.690790e+05   1.688114e-42   0.000000e+00   0.000000e+00
     1728000   1.727999e-05   2.460226e+00   9.172094e+00   3.563907e+01   1.365872e+05  -6.349687e+04   8.559266e+05  -2.424969e+00  -5.216315e+00  -5.532763e-22   8.690790e+05   6.019681e-41   0.000000e+00   0.000000e+00
     1736000   1.735999e-05   2.471152e+00   9.167014e+00   3.570755e+01   1.365872e+05  -6.349687e+04   8.559266e+05  -7.669201e-01  -1.649710e+00  -8.691982e-23   8.690790e+05   6.023341e-42   0.000000e+00   0.000000e+00
     1744000   1.743999e-05   2.482079e+00   9.161934e+00   3.577602e+01   1.365872e+05  -6.349687e+04   8.559266e+05   2.381458e-01   5.122718e-01   7.241407e-23   8.690790e+05   5.799925e-43   0.000000e+00   0.000000e+00
     1752000   1.751999e-05   2.493006e+00   9.156855e+00   3.584450e+01   1.365872e+05  -6.349687e+04   8.559266e+05  -2.323539e+00  -4.998129e+00  -2.294579e-22   8.690790e+05   5.526617e-41   0.000000e+00   0.000000e+00
     1760000   1.759999e-05   2.503933e+00   9.151775e+00   3.591297e+01   1.365872e+05  -6.349687e+04   8.559266e+05  -1.385479e+00  -2.980283e+00   5.235795e-22   8.690790e+05   1.964983e-41   0.000000e+00   0.000000e+00
     1768000   1.767999e-05   2.514860e+00   9.146695e+00   3.598145e+01   1.365872e+05  -6.349687e+04   8.559266e+05  -1.844626e+00  -3.967948e+00  -2.518800e-22   8.690790e+05   3.483250e-41   0.000000e+00   0.000000e+00
     1776000   1.775999e-05   2.525787e+00   9.141615e+00   3.604992e+01   1.365872e+05  -6.349687e+04   8.559266e+05  -1.413291e+00  -3.040110e+00   6.219946e-22   8.690790e+05   2.044978e-41   0.000000e+00   0.000000e+00
     1784000   1.783999e-05   2.536714e+00   9.136536e+00   3.611839e+01   1.365872e+05  -6.349687e+04   8.559266e+05  -1.365627e+00  -2.937580e+00   2.167186e-22   8.690790e+05   1.909073e-41   0.000000e+00   0.000000e+00
     1792000   1.791999e-05   2.547641e+00   9.131456e+00   3.618687e+01   1.365872e+05  -6.349687e+04   8.559266e+05  -1.824774e+00  -3.925245e+00  -5.582203e-22   8.690790e+05   3.408677e-41   0.000000e+00   0.000000e+00
     1800000   1.799999e-05   2.558568e+00   9.126376e+00   3.625534e+01   1.365872e+05  -6.349687e+04   8.559266e+05  -1.621774e+00  -3.488573e+00   1.955908e-24   8.690790e+05   2.692786e-41   0.000000e+00   0.000000e+00
     1808000   1.807999e-05   2.569495e+00   9.121296e+00   3.632382e+01   1.365872e+05  -6.349687e+04   8.559266e+05  -1.345775e+00  -2.894877e+00  -3.779806e-22   8.690790e+05   1.853971e-41   0.000000e+00   0.000000e+00
     1816000   1.815999e-05   2.580422e+00   9.116217e+00   3.639229e+01   1.365872e+05  -6.349687e+04   8.559266e+05  -1.804922e+00  -3.882542e+00  -4.050740e-24   8.690790e+05   3.334912e-41   0.000000e+00   0.000000e+00
     1824000   1.823999e-05   2.591349e+00   9.111137e+00   3.646076e+01   1.365872e+05  -6.349687e+04   8.559266e+05  -1.830256e+00  -3.937036e+00  -4.398814e-23   8.690790e+05   3.429588e-41   0.000000e+00   0.000000e+00
     1832000   1.831999e-05   2.602276e+00   9.106057e+00   3.652924e+01   1.365872e+05  -6.349687e+04   8.559266e+05  -1.596651e+00  -3.434531e+00  -4.493147e-22   8.690790e+05   2.609435e-41   0.000000e+00   0.000000e+00
     1840000   1.839999e-05   2.613203e+00   9.100977e+00   3.659771e+01   1.365872e+05  -6.349687e+04   8.559266e+05  -2.598813e+00  -5.590268e+00   6.079734e-22   8.690790e+05   6.913582e-41   0.000000e+00   0.000000e+00
     1848000   1.847999e-05   2.624130e+00   9.095898e+00   3.666619e+01   1.365872e+05  -6.349687e+04   8.559266e+05  -2.850748e+00  -6.132200e+00   9.719348e-23   8.690790e+05   8.319427e-41   0.000000e+00   0.000000e+00
     1856000   1.855999e-05   2.635057e+00   9.090818e+00   3.673466e+01   1.365872e+05  -6.349687e+04   8.559266e+05  -3.129899e-01  -6.732678e-01  -5.806573e-23   8.690790e+05   1.003361e-42   0.000000e+00   0.000000e+00
     1864000   1.863999e-05   2.645984e+00   9.085738e+00   3.680314e+01   1.365872e+05  -6.349687e+04   8.559266e+05  -2.502395e+00  -5.382863e+00  -7.243976e-22   8.690790e+05   6.410396e-41   0.000000e+00   0.000000e+00
     1872000   1.871999e-05   2.656911e+00   9.080658e+00   3.687161e+01   1.365872e+05  -6.349687e+04   8.559266e+05  -2.999864e+00  -6.452961e+00  -1.961005e-21   8.690790e+05   9.212550e-41   0.000000e+00   0.000000e+00
     1880000   1.879999e-05   2.667838e+00   9.075579e+00   3.694008e+01   1.365872e+05  -6.349687e+04   8.559266e+05   8.749871e-02   1.882172e-01   2.780359e-23   8.690790e+05   7.824861e-44   0.000000e+00   0.000000e+00
     1888000   1.887999e-05   2.678765e+00   9.070499e+00   3.700856e+01   1.365872e+05  -6.349687e+04   8.559266e+05  -2.651510e+00  -5.703624e+00  -1.635360e-21   8.690790e+05   7.197161e-41   0.000000e+00   0.000000e+00
     1896000   1.895999e-05   2.689692e+00   9.065419e+00   3.707703e+01   1.365872e+05  -6.349687e+04   8.559266e+05  -3.148979e+00  -6.773722e+00  -5.739938e-22   8.690790e+05   1.015120e-40   0.000000e+00   0.000000e+00
     1904000   1.903999e-05   2.700619e+00   9.060339e+00   3.714551e+01   1.365872e+05  -6.349687e+04   8.559266e+05  -3.117433e+00  -6.705863e+00   1.061293e-21   8.690790e+05   9.948321e-41   0.000000e+00   0.000000e+00
     1912000   1.911999e-05   2.711546e+00   9.055260e+00   3.721398e+01   1.365872e+05  -6.349687e+04   8.559266e+05  -1.996686e+00  -4.295042e+00   2.111259e-22   8.690790e+05   4.082043e-41   0.000000e+00   0.000000e+00
     1920000   1.919999e-05   2.722473e+00   9.050180e+00   3.728245e+01   1.365872e+05  -6.349687e+04   8.559266e+05  -8.382293e-01  -1.803102e+00   9.374145e-23   8.690790e+05   7.195659e-42   0.000000e+00   0.000000e+00
     1928000   1.927999e-05   2.733400e+00   9.045100e+00   3.735093e+01   1.365872e+05  -6.349687e+04   8.559266e+05  -3.149266e+00  -6.774340e+00   2.667667e-22   8.690790e+05   1.015254e-40   0.000000e+00   0.000000e+00
     1936000   1.935999e-05   2.744327e+00   9.040020e+00   3.741940e+01   1.365872e+05  -6.349687e+04   8.559266e+05  -1.874819e+00  -4.032896e+00  -3.328423e-22   8.690790e+05   3.598992e-41   0.000000e+00   0.000000e+00
     1944000   1.943999e-05   2.755254e+00   9.034941e+00   3.748788e+01   1.365872e+05  -6.349687e+04   8.559266e+05  -7.163623e-01  -1.540956e+00   1.218545e-22   8.690790e+05   5.255764e-42   0.000000e+00   0.000000e+00
     1952000   1.951999e-05   2.766181e+00   9.029861e+00   3.755635e+01   1.365872e+05  -6.349687e+04   8.559266e+05  -3.181100e+00  -6.842816e+00  -5.277885e-22   8.690790e+05   1.035884e-40   0.000000e+00   0.000000e+00
     1960000   1.959999e-05   2.777108e+00   9.024781e+00   3.762482e+01   1.365872e+05  -6.349687e+04   8.559266e+05  -1.752952e+00  -3.770750e+00  -3.030856e-22   8.690790e+05   3.146349e-41   0.000000e+00   0.000000e+00
     1968000   1.967999e-05   2.788035e+00   9.019701e+00   3.769330e+01   1.365872e+05  -6.349687e+04   8.559266e+05  -5.944953e-01  -1.278810e+00  -1.376462e-22   8.690790e+05   3.619956e-42   0.000000e+00   0.000000e+00
     1976000   1.975999e-05   2.798962e+00   9.014622e+00   3.776177e+01   1.365872e+05  -6.349687e+04   8.559266e+05  -3.212934e+00  -6.911293e+00  -1.738720e-22   8.690790e+05   1.056721e-40   0.000000e+00   0.000000e+00
     1984000   1.983999e-05   2.809889e+00   9.009542e+00   3.783025e+01   1.365872e+05  -6.349687e+04   8.559266e+05  -2.101345e+00  -4.520172e+00  -5.345740e-22   8.690790e+05   4.520653e-41   0.000000e+00   0.000000e+00
     1992000   1.991999e-05   2.820816e+00   9.004462e+00   3.789872e+01   1.365872e+05  -6.349687e+04   8.559266e+05  -1.880133e+00  -4.044327e+00   2.835180e-22   8.690790e+05   3.618970e-41   0.000000e+00   0.000000e+00
     2000000   1.999999e-05   2.831743e+00   8.999382e+00   3.796720e+01   1.365872e+05  -6.349687e+04   8.559266e+05  -1.364571e+00  -2.935309e+00  -1.882856e-22   8.690790e+05   1.906374e-41   0.000000e+00   0.000000e+00
     2008000   2.007999e-05   2.842670e+00   8.994303e+00   3.803567e+01   1.365872e+05  -6.349687e+04   8.559266e+05  -2.276948e+00  -4.897910e+00  -1.545496e-22   8.690790e+05   5.307544e-41   0.000000e+00   0.000000e+00
     2016000   2.015999e-05   2.853597e+00   8.989223e+00   3.810414e+01   1.365872e+05  -6.349687e+04   8.559266e+05  -1.367487e+00  -2.941581e+00   2.541613e-22   8.690790e+05   1.914530e-41   0.000000e+00   0.000000e+00
     2024000   2.023999e-05   2.864524e+00   8.984143e+00   3.817262e+01   1.365872e+05  -6.349687e+04   8.559266e+05  -1.105672e+00  -2.378394e+00  -9.827247e-23   8.690790e+05   1.251622e-41   0.000000e+00   0.000000e+00
     2032000   2.031999e-05   2.875450e+00   8.979063e+00   3.824109e+01   1.365872e+05  -6.349687e+04   8.559266e+05  -2.231937e+00  -4.801086e+00   4.922445e-23   8.690790e+05   5.099774e-41   0.000000e+00   0.000000e+00
     2040000   2.039999e-05   2.886377e+00   8.973984e+00   3.830957e+01   1.365872e+05  -6.349687e+04   8.559266e+05  -1.108588e+00  -2.384667e+00  -5.177670e-22   8.690790e+05   1.258232e-41   0.000000e+00   0.000000e+00
     2048000   2.047999e-05   2.897304e+00   8.968904e+00   3.837804e+01   1.365872e+05  -6.349687e+04   8.559266e+05  -8.467727e-01  -1.821480e+00  -1.531797e-22   8.690790e+05   7.341118e-42   0.000000e+00   0.000000e+00
     2056000   2.055999e-05   2.908231e+00   8.963824e+00   3.844651e+01   1.365872e+05  -6.349687e+04   8.559266e+05  -2.011965e+00  -4.327907e+00  -8.549710e-22   8.690790e+05   4.144369e-41   0.000000e+00   0.000000e+00
     2064000   2.063999e-05   2.919158e+00   8.958744e+00   3.851499e+01   1.365872e+05  -6.349687e+04   8.559266e+05  -2.734662e+00  -5.882491e+00  -6.161288e-22   8.690790e+05   7.655664e-41   0.000000e+00   0.000000e+00
     2072000   2.071999e-05   2.930085e+00   8.953665e+00   3.858346e+01   1.365872e+05  -6.349687e+04   8.559266e+05  -3.224876e+00  -6.936982e+00   3.376013e-23   8.690790e+05   1.064644e-40   0.000000e+00   0.000000e+00
     2080000   2.079999e-05   2.941012e+00   8.948585e+00   3.865194e+01   1.365872e+05  -6.349687e+04   8.559266e+05  -1.950695e+00  -4.196111e+00   8.297618e-23   8.690790e+05   3.895806e-41   0.000000e+00   0.000000e+00
     2088000   2.087999e-05   2.951939e+00   8.943505e+00   3.872041e+01   1.365872e+05  -6.349687e+04   8.559266e+05  -2.994071e+00  -6.440502e+00  -1.137364e-22   8.690790e+05   9.177013e-41   0.000000e+00   0.000000e+00
     2096000   2.095999e-05   2.962866e+00   8.938425e+00   3.878888e+01   1.365872e+05  -6.349687e+04   8.559266e+05  -3.484285e+00  -7.494992e+00  -1.185137e-21   8.690790e+05   1.242816e-40   0.000000e+00   0.000000e+00
     2104000   2.103999e-05   2.973793e+00   8.933346e+00   3.885736e+01   1.365872e+05  -6.349687e+04   8.559266e+05  -1.889426e+00  -4.064316e+00   1.597187e-22   8.690790e+05   3.654930e-41   0.000000e+00   0.000000e+00
     2112000   2.111999e-05   2.984720e+00   8.928266e+00   3.892583e+01   1.365872e+05  -6.349687e+04   8.559266e+05  -3.253480e+00  -6.998512e+00  -7.585954e-22   8.690790e+05   1.083615e-40   0.000000e+00   0.000000e+00
     2120000   2.119999e-05   2.995647e+00   8.923186e+00   3.899431e+01   1.365872e+05  -6.349687e+04   8.559266e+05  -3.743694e+00  -8.053003e+00  -1.253916e-21   8.690790e+05   1.434766e-40   0.000000e+00   0.000000e+00
     2128000   2.127999e-05   3.006574e+00   8.918106e+00   3.906278e+01   1.365872e+05  -6.349687e+04   8.559266e+05  -2.468228e+00  -5.309368e+00  -6.738297e-22   8.690790e+05   6.236584e-41   0.000000e+00   0.000000e+00
     2136000   2.135999e-05   3.017501e+00   8.913027e+00   3.913126e+01   1.365872e+05  -6.349687e+04   8.559266e+05  -2.663209e+00  -5.728789e+00  -7.236951e-22   8.690790e+05   7.261503e-41   0.000000e+00   0.000000e+00
     2144000   2.143999e-05   3.028428e+00   8.907947e+00   3.919973e+01   1.365872e+05  -6.349687e+04   8.559266e+05  -2.143233e+00  -4.610275e+00   2.860892e-22   8.690790e+05   4.702836e-41   0.000000e+00   0.000000e+00
     2152000   2.151999e-05   3.039355e+00   8.902867e+00   3.926820e+01   1.365872e+05  -6.349687e+04   8.559266e+05  -2.274659e+00  -4.892985e+00  -1.265227e-24   8.690790e+05   5.296723e-41   0.000000e+00   0.000000e+00
     2160000   2.159999e-05   3.050282e+00   8.897787e+00   3.933668e+01   1.365872e+05  -6.349687e+04   8.559266e+05  -4.543042e+00  -9.772469e+00  -9.181527e-22   8.690790e+05   2.112851e-40   0.000000e+00   0.000000e+00
     2168000   2.167999e-05   3.061209e+00   8.892708e+00   3.940515e+01   1.365872e+05  -6.349687e+04   8.559266e+05  -3.481064e+00  -7.488065e+00  -2.290414e-22   8.690790e+05   1.240602e-40   0.000000e+00   0.000000e+00
     2176000   2.175999e-05   3.072136e+00   8.887628e+00   3.947363e+01   1.365872e+05  -6.349687e+04   8.559266e+05  -3.048737e+00  -6.558092e+00  -2.972360e-22   8.690790e+05   9.515905e-41   0.000000e+00   0.000000e+00
     2184000   2.183999e-05   3.083063e+00   8.882548e+00   3.954210e+01   1.365872e+05  -6.349687e+04   8.559266e+05  -5.097294e+00  -1.096471e+01   1.691193e-22   8.690790e+05   2.659849e-40   0.000000e+00   0.000000e+00
     2192000   2.191999e-05   3.093990e+00   8.877468e+00   3.961057e+01   1.365872e+05  -6.349687e+04   8.559266e+05  -4.068129e+00  -8.750892e+00   2.257862e-23   8.690790e+05   1.694322e-40   0.000000e+00   0.000000e+00
     2200000   2.199999e-05   3.104917e+00   8.872389e+00   3.967905e+01   1.365872e+05  -6.349687e+04   8.559266e+05  -1.284874e+00  -2.763873e+00   6.474012e-23   8.690790e+05   1.690312e-41   0.000000e+00   0.000000e+00
     2208000   2.207999e-05   3.115844e+00   8.867309e+00   3.974752e+01   1.365872e+05  -6.349687e+04   8.559266e+05  -2.955971e+00  -6.358544e+00   1.043492e-22   8.690790e+05   8.945101e-41   0.000000e+00   0.000000e+00
     2216000   2.215999e-05   3.126771e+00   8.862229e+00   3.981600e+01   1.365872e+05  -6.349687e+04   8.559266e+05  -1.222923e+00  -2.630612e+00  -2.634788e-23   8.690790e+05   1.531253e-41   0.000000e+00   0.000000e+00
     2224000   2.223999e-05   3.137698e+00   8.857149e+00   3.988447e+01   1.365872e+05  -6.349687e+04   8.559266e+05  -6.170057e-01  -1.327232e+00   1.542604e-22   8.690790e+05   3.898341e-42   0.000000e+00   0.000000e+00
     2232000   2.231999e-05   3.148625e+00   8.852070e+00   3.995295e+01   1.365872e+05  -6.349687e+04   8.559266e+05  -2.611559e+00  -5.617685e+00   2.673129e-22   8.690790e+05   6.982056e-41   0.000000e+00   0.000000e+00
     2240000   2.239999e-05   3.159552e+00   8.846990e+00   4.002142e+01   1.365872e+05  -6.349687e+04   8.559266e+05  -5.550551e-01  -1.193971e+00  -8.199818e-23   8.690790e+05   3.154900e-42   0.000000e+00   0.000000e+00
     2248000   2.247999e-05   3.170479e+00   8.841910e+00   4.008989e+01   1.365872e+05  -6.349687e+04   8.559266e+05   5.086228e-02   1.094091e-01   1.641734e-23   8.690790e+05   2.640536e-44   0.000000e+00   0.000000e+00
     2256000   2.255999e-05   3.181406e+00   8.836830e+00   4.015837e+01   1.365872e+05  -6.349687e+04   8.559266e+05  -2.267147e+00  -4.876826e+00  -1.478426e-22   8.690790e+05   5.261885e-41   0.000000e+00   0.000000e+00
     2264000   2.263999e-05   3.192333e+00   8.831751e+00   4.022684e+01   1.365872e+05  -6.349687e+04   8.559266e+05   1.128129e-01   2.426701e-01   3.826205e-24   8.690790e+05   1.301155e-43   0.000000e+00   0.000000e+00
     2272000   2.271999e-05   3.203260e+00   8.826671e+00   4.029532e+01   1.365872e+05  -6.349687e+04   8.559266e+05  -2.043043e+00  -4.394760e+00  -4.031341e-22   8.690790e+05   4.272727e-41   0.000000e+00   0.000000e+00
     2280000   2.279999e-05   3.214187e+00   8.821591e+00   4.036379e+01   1.365872e+05  -6.349687e+04   8.559266e+05  -9.141175e-01  -1.966344e+00  -2.118201e-22   8.690790e+05   8.556499e-42   0.000000e+00   0.000000e+00
     2288000   2.287999e-05   3.225114e+00   8.816511e+00   4.043226e+01   1.365872e+05  -6.349687e+04   8.559266e+05  -1.292356e+00  -2.779968e+00  -2.761371e-22   8.690790e+05   1.709576e-41   0.000000e+00   0.000000e+00
     2296000   2.295999e-05   3.236041e+00   8.811432e+00   4.050074e+01   1.365872e+05  -6.349687e+04   8.559266e+05  -1.717609e+00  -3.694723e+00  -3.288006e-22   8.690790e+05   3.020614e-41   0.000000e+00   0.000000e+00
     2304000   2.303999e-05   3.246968e+00   8.806352e+00   4.056921e+01   1.365872e+05  -6.349687e+04   8.559266e+05  -8.989277e-01  -1.933670e+00   2.206679e-22   8.690790e+05   8.274529e-42   0.000000e+00   0.000000e+00
     2312000   2.311999e-05   3.257895e+00   8.801272e+00   4.063769e+01   1.365872e+05  -6.349687e+04   8.559266e+05  -1.386753e+00  -2.983023e+00   7.403763e-22   8.690790e+05   1.968460e-41   0.000000e+00   0.000000e+00
     2320000   2.319999e-05   3.268822e+00   8.796192e+00   4.070616e+01   1.365872e+05  -6.349687e+04   8.559266e+05  -4.542736e-01  -9.771811e-01   1.470946e-22   8.690790e+05   2.112226e-42   0.000000e+00   0.000000e+00
     2328000   2.327999e-05   3.279748e+00   8.791113e+00   4.077463e+01   1.365872e+05  -6.349687e+04   8.559266e+05  -8.283623e-01  -1.781878e+00  -1.716182e-23   8.690790e+05   7.024033e-42   0.000000e+00   0.000000e+00
     2336000   2.335999e-05   3.290675e+00   8.786033e+00   4.084311e+01   1.365872e+05  -6.349687e+04   8.559266e+05   2.438174e+00   5.244720e+00   1.340355e-21   8.690790e+05   6.085451e-41   0.000000e+00   0.000000e+00
     2344000   2.343999e-05   3.301602e+00   8.780953e+00   4.091158e+01   1.365872e+05  -6.349687e+04   8.559266e+05  -1.618765e+00  -3.482101e+00  -2.041995e-22   8.690790e+05   2.682819e-41   0.000000e+00   0.000000e+00
     2352000   2.351999e-05   3.312529e+00   8.775873e+00   4.098006e+01   1.365872e+05  -6.349687e+04   8.559266e+05  -1.186835e+00  -2.552982e+00  -4.146387e-22   8.690790e+05   1.442164e-41   0.000000e+00   0.000000e+00
     2360000   2.359999e-05   3.323456e+00   8.770794e+00   4.104853e+01   1.365872e+05  -6.349687e+04   8.559266e+05  -1.666139e+00  -3.584006e+00  -6.977053e-23   8.690790e+05   2.841708e-41   0.000000e+00   0.000000e+00
     2368000   2.367999e-05   3.334383e+00   8.765714e+00   4.111701e+01   1.365872e+05  -6.349687e+04   8.559266e+05  -1.677242e+00  -3.607890e+00   2.442658e-22   8.690790e+05   2.880145e-41   0.000000e+00   0.000000e+00
     2376000   2.375999e-05   3.345310e+00   8.760634e+00   4.118548e+01   1.365872e+05  -6.349687e+04   8.559266e+05  -1.245312e+00  -2.678771e+00   3.325128e-23   8.690790e+05   1.587774e-41   0.000000e+00   0.000000e+00
     2384000   2.383999e-05   3.356237e+00   8.755554e+00   4.125395e+01   1.365872e+05  -6.349687e+04   8.559266e+05  -2.048599e+00  -4.406710e+00  -2.205829e-23   8.690790e+05   4.296135e-41   0.000000e+00   0.000000e+00
     2392000   2.391999e-05   3.367164e+00   8.750475e+00   4.132243e+01   1.365872e+05  -6.349687e+04   8.559266e+05  -1.735719e+00  -3.733679e+00   1.180559e-22   8.690790e+05   3.084471e-41   0.000000e+00   0.000000e+00
     2400000   2.399999e-05   3.378091e+00   8.745395e+00   4.139090e+01   1.365872e+05  -6.349687e+04   8.559266e+05  -1.303789e+00  -2.804560e+00   4.808630e-22   8.690790e+05   1.740385e-41   0.000000e+00   0.000000e+00
     2408000   2.407999e-05   3.389018e+00   8.740315e+00   4.145938e+01   1.365872e+05  -6.349687e+04   8.559266e+05  -2.431058e+00  -5.229413e+00   3.136167e-22   8.690790e+05   6.050061e-41   0.000000e+00   0.000000e+00
     2416000   2.415999e-05   3.399945e+00   8.735235e+00   4.152785e+01   1.365872e+05  -6.349687e+04   8.559266e+05  -1.794196e+00  -3.859468e+00   8.536777e-22   8.690790e+05   3.295800e-41   0.000000e+00   0.000000e+00
     2424000   2.423999e-05   3.410872e+00   8.730156e+00   4.159632e+01   1.365872e+05  -6.349687e+04   8.559266e+05  -2.626040e+00  -5.648835e+00   1.584099e-21   8.690790e+05   7.059652e-41   0.000000e+00   0.000000e+00
     2432000   2.431999e-05   3.421799e+00   8.725076e+00   4.166480e+01   1.365872e+05  -6.349687e+04   8.559266e+05  -2.373358e+00  -5.105296e+00   5.333132e-22   8.690790e+05   5.766643e-41   0.000000e+00   0.000000e+00
     2440000   2.439999e-05   3.432726e+00   8.719996e+00   4.173327e+01   1.365872e+05  -6.349687e+04   8.559266e+05  -3.054206e+00  -6.569856e+00  -1.988872e-22   8.690790e+05   9.549469e-41   0.000000e+00   0.000000e+00
     2448000   2.447999e-05   3.443653e+00   8.714916e+00   4.180175e+01   1.365872e+05  -6.349687e+04   8.559266e+05  -2.566465e+00  -5.520683e+00   4.743381e-22   8.690790e+05   6.743212e-41   0.000000e+00   0.000000e+00
     2456000   2.455999e-05   3.454580e+00   8.709837e+00   4.187022e+01   1.365872e+05  -6.349687e+04   8.559266e+05  -2.533253e+00  -5.449243e+00   1.321609e-21   8.690790e+05   6.569820e-41   0.000000e+00   0.000000e+00
     2464000   2.463999e-05   3.465507e+00   8.704757e+00   4.193869e+01   1.365872e+05  -6.349687e+04   8.559266e+05  -3.826219e+00  -8.230523e+00   8.492549e-22   8.690790e+05   1.498735e-40   0.000000e+00   0.000000e+00
     2472000   2.471999e-05   3.476434e+00   8.699677e+00   4.200717e+01   1.365872e+05  -6.349687e+04   8.559266e+05  -2.301148e-01  -4.949965e-01   8.141450e-23   8.690790e+05   5.425840e-43   0.000000e+00   0.000000e+00
     2480000   2.479999e-05   3.487361e+00   8.694597e+00   4.207564e+01   1.365872e+05  -6.349687e+04   8.559266e+05   5.817569e-01   1.251409e+00   6.899682e-23   8.690790e+05   3.463590e-42   0.000000e+00   0.000000e+00
     2488000   2.487999e-05   3.498288e+00   8.689518e+00   4.214412e+01   1.365872e+05  -6.349687e+04   8.559266e+05  -2.693634e+00  -5.794236e+00   8.573621e-22   8.690790e+05   7.427576e-41   0.000000e+00   0.000000e+00
     2496000   2.495999e-05   3.509215e+00   8.684438e+00   4.221259e+01   1.365872e+05  -6.349687e+04   8.559266e+05  -2.944981e+00  -6.334904e+00  -3.455080e-22   8.690790e+05   8.877884e-41   0.000000e+00   0.000000e+00
     2504000   2.503999e-05   3.520142e+00   8.679358e+00   4.228107e+01   1.365872e+05  -6.349687e+04   8.559266e+05  -4.311692e+00  -9.274817e+00   9.404644e-22   8.690790e+05   1.903075e-40   0.000000e+00   0.000000e+00
     2512000   2.511999e-05   3.531069e+00   8.674278e+00   4.234954e+01   1.365872e+05  -6.349687e+04   8.559266e+05  -3.431655e+00  -7.381782e+00   6.475886e-22   8.690790e+05   1.205711e-40   0.000000e+00   0.000000e+00
     2520000   2.519999e-05   3.541996e+00   8.669199e+00   4.241801e+01   1.365872e+05  -6.349687e+04   8.559266e+05  -3.282174e+00  -7.060235e+00   5.394482e-22   8.690790e+05   1.102739e-40   0.000000e+00   0.000000e+00
     2528000   2.527999e-05   3.552923e+00   8.664119e+00   4.248649e+01   1.365872e+05  -6.349687e+04   8.559266e+05  -4.648885e+00  -1.000015e+01   1.255960e-21   8.690790e+05   2.212385e-40   0.000000e+00   0.000000e+00
     2536000   2.535999e-05   3.563850e+00   8.659039e+00   4.255496e+01   1.365872e+05  -6.349687e+04   8.559266e+05  -3.297740e+00  -7.093719e+00   7.194710e-22   8.690790e+05   1.113449e-40   0.000000e+00   0.000000e+00
     2544000   2.543999e-05   3.574777e+00   8.653959e+00   4.262344e+01   1.365872e+05  -6.349687e+04   8.559266e+05  -3.619367e+00  -7.785566e+00   8.524501e-22   8.690790e+05   1.340970e-40   0.000000e+00   0.000000e+00
     2552000   2.551999e-05   3.585704e+00   8.648880e+00   4.269191e+01   1.365872e+05  -6.349687e+04   8.559266e+05  -4.986078e+00  -1.072548e+01   2.722080e-21   8.690790e+05   2.544974e-40   0.000000e+00   0.000000e+00
     2560000   2.559999e-05   3.596631e+00   8.643800e+00   4.276038e+01   1.365872e+05  -6.349687e+04   8.559266e+05  -3.163825e+00  -6.805656e+00   1.364699e-21   8.690790e+05   1.024859e-40   0.000000e+00   0.000000e+00
     2568000   2.567999e-05   3.607558e+00   8.638720e+00   4.282886e+01   1.365872e+05  -6.349687e+04   8.559266e+05  -3.209965e+00  -6.904908e+00   3.836893e-22   8.690790e+05   1.054796e-40   0.000000e+00   0.000000e+00
     2576000   2.575999e-05   3.618485e+00   8.633640e+00   4.289733e+01   1.365872e+05  -6.349687e+04   8.559266e+05  -4.014370e+00  -8.635251e+00   2.873247e-22   8.690790e+05   1.649711e-40   0.000000e+00   0.000000e+00
     2584000   2.583999e-05   3.629412e+00   8.628561e+00   4.296581e+01   1.365872e+05  -6.349687e+04   8.559266e+05  -1.528507e+00  -3.287948e+00   4.527413e-22   8.690790e+05   2.392110e-41   0.000000e+00   0.000000e+00
     2592000   2.591999e-05   3.640339e+00   8.623481e+00   4.303428e+01   1.365872e+05  -6.349687e+04   8.559266e+05  -3.625684e+00  -7.799155e+00   5.530166e-22   8.690790e+05   1.345708e-40   0.000000e+00   0.000000e+00
     2600000   2.599999e-05   3.651266e+00   8.618401e+00   4.310276e+01   1.365872e+05  -6.349687e+04   8.559266e+05  -2.076251e+00  -4.466192e+00   2.392972e-22   8.690790e+05   4.413594e-41   0.000000e+00   0.000000e+00
     2608000   2.607999e-05   3.662193e+00   8.613321e+00   4.317123e+01   1.365872e+05  -6.349687e+04   8.559266e+05  -1.351375e+00  -2.906923e+00   7.281804e-23   8.690790e+05   1.869843e-41   0.000000e+00   0.000000e+00
     2616000   2.615999e-05   3.673119e+00   8.608242e+00   4.323970e+01   1.365872e+05  -6.349687e+04   8.559266e+05  -4.041403e+00  -8.693401e+00  -9.968231e-22   8.690790e+05   1.672005e-40   0.000000e+00   0.000000e+00
     2624000   2.623999e-05   3.684046e+00   8.603162e+00   4.330818e+01   1.365872e+05  -6.349687e+04   8.559266e+05  -1.899119e+00  -4.085167e+00   7.213528e-22   8.690790e+05   3.692672e-41   0.000000e+00   0.000000e+00
     2632000   2.631999e-05   3.694973e+00   8.598082e+00   4.337665e+01   1.365872e+05  -6.349687e+04   8.559266e+05  -7.180633e-01  -1.544615e+00   1.128991e-22   8.690790e+05   5.280821e-42   0.000000e+00   0.000000e+00
     2640000   2.639999e-05   3.705900e+00   8.593002e+00   4.344513e+01   1.365872e+05  -6.349687e+04   8.559266e+05  -4.018721e+00  -8.644611e+00  -9.308517e-22   8.690790e+05   1.653358e-40   0.000000e+00   0.000000e+00
     2648000   2.647999e-05   3.716827e+00   8.587923e+00   4.351360e+01   1.365872e+05  -6.349687e+04   8.559266e+05  -2.040826e+00  -4.389991e+00  -2.103364e-23   8.690790e+05   4.263934e-41   0.000000e+00   0.000000e+00
     2656000   2.655999e-05   3.727754e+00   8.582843e+00   4.358207e+01   1.365872e+05  -6.349687e+04   8.559266e+05  -1.974256e+00  -4.246792e+00   3.587955e-22   8.690790e+05   3.990299e-41   0.000000e+00   0.000000e+00
     2664000   2.663999e-05   3.738681e+00   8.577763e+00   4.365055e+01   1.365872e+05  -6.349687e+04   8.559266e+05  -3.796465e+00  -8.166519e+00  -3.228253e-22   8.690790e+05   1.475536e-40   0.000000e+00   0.000000e+00
     2672000   2.671999e-05   3.749608e+00   8.572683e+00   4.371902e+01   1.365872e+05  -6.349687e+04   8.559266e+05  -2.487375e+00  -5.350555e+00  -1.287234e-22   8.690790e+05   6.334032e-41   0.000000e+00   0.000000e+00
     2680000   2.679999e-05   3.760535e+00   8.567604e+00   4.378750e+01   1.365872e+05  -6.349687e+04   8.559266e+05  -2.420805e+00  -5.207356e+00   8.258917e-22   8.690790e+05   5.999532e-41   0.000000e+00   0.000000e+00
     2688000   2.687999e-05   3.771462e+00   8.562524e+00   4.385597e+01   1.365872e+05  -6.349687e+04   8.559266e+05  -3.574209e+00  -7.688428e+00   8.584642e-22   8.690790e+05   1.307828e-40   0.000000e+00   0.000000e+00
     2696000   2.695999e-05   3.782389e+00   8.557444e+00   4.392444e+01   1.365872e+05  -6.349687e+04   8.559266e+05  -2.933923e+00  -6.311119e+00   9.150428e-22   8.690790e+05   8.812414e-41   0.000000e+00   0.000000e+00
     2704000   2.703999e-05   3.793316e+00   8.552364e+00   4.399292e+01   1.365872e+05  -6.349687e+04   8.559266e+05  -2.867353e+00  -6.167920e+00   1.481227e-22   8.690790e+05   8.417048e-41   0.000000e+00   0.000000e+00
     2712000   2.711999e-05   3.804243e+00   8.547285e+00   4.406139e+01   1.365872e+05  -6.349687e+04   8.559266e+05  -3.103400e+00  -6.675677e+00   9.206580e-23   8.690790e+05   9.859028e-41   0.000000e+00   0.000000e+00
     2720000   2.719999e-05   3.815170e+00   8.542205e+00   4.412987e+01   1.365872e+05  -6.349687e+04   8.559266e+05  -2.490619e+00  -5.357534e+00   2.356107e-22   8.690790e+05   6.351196e-41   0.000000e+00   0.000000e+00
     2728000   2.727999e-05   3.826097e+00   8.537125e+00   4.419834e+01   1.365872e+05  -6.349687e+04   8.559266e+05  -1.436877e+00  -3.090844e+00   6.509735e-22   8.690790e+05   2.114041e-41   0.000000e+00   0.000000e+00
     2736000   2.735999e-05   3.837024e+00   8.532045e+00   4.426682e+01   1.365872e+05  -6.349687e+04   8.559266e+05  -3.600833e+00  -7.745699e+00   1.000606e-21   8.690790e+05   1.327302e-40   0.000000e+00   0.000000e+00
     2744000   2.743999e-05   3.847951e+00   8.526966e+00   4.433529e+01   1.365872e+05  -6.349687e+04   8.559266e+05  -1.946428e+00  -4.186932e+00   1.102889e-22   8.690790e+05   3.879094e-41   0.000000e+00   0.000000e+00
     2752000   2.751999e-05   3.858878e+00   8.521886e+00   4.440376e+01   1.365872e+05  -6.349687e+04   8.559266e+05  -3.060110e+00  -6.582557e+00  -4.215944e-23   8.690790e+05   9.585883e-41   0.000000e+00   0.000000e+00
     2760000   2.759999e-05   3.869805e+00   8.516806e+00   4.447224e+01   1.365872e+05  -6.349687e+04   8.559266e+05  -4.098267e+00  -8.815720e+00   1.906293e-22   8.690790e+05   1.719364e-40   0.000000e+00   0.000000e+00
     2768000   2.767999e-05   3.880732e+00   8.511726e+00   4.454071e+01   1.365872e+05  -6.349687e+04   8.559266e+05  -1.402236e+00  -3.016330e+00  -1.649923e-23   8.690790e+05   2.013349e-41   0.000000e+00   0.000000e+00
     2776000   2.775999e-05   3.891659e+00   8.506647e+00   4.460919e+01   1.365872e+05  -6.349687e+04   8.559266e+05  -3.557543e+00  -7.652578e+00   8.701442e-22   8.690790e+05   1.295578e-40   0.000000e+00   0.000000e+00
     2784000   2.783999e-05   3.902586e+00   8.501567e+00   4.467766e+01   1.365872e+05  -6.349687e+04   8.559266e+05  -2.004140e+00  -4.311075e+00  -4.750710e-22   8.690790e+05   4.112687e-41   0.000000e+00   0.000000e+00
     2792000   2.791999e-05   3.913513e+00   8.496487e+00   4.474613e+01   1.365872e+05  -6.349687e+04   8.559266e+05  -6.901600e-01  -1.484593e+00  -2.919351e-22   8.690790e+05   4.878713e-42   0.000000e+00   0.000000e+00
     2800000   2.799999e-05   3.924440e+00   8.491407e+00   4.481461e+01   1.365872e+05  -6.349687e+04   8.559266e+05  -3.971459e+00  -8.542946e+00   8.550694e-22   8.690790e+05   1.614569e-40   0.000000e+00   0.000000e+00
     2808000   2.807999e-05   3.935367e+00   8.486328e+00   4.488308e+01   1.365872e+05  -6.349687e+04   8.559266e+05  -5.383119e+00  -1.157955e+01   1.268929e-21   8.690790e+05   2.966431e-40   0.000000e+00   0.000000e+00
     2816000   2.815999e-05   3.946294e+00   8.481248e+00   4.495156e+01   1.365872e+05  -6.349687e+04   8.559266e+05  -6.260765e-01  -1.346744e+00  -1.540172e-22   8.690790e+05   4.014968e-42   0.000000e+00   0.000000e+00
     2824000   2.823999e-05   3.957221e+00   8.476168e+00   4.502003e+01   1.365872e+05  -6.349687e+04   8.559266e+05  -4.249771e+00  -9.141619e+00   1.538774e-21   8.690790e+05   1.848800e-40   0.000000e+00   0.000000e+00
     2832000   2.831999e-05   3.968148e+00   8.471088e+00   4.508850e+01   1.365872e+05  -6.349687e+04   8.559266e+05  -5.661430e+00  -1.217822e+01  -9.155787e-22   8.690790e+05   3.281105e-40   0.000000e+00   0.000000e+00
     2840000   2.839999e-05   3.979075e+00   8.466009e+00   4.515698e+01   1.365872e+05  -6.349687e+04   8.559266e+05  -5.619930e-01  -1.208895e+00  -1.599829e-22   8.690790e+05   3.235307e-42   0.000000e+00   0.000000e+00
     2848000   2.847999e-05   3.990002e+00   8.460929e+00   4.522545e+01   1.365872e+05  -6.349687e+04   8.559266e+05  -4.528083e+00  -9.740291e+00  -6.482262e-22   8.690790e+05   2.098890e-40   0.000000e+00   0.000000e+00
     2856000   2.855999e-05   4.000929e+00   8.455849e+00   4.529393e+01   1.365872e+05  -6.349687e+04   8.559266e+05  -2.321715e+00  -4.994205e+00   3.050854e-23   8.690790e+05   5.518447e-41   0.000000e+00   0.000000e+00
     2864000   2.863999e-05   4.011856e+00   8.450769e+00   4.536240e+01   1.365872e+05  -6.349687e+04   8.559266e+05  -2.142733e+00  -4.609200e+00   2.688946e-22   8.690790e+05   4.700344e-41   0.000000e+00   0.000000e+00
     2872000   2.871999e-05   4.022783e+00   8.445690e+00   4.543088e+01   1.365872e+05  -6.349687e+04   8.559266e+05  -2.531563e+00  -5.445607e+00   6.022321e-22   8.690790e+05   6.561095e-41   0.000000e+00   0.000000e+00
     2880000   2.879999e-05   4.033710e+00   8.440610e+00   4.549935e+01   1.365872e+05  -6.349687e+04   8.559266e+05  -2.438648e+00  -5.245740e+00  -4.300885e-22   8.690790e+05   6.088318e-41   0.000000e+00   0.000000e+00
     2888000   2.887999e-05   4.044637e+00   8.435530e+00   4.556782e+01   1.365872e+05  -6.349687e+04   8.559266e+05  -1.822278e+00  -3.919875e+00   3.256161e-22   8.690790e+05   3.399559e-41   0.000000e+00   0.000000e+00
     2896000   2.895999e-05   4.055564e+00   8.430450e+00   4.563630e+01   1.365872e+05  -6.349687e+04   8.559266e+05  -2.648497e+00  -5.697141e+00   2.813800e-22   8.690790e+05   7.181208e-41   0.000000e+00   0.000000e+00
     2904000   2.903999e-05   4.066491e+00   8.425371e+00   4.570477e+01   1.365872e+05  -6.349687e+04   8.559266e+05  -1.476749e+00  -3.176612e+00  -1.279175e-22   8.690790e+05   2.232576e-41   0.000000e+00   0.000000e+00
     2912000   2.911999e-05   4.077417e+00   8.420291e+00   4.577325e+01   1.365872e+05  -6.349687e+04   8.559266e+05  -1.501823e+00  -3.230549e+00   1.715126e-22   8.690790e+05   2.309036e-41   0.000000e+00   0.000000e+00
     2920000   2.919999e-05   4.088344e+00   8.415211e+00   4.584172e+01   1.365872e+05  -6.349687e+04   8.559266e+05  -2.765430e+00  -5.948675e+00   5.346186e-22   8.690790e+05   7.829318e-41   0.000000e+00   0.000000e+00
     2928000   2.927999e-05   4.099271e+00   8.410131e+00   4.591019e+01   1.365872e+05  -6.349687e+04   8.559266e+05  -1.156294e+00  -2.487287e+00  -5.694893e-22   8.690790e+05   1.368766e-41   0.000000e+00   0.000000e+00
     2936000   2.935999e-05   4.110198e+00   8.405052e+00   4.597867e+01   1.365872e+05  -6.349687e+04   8.559266e+05  -3.023089e+00  -6.502921e+00  -7.717429e-22   8.690790e+05   9.355162e-41   0.000000e+00   0.000000e+00
     2944000   2.943999e-05   4.121125e+00   8.399972e+00   4.604714e+01   1.365872e+05  -6.349687e+04   8.559266e+05  -4.002200e+00  -8.609071e+00   6.668019e-22   8.690790e+05   1.639697e-40   0.000000e+00   0.000000e+00
     2952000   2.951999e-05   4.132052e+00   8.394892e+00   4.611562e+01   1.365872e+05  -6.349687e+04   8.559266e+05  -7.952850e-01  -1.710726e+00  -3.503222e-24   8.690790e+05   6.477080e-42   0.000000e+00   0.000000e+00
     2960000   2.959999e-05   4.142979e+00   8.389812e+00   4.618409e+01   1.365872e+05  -6.349687e+04   8.559266e+05   2.218696e-01   4.772603e-01   5.748619e-25   8.690790e+05   5.033759e-43   0.000000e+00   0.000000e+00
     2968000   2.967999e-05   4.153906e+00   8.384733e+00   4.625257e+01   1.365872e+05  -6.349687e+04   8.559266e+05  -4.313106e+00  -9.277857e+00  -5.882340e-23   8.690790e+05   1.904358e-40   0.000000e+00   0.000000e+00
     2976000   2.975999e-05   4.164833e+00   8.379653e+00   4.632104e+01   1.365872e+05  -6.349687e+04   8.559266e+05  -6.001453e-01  -1.290964e+00  -8.149543e-23   8.690790e+05   3.688856e-42   0.000000e+00   0.000000e+00
     2984000   2.983999e-05   4.175760e+00   8.374573e+00   4.638951e+01   1.365872e+05  -6.349687e+04   8.559266e+05   4.170092e-01   8.970222e-01   6.415105e-23   8.690790e+05   1.779185e-42   0.000000e+00   0.000000e+00
     2992000   2.991999e-05   4.186687e+00   8.369493e+00   4.645799e+01   1.365872e+05  -6.349687e+04   8.559266e+05  -4.624012e+00  -9.946642e+00   3.632681e-22   8.690790e+05   2.188809e-40   0.000000e+00   0.000000e+00
     3000000   2.999999e-05   4.197614e+00   8.364414e+00   4.652646e+01   1.365872e+05  -6.349687e+04   8.559266e+05  -4.050057e-01  -8.712017e-01  -1.680292e-23   8.690790e+05   1.680312e-42   0.000000e+00   0.000000e+00
     3008000   3.007999e-05   4.208541e+00   8.359334e+00   4.659494e+01   1.365872e+05  -6.349687e+04   8.559266e+05  -3.757832e+00  -8.083417e+00   8.216162e-22   8.690790e+05   1.445611e-40   0.000000e+00   0.000000e+00
     3016000   3.015999e-05   4.219468e+00   8.354254e+00   4.666341e+01   1.365872e+05  -6.349687e+04   8.559266e+05  -2.691132e+00  -5.788854e+00   2.226324e-22   8.690790e+05   7.414716e-41   0.000000e+00   0.000000e+00
     3024000   3.023999e-05   4.230395e+00   8.349174e+00   4.673188e+01   1.365872e+05  -6.349687e+04   8.559266e+05  -2.783021e+00  -5.986514e+00   7.175602e-22   8.690790e+05   7.928724e-41   0.000000e+00   0.000000e+00
     3032000   3.031999e-05   4.241322e+00   8.344095e+00   4.680036e+01   1.365872e+05  -6.349687e+04   8.559266e+05  -3.454582e+00  -7.431098e+00  -3.356505e-22   8.690790e+05   1.221824e-40   0.000000e+00   0.000000e+00
     3040000   3.039999e-05   4.252249e+00   8.339015e+00   4.686883e+01   1.365872e+05  -6.349687e+04   8.559266e+05  -2.722483e+00  -5.856291e+00   5.151204e-22   8.690790e+05   7.588471e-41   0.000000e+00   0.000000e+00
     3048000   3.047999e-05   4.263176e+00   8.333935e+00   4.693731e+01   1.365872e+05  -6.349687e+04   8.559266e+05  -2.434627e+00  -5.237089e+00   2.833153e-24   8.690790e+05   6.067807e-41   0.000000e+00   0.000000e+00
     3056000   3.055999e-05   4.274103e+00   8.328855e+00   4.700578e+01   1.365872e+05  -6.349687e+04   8.559266e+05  -3.485932e+00  -7.498535e+00   1.105900e-21   8.690790e+05   1.244100e-40   0.000000e+00   0.000000e+00
     3064000   3.063999e-05   4.285030e+00   8.323776e+00   4.707425e+01   1.365872e+05  -6.349687e+04   8.559266e+05  -2.753833e+00  -5.923728e+00   2.325007e-22   8.690790e+05   7.764239e-41   0.000000e+00   0.000000e+00
     3072000   3.071999e-05   4.295957e+00   8.318696e+00   4.714273e+01   1.365872e+05  -6.349687e+04   8.559266e+05  -2.086233e+00  -4.487664e+00  -1.398694e-22   8.690790e+05   4.455412e-41   0.000000e+00   0.000000e+00
     3080000   3.079999e-05   4.306884e+00   8.313616e+00   4.721120e+01   1.365872e+05  -6.349687e+04   8.559266e+05  -2.868348e+00  -6.170060e+00  -6.907268e-22   8.690790e+05   8.424062e-41   0.000000e+00   0.000000e+00
     3088000   3.087999e-05   4.317811e+00   8.308536e+00   4.727968e+01   1.365872e+05  -6.349687e+04   8.559266e+05  -1.202397e+00  -2.586458e+00   1.887817e-22   8.690790e+05   1.480612e-41   0.000000e+00   0.000000e+00
     3096000   3.095999e-05   4.328738e+00   8.303457e+00   4.734815e+01   1.365872e+05  -6.349687e+04   8.559266e+05  -2.665688e+00  -5.734121e+00  -1.521248e-22   8.690790e+05   7.273622e-41   0.000000e+00   0.000000e+00
     3104000   3.103999e-05   4.339665e+00   8.298377e+00   4.741663e+01   1.365872e+05  -6.349687e+04   8.559266e+05  -4.167312e+00  -8.964241e+00   3.841471e-22   8.690790e+05   1.777880e-40   0.000000e+00   0.000000e+00
     3112000   3.111999e-05   4.350592e+00   8.293297e+00   4.748510e+01   1.365872e+05  -6.349687e+04   8.559266e+05  -4.332391e+00  -9.319342e+00   1.710918e-21   8.690790e+05   1.921525e-40   0.000000e+00   0.000000e+00
     3120000   3.119999e-05   4.361519e+00   8.288217e+00   4.755357e+01   1.365872e+05  -6.349687e+04   8.559266e+05  -1.996858e+00  -4.295411e+00   4.977116e-22   8.690790e+05   4.082121e-41   0.000000e+00   0.000000e+00
     3128000   3.127999e-05   4.372446e+00   8.283138e+00   4.762205e+01   1.365872e+05  -6.349687e+04   8.559266e+05  -4.417518e+00  -9.502457e+00  -1.613285e-21   8.690790e+05   1.997779e-40   0.000000e+00   0.000000e+00
     3136000   3.135999e-05   4.383373e+00   8.278058e+00   4.769052e+01   1.365872e+05  -6.349687e+04   8.559266e+05  -4.582598e+00  -9.857557e+00  -1.440049e-21   8.690790e+05   2.149881e-40   0.000000e+00   0.000000e+00
     3144000   3.143999e-05   4.394300e+00   8.272978e+00   4.775900e+01   1.365872e+05  -6.349687e+04   8.559266e+05  -2.427066e+00  -5.220825e+00  -1.000285e-22   8.690790e+05   6.030528e-41   0.000000e+00   0.000000e+00
     3152000   3.151999e-05   4.405227e+00   8.267898e+00   4.782747e+01   1.365872e+05  -6.349687e+04   8.559266e+05  -1.778642e+00  -3.826009e+00  -4.013561e-22   8.690790e+05   3.238812e-41   0.000000e+00   0.000000e+00
     3160000   3.159999e-05   4.416154e+00   8.262819e+00   4.789594e+01   1.365872e+05  -6.349687e+04   8.559266e+05  -1.548494e+00  -3.330942e+00  -3.239777e-22   8.690790e+05   2.454879e-41   0.000000e+00   0.000000e+00
     3168000   3.167999e-05   4.427081e+00   8.257739e+00   4.796442e+01   1.365872e+05  -6.349687e+04   8.559266e+05  -2.399521e+00  -5.161575e+00  -3.770233e-22   8.690790e+05   5.894354e-41   0.000000e+00   0.000000e+00
     3176000   3.175999e-05   4.438008e+00   8.252659e+00   4.803289e+01   1.365872e+05  -6.349687e+04   8.559266e+05  -1.838416e+00  -3.954589e+00  -1.171099e-22   8.690790e+05   3.460159e-41   0.000000e+00   0.000000e+00
     3184000   3.183999e-05   4.448935e+00   8.247579e+00   4.810137e+01   1.365872e+05  -6.349687e+04   8.559266e+05  -1.999891e+00  -4.301935e+00  -6.092517e-23   8.690790e+05   4.094472e-41   0.000000e+00   0.000000e+00
     3192000   3.191999e-05   4.459862e+00   8.242500e+00   4.816984e+01   1.365872e+05  -6.349687e+04   8.559266e+05  -2.175184e+00  -4.679005e+00  -3.079907e-22   8.690790e+05   4.843709e-41   0.000000e+00   0.000000e+00
     3200000   3.199999e-05   4.470789e+00   8.237420e+00   4.823831e+01   1.365872e+05  -6.349687e+04   8.559266e+05  -1.898191e+00  -4.083170e+00   1.667297e-22   8.690790e+05   3.688822e-41   0.000000e+00   0.000000e+00
     3208000   3.207999e-05   4.481715e+00   8.232340e+00   4.830679e+01   1.365872e+05  -6.349687e+04   8.559266e+05  -1.775553e+00  -3.819366e+00  -2.791180e-22   8.690790e+05   3.227390e-41   0.000000e+00   0.000000e+00
     3216000   3.215999e-05   4.492642e+00   8.227260e+00   4.837526e+01   1.365872e+05  -6.349687e+04   8.559266e+05  -1.950846e+00  -4.196436e+00   6.221662e-22   8.690790e+05   3.896110e-41   0.000000e+00   0.000000e+00
     3224000   3.223999e-05   4.503569e+00   8.222181e+00   4.844374e+01   1.365872e+05  -6.349687e+04   8.559266e+05  -2.454486e+00  -5.279808e+00   1.081999e-22   8.690790e+05   6.167970e-41   0.000000e+00   0.000000e+00
     3232000   3.231999e-05   4.514496e+00   8.217101e+00   4.851221e+01   1.365872e+05  -6.349687e+04   8.559266e+05  -2.465262e+00  -5.302987e+00  -4.896734e-22   8.690790e+05   6.221488e-41   0.000000e+00   0.000000e+00
     3240000   3.239999e-05   4.525423e+00   8.212021e+00   4.858069e+01   1.365872e+05  -6.349687e+04   8.559266e+05  -3.070657e+00  -6.605244e+00   2.467741e-22   8.690790e+05   9.652417e-41   0.000000e+00   0.000000e+00
     3248000   3.247999e-05   4.536350e+00   8.206941e+00   4.864916e+01   1.365872e+05  -6.349687e+04   8.559266e+05  -2.257352e+00  -4.855755e+00   6.954138e-23   8.690790e+05   5.217012e-41   0.000000e+00   0.000000e+00
     3256000   3.255999e-05   4.547277e+00   8.201862e+00   4.871763e+01   1.365872e+05  -6.349687e+04   8.559266e+05  -2.694869e+00  -5.796893e+00   2.360251e-22   8.690790e+05   7.434399e-41   0.000000e+00   0.000000e+00
     3264000   3.263999e-05   4.558204e+00   8.196782e+00   4.878611e+01   1.365872e+05  -6.349687e+04   8.559266e+05  -7.952267e-01  -1.710600e+00  -8.757078e-23   8.690790e+05   6.474754e-42   0.000000e+00   0.000000e+00
     3272000   3.271999e-05   4.569131e+00   8.191702e+00   4.885458e+01   1.365872e+05  -6.349687e+04   8.559266e+05  -1.711390e+00  -3.681345e+00  -3.414867e-23   8.690790e+05   2.998393e-41   0.000000e+00   0.000000e+00
     3280000   3.279999e-05   4.580058e+00   8.186622e+00   4.892306e+01   1.365872e+05  -6.349687e+04   8.559266e+05  -8.404648e-01  -1.807911e+00   7.903811e-23   8.690790e+05   7.232326e-42   0.000000e+00   0.000000e+00
     3288000   3.287999e-05   4.590985e+00   8.181543e+00   4.899153e+01   1.365872e+05  -6.349687e+04   8.559266e+05  -4.998369e-01  -1.075192e+00   8.156782e-24   8.690790e+05   2.558147e-42   0.000000e+00   0.000000e+00
     3296000   3.295999e-05   4.601912e+00   8.176463e+00   4.906000e+01   1.365872e+05  -6.349687e+04   8.559266e+05  -2.553168e+00  -5.492080e+00   9.088296e-22   8.690790e+05   6.673177e-41   0.000000e+00   0.000000e+00
     3304000   3.303999e-05   4.612839e+00   8.171383e+00   4.912848e+01   1.365872e+05  -6.349687e+04   8.559266e+05  -2.669414e+00  -5.742137e+00   5.870238e-22   8.690790e+05   7.295349e-41   0.000000e+00   0.000000e+00
     3312000   3.311999e-05   4.623766e+00   8.166303e+00   4.919695e+01   1.365872e+05  -6.349687e+04   8.559266e+05  -2.196395e+00  -4.724632e+00   1.407830e-22   8.690790e+05   4.939002e-41   0.000000e+00   0.000000e+00
     3320000   3.319999e-05   4.634693e+00   8.161224e+00   4.926543e+01   1.365872e+05  -6.349687e+04   8.559266e+05  -2.720625e+00  -5.852295e+00   3.174622e-22   8.690790e+05   7.577267e-41   0.000000e+00   0.000000e+00
     3328000   3.327999e-05   4.645620e+00   8.156144e+00   4.933390e+01   1.365872e+05  -6.349687e+04   8.559266e+05  -2.556216e+00  -5.498637e+00   7.482196e-22   8.690790e+05   6.689751e-41   0.000000e+00   0.000000e+00
     3336000   3.335999e-05   4.656547e+00   8.151064e+00   4.940237e+01   1.365872e+05  -6.349687e+04   8.559266e+05  -2.396977e+00  -5.156100e+00  -1.342668e-21   8.690790e+05   5.881664e-41   0.000000e+00   0.000000e+00
     3344000   3.343999e-05   4.667474e+00   8.145984e+00   4.947085e+01   1.365872e+05  -6.349687e+04   8.559266e+05  -2.888082e+00  -6.212510e+00   8.752696e-22   8.690790e+05   8.538773e-41   0.000000e+00   0.000000e+00
     3352000   3.351999e-05   4.678401e+00   8.140905e+00   4.953932e+01   1.365873e+05  -6.349701e+04   8.559266e+05   4.979399e+06  -6.016783e+06  -1.240960e+06   8.690790e+05   1.137225e-28   0.000000e+00   0.000000e+00
     3360000   3.359999e-05   4.689328e+00   8.135825e+00   4.960780e+01   1.365879e+05  -6.349774e+04   8.559264e+05  -1.193921e+06   1.442646e+06   2.975488e+05   8.690790e+05   6.563763e-30   0.000000e+00   0.000000e+00
     3368000   3.367999e-05   4.700255e+00   8.130745e+00   4.967627e+01   1.365886e+05  -6.349856e+04   8.559263e+05   7.214005e+07  -8.676781e+07  -1.794914e+07   8.690790e+05   2.374593e-26   0.000000e+00   0.000000e+00
     3376000   3.375999e-05   4.711182e+00   8.125665e+00   4.974475e+01   1.365949e+05  -6.350620e+04   8.559247e+05   8.260085e+07  -9.936295e+07  -2.055440e+07   8.690790e+05   3.114208e-26   0.000000e+00   0.000000e+00
     3384000   3.383999e-05   4.722110e+00   8.120584e+00   4.981322e+01   1.366022e+05  -6.351501e+04   8.559229e+05   9.544720e+07  -1.147801e+08  -2.375046e+07   8.690790e+05   4.157749e-26   0.000000e+00   0.000000e+00
     3392000   3.391999e-05   4.733039e+00   8.115503e+00   4.988169e+01   1.366067e+05  -6.352033e+04   8.559218e+05   1.526588e+07  -1.826618e+07  -3.792045e+06   8.690790e+05   1.058554e-27   0.000000e+00   0.000000e+00
     3400000   3.399999e-05   4.743967e+00   8.110421e+00   4.995017e+01   1.366068e+05  -6.352045e+04   8.559217e+05   0.000000e+00   0.000000e+00   0.000000e+00   8.690790e+05   0.000000e+00   0.000000e+00   0.000000e+00
