     timestep     time              x             y              z              vx             vy             vz             ax             ay             az         v_magnitude      ELoss        Electronic      Nuclear
           0   0.000000e+00   1.000000e-01   1.569786e+01   1.915324e+01   8.051153e+05   1.117545e+06   1.939526e+06   0.000000e+00   0.000000e+00   0.000000e+00   2.378840e+06   0.000000e+00   0.000000e+00   0.000000e+00
        8000   7.999000e-08   1.644092e-01   1.578726e+01   1.930840e+01   8.051153e+05   1.117545e+06   1.939526e+06   0.000000e+00   0.000000e+00   0.000000e+00   2.378840e+06   0.000000e+00   0.000000e+00   0.000000e+00
       16000   1.599900e-07   2.288185e-01   1.587667e+01   1.946357e+01   8.051153e+05   1.117545e+06   1.939526e+06   0.000000e+00   0.000000e+00   0.000000e+00   2.378840e+06   0.000000e+00   0.000000e+00   0.000000e+00
       24000   2.399900e-07   2.932277e-01   1.596607e+01   1.961873e+01   8.051150e+05   1.117546e+06   1.939525e+06   3.321842e+06  -9.116611e+06   3.874026e+06   2.378840e+06   1.490781e-27   0.000000e+00   0.000000e+00
       32000   3.199900e-07   3.576367e-01   1.605547e+01   1.977389e+01   8.051082e+05   1.117565e+06   1.939517e+06  -1.743349e+08   4.830332e+08  -2.059598e+08   2.378840e+06   4.171955e-24   0.000000e+00   0.000000e+00
       40000   3.999900e-07   4.220449e-01   1.614488e+01   1.992905e+01   8.050992e+05   1.117590e+06   1.939507e+06  -2.533062e+07   7.090064e+07  -3.033978e+07   2.378840e+06   9.003490e-26   0.000000e+00   0.000000e+00
       48000   4.799900e-07   4.864529e-01   1.623429e+01   2.008421e+01   8.051002e+05   1.117587e+06   1.939508e+06  -1.773481e+01   5.313491e+00   4.300064e+00   2.378840e+06   4.923543e-39   0.000000e+00   0.000000e+00
       56000   5.599900e-07   5.508609e-01   1.632369e+01   2.023937e+01   8.051002e+05   1.117587e+06   1.939508e+06  -2.799926e+01   2.017043e+01   6.780378e-20   2.378840e+06   1.622011e-38   0.000000e+00   0.000000e+00
       64000   6.399900e-07   6.152689e-01   1.641310e+01   2.039453e+01   8.051002e+05   1.117587e+06   1.939508e+06  -1.743524e+01   1.256020e+01  -3.925734e-20   2.378840e+06   6.289234e-39   0.000000e+00   0.000000e+00
       72000   7.199900e-07   6.796769e-01   1.650251e+01   2.054969e+01   8.051002e+05   1.117587e+06   1.939508e+06  -1.674801e+01   1.206513e+01   3.889706e-20   2.378840e+06   5.808251e-39   0.000000e+00   0.000000e+00
       80000   7.999900e-07   7.440849e-01   1.659192e+01   2.070485e+01   8.051002e+05   1.117587e+06   1.939508e+06   1.284927e+01  -9.256504e+00   7.377241e-20   2.378840e+06   3.415845e-39   0.000000e+00   0.000000e+00
       88000   8.799900e-07   8.084930e-01   1.668132e+01   2.086001e+01   8.051002e+05   1.117587e+06   1.939508e+06  -1.802156e+01   1.298258e+01   5.282303e-20   2.378840e+06   6.723921e-39   0.000000e+00   0.000000e+00
       96000   9.599900e-07   8.729010e-01   1.677073e+01   2.101518e+01   8.051002e+05   1.117587e+06   1.939508e+06  -1.634380e+01   1.177393e+01   2.674951e-20   2.378840e+06   5.533153e-39   0.000000e+00   0.000000e+00
      104000   1.039990e-06   9.373090e-01   1.686014e+01   2.117034e+01   8.051002e+05   1.117587e+06   1.939508e+06  -2.014600e+01   1.451301e+01   7.959357e-20   2.378840e+06   8.402128e-39   0.000000e+00   0.000000e+00
      112000   1.119990e-06   1.001717e+00   1.694954e+01   2.132550e+01   8.051002e+05   1.117587e+06   1.939508e+06  -2.523252e+01   1.817729e+01  -3.110487e-21   2.378840e+06   1.318202e-38   0.000000e+00   0.000000e+00
      120000   1.199990e-06   1.066125e+00   1.703895e+01   2.148066e+01   8.051002e+05   1.117587e+06   1.939508e+06  -1.239855e+01   8.931806e+00  -4.979554e-20   2.378840e+06   3.182489e-39   0.000000e+00   0.000000e+00
      128000   1.279990e-06   1.130533e+00   1.712836e+01   2.163582e+01   8.051002e+05   1.117587e+06   1.939508e+06  -1.246530e+01   8.979892e+00  -3.590377e-20   2.378840e+06   3.219296e-39   0.000000e+00   0.000000e+00
      136000   1.359990e-06   1.194941e+00   1.721776e+01   2.179098e+01   8.051002e+05   1.117587e+06   1.939508e+06  -3.536408e+01   2.547598e+01   7.099725e-20   2.378840e+06   2.589269e-38   0.000000e+00   0.000000e+00
      144000   1.439990e-06   1.259349e+00   1.730717e+01   2.194614e+01   8.051002e+05   1.117587e+06   1.939508e+06  -4.733561e+00   3.410016e+00   1.779305e-20   2.378840e+06   4.643055e-40   0.000000e+00   0.000000e+00
      152000   1.519990e-06   1.323757e+00   1.739658e+01   2.210130e+01   8.051002e+05   1.117587e+06   1.939508e+06  -2.443279e+01   1.760117e+01  -1.566626e-20   2.378840e+06   1.235902e-38   0.000000e+00   0.000000e+00
      160000   1.599990e-06   1.388165e+00   1.748599e+01   2.225646e+01   8.051002e+05   1.117587e+06   1.939508e+06   2.502831e+01  -1.803018e+01  -5.150667e-20   2.378840e+06   1.295909e-38   0.000000e+00   0.000000e+00
      168000   1.679990e-06   1.452573e+00   1.757539e+01   2.241162e+01   8.051002e+05   1.117587e+06   1.939508e+06  -3.353105e+01   2.415548e+01  -1.651479e-19   2.378840e+06   2.327957e-38   0.000000e+00   0.000000e+00
      176000   1.759990e-06   1.516981e+00   1.766480e+01   2.256678e+01   8.051002e+05   1.117587e+06   1.939508e+06  -2.038418e+01   1.468459e+01   7.816029e-20   2.378840e+06   8.603296e-39   0.000000e+00   0.000000e+00
      184000   1.839990e-06   1.581389e+00   1.775421e+01   2.272194e+01   8.051002e+05   1.117587e+06   1.939508e+06  -2.705851e+01   1.949272e+01  -2.307771e-20   2.378840e+06   1.515891e-38   0.000000e+00   0.000000e+00
      192000   1.919990e-06   1.645797e+00   1.784361e+01   2.287710e+01   8.051002e+05   1.117587e+06   1.939508e+06  -2.731247e+01   1.967567e+01   1.114313e-19   2.378840e+06   1.544737e-38   0.000000e+00   0.000000e+00
      200000   1.999990e-06   1.710205e+00   1.793302e+01   2.303226e+01   8.051002e+05   1.117587e+06   1.939508e+06  -1.825378e+01   1.314987e+01  -1.488234e-21   2.378840e+06   6.900154e-39   0.000000e+00   0.000000e+00
      208000   2.079990e-06   1.774613e+00   1.802243e+01   2.318742e+01   8.051002e+05   1.117587e+06   1.939508e+06  -2.499667e+01   1.800739e+01   3.861276e-20   2.378840e+06   1.294156e-38   0.000000e+00   0.000000e+00
      216000   2.159990e-06   1.839021e+00   1.811183e+01   2.334258e+01   8.051002e+05   1.117587e+06   1.939508e+06  -2.278779e+01   1.641613e+01  -1.244133e-19   2.378840e+06   1.075387e-38   0.000000e+00   0.000000e+00
      224000   2.239990e-06   1.903429e+00   1.820124e+01   2.349775e+01   8.051002e+05   1.117587e+06   1.939508e+06  -2.582753e+01   1.860593e+01  -3.632546e-20   2.378840e+06   1.381583e-38   0.000000e+00   0.000000e+00
      232000   2.319990e-06   1.967837e+00   1.829065e+01   2.365291e+01   8.051002e+05   1.117587e+06   1.939508e+06  -9.696313e+00   6.985140e+00   2.097027e-20   2.378840e+06   1.948008e-39   0.000000e+00   0.000000e+00
      240000   2.399990e-06   2.032245e+00   1.838006e+01   2.380807e+01   8.051002e+05   1.117587e+06   1.939508e+06  -2.749540e+01   1.980745e+01  -1.765110e-19   2.378840e+06   1.566090e-38   0.000000e+00   0.000000e+00
      248000   2.479990e-06   2.096653e+00   1.846946e+01   2.396323e+01   8.051002e+05   1.117587e+06   1.939508e+06  -2.275322e+01   1.639122e+01  -2.565885e-20   2.378840e+06   1.072039e-38   0.000000e+00   0.000000e+00
      256000   2.559990e-06   2.161061e+00   1.855887e+01   2.411839e+01   8.051002e+05   1.117587e+06   1.939508e+06  -2.876975e+01   2.072548e+01  -9.974921e-20   2.378840e+06   1.713981e-38   0.000000e+00   0.000000e+00
      264000   2.639990e-06   2.225469e+00   1.864828e+01   2.427355e+01   8.051002e+05   1.117587e+06   1.939508e+06  -3.160440e+01   2.276753e+01  -2.776458e-19   2.378840e+06   2.068548e-38   0.000000e+00   0.000000e+00
      272000   2.719990e-06   2.289877e+00   1.873768e+01   2.442871e+01   8.051002e+05   1.117587e+06   1.939508e+06  -5.101573e+01   3.675129e+01  -3.118628e-19   2.378840e+06   5.387485e-38   0.000000e+00   0.000000e+00
      280000   2.799990e-06   2.354285e+00   1.882709e+01   2.458387e+01   8.051002e+05   1.117587e+06   1.939508e+06  -4.864922e+01   3.504648e+01   1.160205e-19   2.378840e+06   4.900041e-38   0.000000e+00   0.000000e+00
      288000   2.879990e-06   2.418693e+00   1.891650e+01   2.473903e+01   8.051002e+05   1.117587e+06   1.939508e+06  -4.091801e+01   2.947698e+01   2.149819e-19   2.378840e+06   3.466939e-38   0.000000e+00   0.000000e+00
      296000   2.959990e-06   2.483101e+00   1.900590e+01   2.489419e+01   8.051002e+05   1.117587e+06   1.939508e+06  -2.438209e+01   1.756465e+01   2.471510e-20   2.378840e+06   1.231407e-38   0.000000e+00   0.000000e+00
      304000   3.039990e-06   2.547509e+00   1.909531e+01   2.504935e+01   8.051002e+05   1.117587e+06   1.939508e+06  -4.206660e+01   3.030441e+01  -4.254643e-20   2.378840e+06   3.664120e-38   0.000000e+00   0.000000e+00
      312000   3.119990e-06   2.611917e+00   1.918472e+01   2.520451e+01   8.051002e+05   1.117587e+06   1.939508e+06  -4.890126e+01   3.522805e+01  -5.112031e-20   2.378840e+06   4.952915e-38   0.000000e+00   0.000000e+00
      320000   3.199990e-06   2.676326e+00   1.927413e+01   2.535967e+01   8.051002e+05   1.117587e+06   1.939508e+06  -5.822968e+01   4.194816e+01   4.771543e-20   2.378840e+06   7.020723e-38   0.000000e+00   0.000000e+00
      328000   3.279990e-06   2.740734e+00   1.936353e+01   2.551483e+01   8.051002e+05   1.117587e+06   1.939508e+06  -5.654056e+01   4.073133e+01  -1.756373e-19   2.378840e+06   6.618036e-38   0.000000e+00   0.000000e+00
      336000   3.359990e-06   2.805142e+00   1.945294e+01   2.566999e+01   8.051002e+05   1.117587e+06   1.939508e+06  -6.045997e+01   4.355484e+01   1.505616e-20   2.378840e+06   7.569182e-38   0.000000e+00   0.000000e+00
      344000   3.439990e-06   2.869550e+00   1.954235e+01   2.582515e+01   8.051002e+05   1.117587e+06   1.939508e+06  -3.314777e+01   2.387937e+01  -7.553822e-20   2.378840e+06   2.275900e-38   0.000000e+00   0.000000e+00
      352000   3.519990e-06   2.933958e+00   1.963175e+01   2.598032e+01   8.051002e+05   1.117587e+06   1.939508e+06  -6.184682e+01   4.455392e+01  -4.044866e-19   2.378840e+06   7.918950e-38   0.000000e+00   0.000000e+00
      360000   3.599990e-06   2.998366e+00   1.972116e+01   2.613548e+01   8.051002e+05   1.117587e+06   1.939508e+06  -4.214946e+01   3.036411e+01   6.515367e-20   2.378840e+06   3.679493e-38   0.000000e+00   0.000000e+00
      368000   3.679990e-06   3.062774e+00   1.981057e+01   2.629064e+01   8.051002e+05   1.117587e+06   1.939508e+06  -6.042891e+01   4.353246e+01  -2.338388e-19   2.378840e+06   7.561016e-38   0.000000e+00   0.000000e+00
      376000   3.759990e-06   3.127182e+00   1.989997e+01   2.644580e+01   8.051002e+05   1.117587e+06   1.939508e+06  -9.138289e+01   6.583144e+01   3.141798e-19   2.378840e+06   1.728942e-37   0.000000e+00   0.000000e+00
      384000   3.839990e-06   3.191590e+00   1.998938e+01   2.660096e+01   8.051002e+05   1.117587e+06   1.939508e+06  -4.101345e+01   2.954574e+01  -9.664882e-20   2.378840e+06   3.483576e-38   0.000000e+00   0.000000e+00
      392000   3.919990e-06   3.255998e+00   2.007879e+01   2.675612e+01   8.051002e+05   1.117587e+06   1.939508e+06  -8.709726e+01   6.274411e+01   1.941992e-20   2.378840e+06   1.570645e-37   0.000000e+00   0.000000e+00
      400000   3.999990e-06   3.320406e+00   2.016819e+01   2.691128e+01   8.051002e+05   1.117587e+06   1.939508e+06  -6.373462e+01   4.591387e+01   5.087806e-20   2.378840e+06   8.412197e-38   0.000000e+00   0.000000e+00
      408000   4.079990e-06   3.384814e+00   2.025760e+01   2.706644e+01   8.051002e+05   1.117587e+06   1.939508e+06  -5.669862e+01   4.084520e+01   2.073142e-19   2.378840e+06   6.657549e-38   0.000000e+00   0.000000e+00
      416000   4.159990e-06   3.449222e+00   2.034701e+01   2.722160e+01   8.051002e+05   1.117587e+06   1.939508e+06  -7.247277e+01   5.220876e+01   1.090986e-19   2.378840e+06   1.087286e-37   0.000000e+00   0.000000e+00
      424000   4.239990e-06   3.513630e+00   2.043642e+01   2.737676e+01   8.051002e+05   1.117587e+06   1.939508e+06  -8.700401e+01   6.267694e+01  -2.122757e-19   2.378840e+06   1.567247e-37   0.000000e+00   0.000000e+00
      432000   4.319990e-06   3.578038e+00   2.052582e+01   2.753192e+01   8.051002e+05   1.117587e+06   1.939508e+06  -6.865776e+01   4.946046e+01  -1.786037e-19   2.378840e+06   9.762617e-38   0.000000e+00   0.000000e+00
      440000   4.399990e-06   3.642446e+00   2.061523e+01   2.768708e+01   8.051002e+05   1.117587e+06   1.939508e+06  -7.604967e+01   5.478553e+01   9.798676e-20   2.378840e+06   1.197730e-37   0.000000e+00   0.000000e+00
      448000   4.479990e-06   3.706854e+00   2.070464e+01   2.784224e+01   8.051002e+05   1.117587e+06   1.939508e+06  -8.574892e+01   6.177279e+01  -1.663950e-19   2.378840e+06   1.522759e-37   0.000000e+00   0.000000e+00
      456000   4.559990e-06   3.771262e+00   2.079404e+01   2.799740e+01   8.051002e+05   1.117587e+06   1.939508e+06  -8.947489e+01   6.445694e+01  -4.762796e-20   2.378840e+06   1.657661e-37   0.000000e+00   0.000000e+00
      464000   4.639990e-06   3.835670e+00   2.088345e+01   2.815256e+01   8.051002e+05   1.117587e+06   1.939508e+06  -7.527497e+01   5.422744e+01  -1.900397e-19   2.378840e+06   1.173581e-37   0.000000e+00   0.000000e+00
      472000   4.719990e-06   3.900078e+00   2.097286e+01   2.830772e+01   8.051002e+05   1.117587e+06   1.939508e+06  -9.348070e+01   6.734269e+01   5.438343e-19   2.378840e+06   1.808987e-37   0.000000e+00   0.000000e+00
      480000   4.799990e-06   3.964486e+00   2.106226e+01   2.846289e+01   8.051002e+05   1.117587e+06   1.939508e+06  -7.690174e+01   5.539935e+01  -1.897402e-19   2.378840e+06   1.224777e-37   0.000000e+00   0.000000e+00
      488000   4.879990e-06   4.028894e+00   2.115167e+01   2.861805e+01   8.051002e+05   1.117587e+06   1.939508e+06  -9.808354e+01   7.065854e+01   3.409523e-19   2.378840e+06   1.991995e-37   0.000000e+00   0.000000e+00
      496000   4.959990e-06   4.093302e+00   2.124108e+01   2.877321e+01   8.051002e+05   1.117587e+06   1.939508e+06  -8.508191e+01   6.129227e+01   2.003226e-20   2.378840e+06   1.499141e-37   0.000000e+00   0.000000e+00
      504000   5.039990e-06   4.157710e+00   2.133049e+01   2.892837e+01   8.051002e+05   1.117587e+06   1.939508e+06  -1.184946e+02   8.536251e+01  -9.612172e-20   2.378840e+06   2.906962e-37   0.000000e+00   0.000000e+00
      512000   5.119990e-06   4.222118e+00   2.141989e+01   2.908353e+01   8.051002e+05   1.117587e+06   1.939508e+06  -7.875859e+01   5.673701e+01   1.148272e-19   2.378840e+06   1.284526e-37   0.000000e+00   0.000000e+00
      520000   5.199990e-06   4.286526e+00   2.150930e+01   2.923869e+01   8.051002e+05   1.117587e+06   1.939508e+06  -1.202219e+02   8.660685e+01   4.285888e-19   2.378840e+06   2.992419e-37   0.000000e+00   0.000000e+00
      528000   5.279990e-06   4.350934e+00   2.159871e+01   2.939385e+01   8.051002e+05   1.117587e+06   1.939508e+06  -5.588077e+01   4.025603e+01   1.251372e-19   2.378840e+06   6.468505e-38   0.000000e+00   0.000000e+00
      536000   5.359990e-06   4.415342e+00   2.168811e+01   2.954901e+01   8.051002e+05   1.117587e+06   1.939508e+06  -1.100456e+02   7.927590e+01  -2.601930e-19   2.378840e+06   2.507647e-37   0.000000e+00   0.000000e+00
      544000   5.439990e-06   4.479750e+00   2.177752e+01   2.970417e+01   8.051002e+05   1.117587e+06   1.939508e+06  -1.049323e+02   6.789030e+01   4.438069e+00   2.378840e+06   2.132017e-37   0.000000e+00   0.000000e+00
      552000   5.519990e-06   4.544158e+00   2.186693e+01   2.985933e+01   8.051002e+05   1.117587e+06   1.939508e+06  -1.476230e+02   1.412674e+02  -2.012230e+01   2.378840e+06   5.745087e-37   0.000000e+00   0.000000e+00
      560000   5.599990e-06   4.608566e+00   2.195633e+01   3.001449e+01   8.051002e+05   1.117587e+06   1.939508e+06  -1.180747e+02   1.369419e+02  -2.989552e+01   2.378840e+06   4.578851e-37   0.000000e+00   0.000000e+00
      568000   5.679990e-06   4.672974e+00   2.204574e+01   3.016965e+01   8.051002e+05   1.117587e+06   1.939508e+06  -1.425405e+02   7.993056e+01   1.311157e+01   2.378840e+06   3.663941e-37   0.000000e+00   0.000000e+00
      576000   5.759990e-06   4.737382e+00   2.213515e+01   3.032481e+01   8.051002e+05   1.117587e+06   1.939508e+06  -1.189988e+02   8.572568e+01  -1.949664e-19   2.378840e+06   2.931818e-37   0.000000e+00   0.000000e+00
      584000   5.839990e-06   4.801790e+00   2.222456e+01   3.047997e+01   8.051002e+05   1.117587e+06   1.939508e+06  -1.474036e+02   1.061883e+02  -2.892870e-19   2.378840e+06   4.498940e-37   0.000000e+00   0.000000e+00
      592000   5.919990e-06   4.866198e+00   2.231396e+01   3.063513e+01   8.051002e+05   1.117587e+06   1.939508e+06  -1.220046e+02   8.789104e+01  -5.014887e-19   2.378840e+06   3.082467e-37   0.000000e+00   0.000000e+00
      600000   5.999990e-06   4.930606e+00   2.240337e+01   3.079029e+01   8.051002e+05   1.117587e+06   1.939508e+06  -1.351967e+02   9.739456e+01   1.897178e-19   2.378840e+06   3.784575e-37   0.000000e+00   0.000000e+00
      608000   6.079990e-06   4.995014e+00   2.249278e+01   3.094546e+01   8.051002e+05   1.117587e+06   1.939508e+06  -1.772298e+02   1.276748e+02   1.083479e-18   2.378840e+06   6.503760e-37   0.000000e+00   0.000000e+00
      616000   6.159990e-06   5.059422e+00   2.258218e+01   3.110062e+01   8.051002e+05   1.117587e+06   1.939508e+06  -9.895099e+01   7.128344e+01  -4.115466e-20   2.378840e+06   2.027650e-37   0.000000e+00   0.000000e+00
      624000   6.239990e-06   5.123830e+00   2.267159e+01   3.125578e+01   8.051002e+05   1.117587e+06   1.939508e+06  -1.627604e+02   1.172512e+02  -3.852854e-19   2.378840e+06   5.484421e-37   0.000000e+00   0.000000e+00
      632000   6.319990e-06   5.188238e+00   2.276100e+01   3.141094e+01   8.051002e+05   1.117587e+06   1.939508e+06  -1.696452e+02   1.222109e+02  -5.158058e-19   2.378840e+06   5.958920e-37   0.000000e+00   0.000000e+00
      640000   6.399990e-06   5.252646e+00   2.285040e+01   3.156610e+01   8.051002e+05   1.117587e+06   1.939508e+06  -1.382875e+02   9.962112e+01   4.153371e-19   2.378840e+06   3.959931e-37   0.000000e+00   0.000000e+00
      648000   6.479990e-06   5.317054e+00   2.293981e+01   3.172126e+01   8.051002e+05   1.117587e+06   1.939508e+06  -1.647032e+02   1.186508e+02   1.020280e-18   2.378840e+06   5.618177e-37   0.000000e+00   0.000000e+00
      656000   6.559990e-06   5.381462e+00   2.302922e+01   3.187642e+01   8.051002e+05   1.117587e+06   1.939508e+06  -1.070062e+02   7.708636e+01  -1.295694e-19   2.378840e+06   2.371694e-37   0.000000e+00   0.000000e+00
      664000   6.639990e-06   5.445870e+00   2.311863e+01   3.203158e+01   8.051002e+05   1.117587e+06   1.939508e+06  -1.616826e+02   1.164747e+02  -4.016728e-19   2.378840e+06   5.413104e-37   0.000000e+00   0.000000e+00
      672000   6.719990e-06   5.510278e+00   2.320803e+01   3.218674e+01   8.051002e+05   1.117587e+06   1.939508e+06  -1.602078e+02   1.154123e+02   1.096021e-19   2.378840e+06   5.314889e-37   0.000000e+00   0.000000e+00
      680000   6.799990e-06   5.574686e+00   2.329744e+01   3.234190e+01   8.051002e+05   1.117587e+06   1.939508e+06  -1.566712e+02   1.128646e+02   8.951800e-21   2.378840e+06   5.082826e-37   0.000000e+00   0.000000e+00
      688000   6.879990e-06   5.639094e+00   2.338685e+01   3.249706e+01   8.051002e+05   1.117587e+06   1.939508e+06  -1.987391e+02   1.431699e+02  -6.142782e-19   2.378840e+06   8.177989e-37   0.000000e+00   0.000000e+00
      696000   6.959990e-06   5.703502e+00   2.347625e+01   3.265222e+01   8.051002e+05   1.117587e+06   1.939508e+06  -1.920036e+02   1.383177e+02   1.160714e-18   2.378840e+06   7.632922e-37   0.000000e+00   0.000000e+00
      704000   7.039990e-06   5.767910e+00   2.356566e+01   3.280738e+01   8.051002e+05   1.117587e+06   1.939508e+06  -1.747790e+02   1.259093e+02   2.472418e-19   2.378840e+06   6.326119e-37   0.000000e+00   0.000000e+00
      712000   7.119990e-06   5.832318e+00   2.365507e+01   3.296254e+01   8.051002e+05   1.117587e+06   1.939508e+06  -1.818331e+02   1.309910e+02  -2.852294e-19   2.378840e+06   6.846012e-37   0.000000e+00   0.000000e+00
      720000   7.199990e-06   5.896726e+00   2.374447e+01   3.311770e+01   8.051002e+05   1.117587e+06   1.939508e+06  -2.172258e+02   1.564876e+02  -9.725712e-19   2.378840e+06   9.770432e-37   0.000000e+00   0.000000e+00
      728000   7.279990e-06   5.961134e+00   2.383388e+01   3.327286e+01   8.051002e+05   1.117587e+06   1.939508e+06  -1.797125e+02   1.294633e+02  -6.243179e-19   2.378840e+06   6.687631e-37   0.000000e+00   0.000000e+00
      736000   7.359990e-06   6.025543e+00   2.392329e+01   3.342803e+01   8.051002e+05   1.117587e+06   1.939508e+06  -2.041957e+02   1.471009e+02  -7.766313e-19   2.378840e+06   8.634206e-37   0.000000e+00   0.000000e+00
      744000   7.439990e-06   6.089951e+00   2.401270e+01   3.358319e+01   8.051002e+05   1.117587e+06   1.939508e+06  -2.073766e+02   1.493923e+02   8.892794e-19   2.378840e+06   8.904615e-37   0.000000e+00   0.000000e+00
      752000   7.519990e-06   6.154359e+00   2.410210e+01   3.373835e+01   8.051002e+05   1.117587e+06   1.939508e+06  -2.100037e+02   1.512849e+02   1.590245e-19   2.378840e+06   9.132160e-37   0.000000e+00   0.000000e+00
      760000   7.599990e-06   6.218767e+00   2.419151e+01   3.389351e+01   8.051002e+05   1.117587e+06   1.939508e+06  -1.961116e+02   1.412771e+02  -2.546528e-19   2.378840e+06   7.963533e-37   0.000000e+00   0.000000e+00
      768000   7.679990e-06   6.283175e+00   2.428092e+01   3.404867e+01   8.051002e+05   1.117587e+06   1.939508e+06  -2.506686e+02   1.805795e+02   5.829478e-19   2.378840e+06   1.301053e-36   0.000000e+00   0.000000e+00
      776000   7.759990e-06   6.347583e+00   2.437032e+01   3.420383e+01   8.051002e+05   1.117587e+06   1.939508e+06  -1.766479e+02   1.272556e+02  -2.137138e-20   2.378840e+06   6.461601e-37   0.000000e+00   0.000000e+00
      784000   7.839990e-06   6.411991e+00   2.445973e+01   3.435899e+01   8.051002e+05   1.117587e+06   1.939508e+06  -2.046320e+02   1.474151e+02  -2.486281e-19   2.378840e+06   8.669552e-37   0.000000e+00   0.000000e+00
      792000   7.919990e-06   6.476399e+00   2.454914e+01   3.451415e+01   8.051002e+05   1.117587e+06   1.939508e+06  -2.600229e+02   1.873183e+02  -8.325809e-19   2.378840e+06   1.399835e-36   0.000000e+00   0.000000e+00
      800000   7.999990e-06   6.540807e+00   2.463854e+01   3.466931e+01   8.051002e+05   1.117587e+06   1.939508e+06  -2.208739e+02   1.591156e+02  -7.764878e-19   2.378840e+06   1.010150e-36   0.000000e+00   0.000000e+00
      808000   8.079990e-06   6.605215e+00   2.472795e+01   3.482447e+01   8.051002e+05   1.117587e+06   1.939508e+06  -2.327810e+02   1.676934e+02   6.725782e-19   2.378840e+06   1.122032e-36   0.000000e+00   0.000000e+00
      816000   8.159990e-06   6.669623e+00   2.481736e+01   3.497963e+01   8.051002e+05   1.117587e+06   1.939508e+06  -2.409501e+02   1.735784e+02   9.116242e-19   2.378840e+06   1.202114e-36   0.000000e+00   0.000000e+00
      824000   8.239990e-06   6.734031e+00   2.490677e+01   3.513479e+01   8.051002e+05   1.117587e+06   1.939508e+06  -2.292785e+02   1.651702e+02  -8.944967e-19   2.378840e+06   1.088467e-36   0.000000e+00   0.000000e+00
      832000   8.319990e-06   6.798439e+00   2.499617e+01   3.528995e+01   8.051002e+05   1.117587e+06   1.939508e+06  -2.074059e+02   1.494134e+02   7.811083e-19   2.378840e+06   8.907894e-37   0.000000e+00   0.000000e+00
      840000   8.399990e-06   6.862847e+00   2.508558e+01   3.544511e+01   8.051002e+05   1.117587e+06   1.939508e+06  -2.479590e+02   1.786275e+02   1.912250e-19   2.378840e+06   1.273085e-36   0.000000e+00   0.000000e+00
      848000   8.479990e-06   6.927255e+00   2.517499e+01   3.560027e+01   8.051002e+05   1.117587e+06   1.939508e+06  -2.136838e+02   1.539360e+02  -1.322117e-19   2.378840e+06   9.455186e-37   0.000000e+00   0.000000e+00
      856000   8.559990e-06   6.991663e+00   2.526439e+01   3.575543e+01   8.051002e+05   1.117587e+06   1.939508e+06  -3.135479e+02   2.258772e+02   2.013768e-19   2.378840e+06   2.035529e-36   0.000000e+00   0.000000e+00
      864000   8.639990e-06   7.056071e+00   2.535380e+01   3.591060e+01   8.051002e+05   1.117587e+06   1.939508e+06  -2.263475e+02   1.630588e+02   8.483984e-19   2.378840e+06   1.060804e-36   0.000000e+00   0.000000e+00
      872000   8.719990e-06   7.120479e+00   2.544321e+01   3.606576e+01   8.051002e+05   1.117587e+06   1.939508e+06  -2.657592e+02   1.914507e+02   4.716364e-19   2.378840e+06   1.462210e-36   0.000000e+00   0.000000e+00
      880000   8.799990e-06   7.184887e+00   2.553261e+01   3.622092e+01   8.051002e+05   1.117587e+06   1.939508e+06  -2.773565e+02   1.998052e+02  -1.728020e-20   2.378840e+06   1.592956e-36   0.000000e+00   0.000000e+00
      888000   8.879990e-06   7.249295e+00   2.562202e+01   3.637608e+01   8.051002e+05   1.117587e+06   1.939508e+06  -2.782147e+02   2.004234e+02  -8.028386e-19   2.378840e+06   1.602605e-36   0.000000e+00   0.000000e+00
      896000   8.959990e-06   7.313703e+00   2.571143e+01   3.653124e+01   8.051002e+05   1.117587e+06   1.939508e+06  -2.588310e+02   1.864596e+02   1.230055e-20   2.378840e+06   1.387228e-36   0.000000e+00   0.000000e+00
      904000   9.039990e-06   7.378111e+00   2.580083e+01   3.668640e+01   8.051002e+05   1.117587e+06   1.939508e+06  -2.306732e+02   1.661750e+02  -3.349255e-19   2.378840e+06   1.101876e-36   0.000000e+00   0.000000e+00
      912000   9.119990e-06   7.442519e+00   2.589024e+01   3.684156e+01   8.051002e+05   1.117587e+06   1.939508e+06  -2.834601e+02   2.042022e+02  -1.050804e-19   2.378840e+06   1.663671e-36   0.000000e+00   0.000000e+00
      920000   9.199990e-06   7.506927e+00   2.597965e+01   3.699672e+01   8.051002e+05   1.117587e+06   1.939508e+06  -2.580492e+02   1.858964e+02   3.777488e-19   2.378840e+06   1.378900e-36   0.000000e+00   0.000000e+00
      928000   9.279990e-06   7.571335e+00   2.606906e+01   3.715188e+01   8.051002e+05   1.117587e+06   1.939508e+06  -2.422807e+02   1.745369e+02  -1.788393e-19   2.378840e+06   1.215518e-36   0.000000e+00   0.000000e+00
      936000   9.359990e-06   7.635743e+00   2.615846e+01   3.730704e+01   8.051002e+05   1.117587e+06   1.939508e+06  -2.775886e+02   1.999724e+02   3.016660e-19   2.378840e+06   1.595633e-36   0.000000e+00   0.000000e+00
      944000   9.439990e-06   7.700151e+00   2.624787e+01   3.746220e+01   8.051002e+05   1.117587e+06   1.939508e+06  -2.834504e+02   2.041952e+02  -7.790807e-19   2.378840e+06   1.663646e-36   0.000000e+00   0.000000e+00
      952000   9.519990e-06   7.764559e+00   2.633728e+01   3.761736e+01   8.051002e+05   1.117587e+06   1.939508e+06  -2.640813e+02   1.902419e+02  -1.956775e-18   2.378840e+06   1.444185e-36   0.000000e+00   0.000000e+00
      960000   9.599990e-06   7.828967e+00   2.642668e+01   3.777252e+01   8.051002e+05   1.117587e+06   1.939508e+06  -2.708011e+02   1.950828e+02  -1.256397e-19   2.378840e+06   1.518489e-36   0.000000e+00   0.000000e+00
      968000   9.679990e-06   7.893375e+00   2.651609e+01   3.792768e+01   8.051002e+05   1.117587e+06   1.939508e+06  -3.051274e+02   2.198112e+02  -4.898364e-19   2.378840e+06   1.927756e-36   0.000000e+00   0.000000e+00
      976000   9.759990e-06   7.957783e+00   2.660550e+01   3.808284e+01   8.051002e+05   1.117587e+06   1.939508e+06  -2.808969e+02   2.023557e+02  -5.945317e-20   2.378840e+06   1.633781e-36   0.000000e+00   0.000000e+00
      984000   9.839990e-06   8.022191e+00   2.669490e+01   3.823801e+01   8.051002e+05   1.117587e+06   1.939508e+06  -2.880614e+02   2.075170e+02  -6.679354e-19   2.378840e+06   1.718263e-36   0.000000e+00   0.000000e+00
      992000   9.919990e-06   8.086599e+00   2.678431e+01   3.839317e+01   8.051002e+05   1.117587e+06   1.939508e+06  -2.420606e+02   1.743783e+02  -7.156985e-20   2.378840e+06   1.213345e-36   0.000000e+00   0.000000e+00
     1000000   9.999990e-06   8.151007e+00   2.687372e+01   3.854833e+01   8.051002e+05   1.117587e+06   1.939508e+06  -2.505514e+02   1.804950e+02  -8.659350e-20   2.378840e+06   1.299978e-36   0.000000e+00   0.000000e+00
     1008000   1.007999e-05   8.215415e+00   2.696313e+01   3.870349e+01   8.051002e+05   1.117587e+06   1.939508e+06  -2.550762e+02   1.837547e+02   3.178964e-19   2.378840e+06   1.347335e-36   0.000000e+00   0.000000e+00
     1016000   1.015999e-05   8.279823e+00   2.705253e+01   3.885865e+01   8.051002e+05   1.117587e+06   1.939508e+06  -2.561407e+02   1.845215e+02   4.402075e-19   2.378840e+06   1.358575e-36   0.000000e+00   0.000000e+00
     1024000   1.023999e-05   8.344231e+00   2.714194e+01   3.901381e+01   8.051002e+05   1.117587e+06   1.939508e+06  -2.761184e+02   1.989133e+02  -3.925931e-19   2.378840e+06   1.578666e-36   0.000000e+00   0.000000e+00
     1032000   1.031999e-05   8.408639e+00   2.723135e+01   3.916897e+01   8.051002e+05   1.117587e+06   1.939508e+06  -2.640908e+02   1.902488e+02  -7.872954e-20   2.378840e+06   1.444169e-36   0.000000e+00   0.000000e+00
     1040000   1.039999e-05   8.473047e+00   2.732075e+01   3.932413e+01   8.051002e+05   1.117587e+06   1.939508e+06  -3.043971e+02   2.192851e+02  -5.760046e-20   2.378840e+06   1.918614e-36   0.000000e+00   0.000000e+00
     1048000   1.047999e-05   8.537455e+00   2.741016e+01   3.947929e+01   8.051002e+05   1.117587e+06   1.939508e+06  -2.695704e+02   1.941962e+02   9.720058e-19   2.378840e+06   1.504786e-36   0.000000e+00   0.000000e+00
     1056000   1.055999e-05   8.601863e+00   2.749957e+01   3.963445e+01   8.051002e+05   1.117587e+06   1.939508e+06  -2.409486e+02   1.735773e+02   1.208485e-19   2.378840e+06   1.202353e-36   0.000000e+00   0.000000e+00
     1064000   1.063999e-05   8.666271e+00   2.758897e+01   3.978961e+01   8.051002e+05   1.117587e+06   1.939508e+06  -2.476744e+02   1.784225e+02   1.287135e-18   2.378840e+06   1.270259e-36   0.000000e+00   0.000000e+00
     1072000   1.071999e-05   8.730679e+00   2.767838e+01   3.994477e+01   8.051002e+05   1.117587e+06   1.939508e+06  -2.626074e+02   1.891801e+02   9.948576e-19   2.378840e+06   1.428059e-36   0.000000e+00   0.000000e+00
     1080000   1.079999e-05   8.795087e+00   2.776779e+01   4.009993e+01   8.051002e+05   1.117587e+06   1.939508e+06  -2.168308e+02   1.562030e+02   6.302752e-19   2.378840e+06   9.736518e-37   0.000000e+00   0.000000e+00
     1088000   1.087999e-05   8.859495e+00   2.785720e+01   4.025509e+01   8.051002e+05   1.117587e+06   1.939508e+06  -2.632048e+02   1.896105e+02  -1.058609e-19   2.378840e+06   1.434506e-36   0.000000e+00   0.000000e+00
     1096000   1.095999e-05   8.923903e+00   2.794660e+01   4.041025e+01   8.051002e+05   1.117587e+06   1.939508e+06  -2.513288e+02   1.810551e+02  -7.145405e-19   2.378840e+06   1.307934e-36   0.000000e+00   0.000000e+00
     1104000   1.103999e-05   8.988311e+00   2.803601e+01   4.056541e+01   8.051002e+05   1.117587e+06   1.939508e+06  -1.967524e+02   1.417387e+02  -1.324853e-19   2.378840e+06   8.016660e-37   0.000000e+00   0.000000e+00
     1112000   1.111999e-05   9.052719e+00   2.812542e+01   4.072058e+01   8.051002e+05   1.117587e+06   1.939508e+06  -2.743178e+02   1.976162e+02  -2.256643e-19   2.378840e+06   1.558215e-36   0.000000e+00   0.000000e+00
     1120000   1.119999e-05   9.117127e+00   2.821482e+01   4.087574e+01   8.051002e+05   1.117587e+06   1.939508e+06  -2.500852e+02   1.801592e+02   5.736700e-20   2.378840e+06   1.294898e-36   0.000000e+00   0.000000e+00
     1128000   1.127999e-05   9.181535e+00   2.830423e+01   4.103090e+01   8.051002e+05   1.117587e+06   1.939508e+06  -2.171495e+02   1.564326e+02  -5.305244e-19   2.378840e+06   9.765952e-37   0.000000e+00   0.000000e+00
     1136000   1.135999e-05   9.245943e+00   2.839364e+01   4.118606e+01   8.051002e+05   1.117587e+06   1.939508e+06  -3.048843e+02   2.196360e+02   7.623567e-19   2.378840e+06   1.924608e-36   0.000000e+00   0.000000e+00
     1144000   1.143999e-05   9.310351e+00   2.848304e+01   4.134122e+01   8.051002e+05   1.117587e+06   1.939508e+06  -1.932576e+02   1.392211e+02  -1.098086e-19   2.378840e+06   7.733819e-37   0.000000e+00   0.000000e+00
     1152000   1.151999e-05   9.374760e+00   2.857245e+01   4.149638e+01   8.051002e+05   1.117587e+06   1.939508e+06  -1.783697e+02   1.284960e+02  -3.779777e-19   2.378840e+06   6.588821e-37   0.000000e+00   0.000000e+00
     1160000   1.159999e-05   9.439168e+00   2.866186e+01   4.165154e+01   8.051002e+05   1.117587e+06   1.939508e+06  -2.380671e+02   1.715015e+02  -5.660901e-20   2.378840e+06   1.173549e-36   0.000000e+00   0.000000e+00
     1168000   1.167999e-05   9.503576e+00   2.875127e+01   4.180670e+01   8.051002e+05   1.117587e+06   1.939508e+06  -1.876297e+02   1.351668e+02  -1.594462e-19   2.378840e+06   7.290419e-37   0.000000e+00   0.000000e+00
     1176000   1.175999e-05   9.567984e+00   2.884067e+01   4.196186e+01   8.051002e+05   1.117587e+06   1.939508e+06  -2.033705e+02   1.465063e+02  -2.012245e-19   2.378840e+06   8.565062e-37   0.000000e+00   0.000000e+00
     1184000   1.183999e-05   9.632392e+00   2.893008e+01   4.211702e+01   8.051002e+05   1.117587e+06   1.939508e+06  -2.086234e+02   1.502905e+02  -3.220062e-20   2.378840e+06   9.012930e-37   0.000000e+00   0.000000e+00
     1192000   1.191999e-05   9.696800e+00   2.901949e+01   4.227218e+01   8.051002e+05   1.117587e+06   1.939508e+06  -2.078026e+02   1.496992e+02  -1.013480e-19   2.378840e+06   8.941252e-37   0.000000e+00   0.000000e+00
     1200000   1.199999e-05   9.761208e+00   2.910889e+01   4.242734e+01   8.051002e+05   1.117587e+06   1.939508e+06  -1.889530e+02   1.361201e+02  -2.644278e-19   2.378840e+06   7.392754e-37   0.000000e+00   0.000000e+00
     1208000   1.207999e-05   9.825616e+00   2.919830e+01   4.258250e+01   8.051002e+05   1.117587e+06   1.939508e+06  -2.035146e+02   1.466101e+02  -2.403469e-19   2.378840e+06   8.575760e-37   0.000000e+00   0.000000e+00
     1216000   1.215999e-05   9.890024e+00   2.928771e+01   4.273766e+01   8.051002e+05   1.117587e+06   1.939508e+06  -1.202896e+02   8.665558e+01  -7.113958e-19   2.378840e+06   2.996496e-37   0.000000e+00   0.000000e+00
     1224000   1.223999e-05   9.954432e+00   2.937711e+01   4.289282e+01   8.051002e+05   1.117587e+06   1.939508e+06  -1.458180e+02   1.050460e+02   1.632189e-19   2.378840e+06   4.403214e-37   0.000000e+00   0.000000e+00
     1232000   1.231999e-05   1.001884e+01   2.946652e+01   4.304798e+01   8.051002e+05   1.117587e+06   1.939508e+06  -1.509393e+02   1.087354e+02   7.566324e-20   2.378840e+06   4.717979e-37   0.000000e+00   0.000000e+00
     1240000   1.239999e-05   1.008325e+01   2.955593e+01   4.320315e+01   8.051002e+05   1.117587e+06   1.939508e+06  -1.632136e+02   1.175776e+02   2.156469e-19   2.378840e+06   5.516230e-37   0.000000e+00   0.000000e+00
     1248000   1.247999e-05   1.014766e+01   2.964534e+01   4.335831e+01   8.051002e+05   1.117587e+06   1.939508e+06  -1.531223e+02   1.103079e+02  -2.589751e-19   2.378840e+06   4.854246e-37   0.000000e+00   0.000000e+00
     1256000   1.255999e-05   1.021206e+01   2.973474e+01   4.351347e+01   8.051002e+05   1.117587e+06   1.939508e+06  -1.197823e+02   8.629011e+01  -1.424398e-19   2.378840e+06   2.970566e-37   0.000000e+00   0.000000e+00
     1264000   1.263999e-05   1.027647e+01   2.982415e+01   4.366863e+01   8.051002e+05   1.117587e+06   1.939508e+06  -8.241321e+01   5.936976e+01   2.673885e-20   2.378840e+06   1.407034e-37   0.000000e+00   0.000000e+00
     1272000   1.271999e-05   1.034088e+01   2.991356e+01   4.382379e+01   8.051002e+05   1.117587e+06   1.939508e+06  -9.144322e+01   6.587491e+01   1.492742e-19   2.378840e+06   1.731718e-37   0.000000e+00   0.000000e+00
     1280000   1.279999e-05   1.040529e+01   3.000296e+01   4.397895e+01   8.051002e+05   1.117587e+06   1.939508e+06  -1.093945e+02   7.880684e+01   2.681870e-19   2.378840e+06   2.478778e-37   0.000000e+00   0.000000e+00
     1288000   1.287999e-05   1.046970e+01   3.009237e+01   4.413411e+01   8.051002e+05   1.117587e+06   1.939508e+06  -2.580449e+01   1.858933e+01   3.009102e-20   2.378840e+06   1.380622e-38   0.000000e+00   0.000000e+00
     1296000   1.295999e-05   1.053410e+01   3.018178e+01   4.428927e+01   8.051002e+05   1.117587e+06   1.939508e+06  -5.077768e+01   3.657980e+01   2.246447e-19   2.378840e+06   5.339760e-38   0.000000e+00   0.000000e+00
     1304000   1.303999e-05   1.059851e+01   3.027118e+01   4.444443e+01   8.051002e+05   1.117587e+06   1.939508e+06  -8.424455e+01   6.068904e+01  -3.691762e-20   2.378840e+06   1.469309e-37   0.000000e+00   0.000000e+00
     1312000   1.311999e-05   1.066292e+01   3.036059e+01   4.459959e+01   8.051002e+05   1.117587e+06   1.939508e+06   6.039145e+00  -4.350548e+00   4.469466e-21   2.378840e+06   7.514148e-40   0.000000e+00   0.000000e+00
     1320000   1.319999e-05   1.072733e+01   3.045000e+01   4.475475e+01   8.051002e+05   1.117587e+06   1.939508e+06  -5.857916e+01   4.219992e+01   2.477286e-20   2.378840e+06   7.106106e-38   0.000000e+00   0.000000e+00
     1328000   1.327999e-05   1.079174e+01   3.053940e+01   4.490991e+01   8.051002e+05   1.117587e+06   1.939508e+06  -3.221174e+01   2.320506e+01  -5.903028e-21   2.378840e+06   2.149239e-38   0.000000e+00   0.000000e+00
     1336000   1.335999e-05   1.085614e+01   3.062881e+01   4.506507e+01   8.051002e+05   1.117587e+06   1.939508e+06  -2.994089e+01   2.156916e+01  -1.547393e-19   2.378840e+06   1.855482e-38   0.000000e+00   0.000000e+00
     1344000   1.343999e-05   1.092055e+01   3.071822e+01   4.522023e+01   8.051002e+05   1.117587e+06   1.939508e+06   5.602071e+00  -4.035684e+00   2.164037e-20   2.378840e+06   6.519192e-40   0.000000e+00   0.000000e+00
     1352000   1.351999e-05   1.098496e+01   3.080763e+01   4.537539e+01   8.051002e+05   1.117587e+06   1.939508e+06   1.235193e+01  -8.898224e+00   3.318301e-20   2.378840e+06   3.166985e-39   0.000000e+00   0.000000e+00
     1360000   1.359999e-05   1.104937e+01   3.089703e+01   4.553055e+01   8.051002e+05   1.117587e+06   1.939508e+06   4.860455e+01  -3.501430e+01   2.013466e-19   2.378840e+06   4.891737e-38   0.000000e+00   0.000000e+00
     1368000   1.367999e-05   1.111378e+01   3.098644e+01   4.568572e+01   8.051002e+05   1.117587e+06   1.939508e+06   8.417564e+01  -6.063941e+01  -4.851506e-19   2.378840e+06   1.466896e-37   0.000000e+00   0.000000e+00
     1376000   1.375999e-05   1.117818e+01   3.107585e+01   4.584088e+01   8.051002e+05   1.117587e+06   1.939508e+06   3.492045e+01  -2.515639e+01   5.727455e-20   2.378840e+06   2.526395e-38   0.000000e+00   0.000000e+00
     1384000   1.383999e-05   1.124259e+01   3.116525e+01   4.599604e+01   8.051002e+05   1.117587e+06   1.939508e+06   1.197528e+02  -8.626889e+01  -4.213037e-20   2.378840e+06   2.968785e-37   0.000000e+00   0.000000e+00
     1392000   1.391999e-05   1.130700e+01   3.125466e+01   4.615120e+01   8.051002e+05   1.117587e+06   1.939508e+06   9.894730e+01  -7.128078e+01  -5.973122e-20   2.378840e+06   2.026867e-37   0.000000e+00   0.000000e+00
     1400000   1.399999e-05   1.137141e+01   3.134407e+01   4.630636e+01   8.051002e+05   1.117587e+06   1.939508e+06   1.009160e+02  -7.269900e+01  -5.639362e-19   2.378840e+06   2.108885e-37   0.000000e+00   0.000000e+00
     1408000   1.407999e-05   1.143582e+01   3.143347e+01   4.646152e+01   8.051002e+05   1.117587e+06   1.939508e+06   5.832413e+01  -4.201620e+01  -1.563396e-19   2.378840e+06   7.048177e-38   0.000000e+00   0.000000e+00
     1416000   1.415999e-05   1.150022e+01   3.152288e+01   4.661668e+01   8.051002e+05   1.117587e+06   1.939508e+06   1.510634e+02  -1.088248e+02   1.839622e-19   2.378840e+06   4.726403e-37   0.000000e+00   0.000000e+00
     1424000   1.423999e-05   1.156463e+01   3.161229e+01   4.677184e+01   8.051002e+05   1.117587e+06   1.939508e+06   1.460956e+02  -1.052460e+02  -6.280906e-19   2.378840e+06   4.418964e-37   0.000000e+00   0.000000e+00
     1432000   1.431999e-05   1.162904e+01   3.170170e+01   4.692700e+01   8.051002e+05   1.117587e+06   1.939508e+06   1.426277e+02  -1.027478e+02  -1.637954e-19   2.378840e+06   4.211629e-37   0.000000e+00   0.000000e+00
     1440000   1.439999e-05   1.169345e+01   3.179110e+01   4.708216e+01   8.051002e+05   1.117587e+06   1.939508e+06   1.487220e+02  -1.071380e+02   2.919046e-19   2.378840e+06   4.580127e-37   0.000000e+00   0.000000e+00
     1448000   1.447999e-05   1.175786e+01   3.188051e+01   4.723732e+01   8.051002e+05   1.117587e+06   1.939508e+06   1.235744e+02  -8.902192e+01  -2.423813e-19   2.378840e+06   3.162685e-37   0.000000e+00   0.000000e+00
     1456000   1.455999e-05   1.182226e+01   3.196992e+01   4.739248e+01   8.051002e+05   1.117587e+06   1.939508e+06   2.125724e+02  -1.531353e+02   4.256280e-19   2.378840e+06   9.356421e-37   0.000000e+00   0.000000e+00
     1464000   1.463999e-05   1.188667e+01   3.205932e+01   4.754764e+01   8.051002e+05   1.117587e+06   1.939508e+06   2.804101e+02  -2.020051e+02  -8.303379e-19   2.378840e+06   1.627943e-36   0.000000e+00   0.000000e+00
     1472000   1.471999e-05   1.195108e+01   3.214873e+01   4.770280e+01   8.051002e+05   1.117587e+06   1.939508e+06   2.401792e+02  -1.730230e+02  -5.285999e-19   2.378840e+06   1.194391e-36   0.000000e+00   0.000000e+00
     1480000   1.479999e-05   1.201549e+01   3.223814e+01   4.785796e+01   8.051002e+05   1.117587e+06   1.939508e+06   2.555481e+02  -1.840947e+02  -6.443390e-19   2.378840e+06   1.352247e-36   0.000000e+00   0.000000e+00
     1488000   1.487999e-05   1.207990e+01   3.232754e+01   4.801312e+01   8.051002e+05   1.117587e+06   1.939508e+06   2.544165e+02  -1.832795e+02  -1.550208e-18   2.378840e+06   1.340245e-36   0.000000e+00   0.000000e+00
     1496000   1.495999e-05   1.214430e+01   3.241695e+01   4.816829e+01   8.051002e+05   1.117587e+06   1.939508e+06   2.740415e+02  -1.974171e+02  -9.720823e-19   2.378840e+06   1.554840e-36   0.000000e+00   0.000000e+00
     1504000   1.503999e-05   1.220871e+01   3.250636e+01   4.832345e+01   8.051002e+05   1.117587e+06   1.939508e+06   2.711706e+02  -1.953490e+02   5.776722e-19   2.378840e+06   1.522413e-36   0.000000e+00   0.000000e+00
     1512000   1.511999e-05   1.227312e+01   3.259577e+01   4.847861e+01   8.051002e+05   1.117587e+06   1.939508e+06   2.344852e+02  -1.689211e+02   5.206102e-19   2.378840e+06   1.138666e-36   0.000000e+00   0.000000e+00
     1520000   1.519999e-05   1.233753e+01   3.268517e+01   4.863377e+01   8.051002e+05   1.117587e+06   1.939508e+06   2.995210e+02  -2.157724e+02  -1.881837e-19   2.378840e+06   1.857883e-36   0.000000e+00   0.000000e+00
     1528000   1.527999e-05   1.240194e+01   3.277458e+01   4.878893e+01   8.051002e+05   1.117587e+06   1.939508e+06   3.124329e+02  -2.250740e+02  -7.525909e-19   2.378840e+06   2.021371e-36   0.000000e+00   0.000000e+00
     1536000   1.535999e-05   1.246634e+01   3.286399e+01   4.894409e+01   8.051002e+05   1.117587e+06   1.939508e+06   3.660068e+02  -2.636682e+02   8.217379e-19   2.378840e+06   2.773821e-36   0.000000e+00   0.000000e+00
     1544000   1.543999e-05   1.253075e+01   3.295339e+01   4.909925e+01   8.051002e+05   1.117587e+06   1.939508e+06   3.746564e+02  -2.698992e+02   9.826136e-20   2.378840e+06   2.906372e-36   0.000000e+00   0.000000e+00
     1552000   1.551999e-05   1.259516e+01   3.304280e+01   4.925441e+01   8.051002e+05   1.117587e+06   1.939508e+06   3.295341e+02  -2.373935e+02   5.791077e-19   2.378840e+06   2.248691e-36   0.000000e+00   0.000000e+00
     1560000   1.559999e-05   1.265957e+01   3.313221e+01   4.940957e+01   8.051002e+05   1.117587e+06   1.939508e+06   3.781136e+02  -2.723898e+02  -1.645918e-19   2.378840e+06   2.960364e-36   0.000000e+00   0.000000e+00
     1568000   1.567999e-05   1.272398e+01   3.322161e+01   4.956473e+01   8.050998e+05   1.117587e+06   1.939508e+06  -2.925901e+07  -4.300799e+07   3.692770e+07   2.378840e+06   5.544186e-26   0.000000e+00   0.000000e+00
     1576000   1.575999e-05   1.278838e+01   3.331102e+01   4.971989e+01   8.050957e+05   1.117581e+06   1.939514e+06  -1.585418e+08  -2.285463e+08   1.975033e+08   2.378840e+06   1.586793e-24   0.000000e+00   0.000000e+00
     1584000   1.583999e-05   1.285279e+01   3.340043e+01   4.987505e+01   8.050714e+05   1.117546e+06   1.939544e+06  -8.259492e+07  -1.152012e+08   1.006615e+08   2.378840e+06   4.129593e-25   0.000000e+00   0.000000e+00
