     timestep     time              x             y              z              vx             vy             vz             ax             ay             az         v_magnitude      ELoss        Electronic      Nuclear
           0   0.000000e+00   1.000000e-01   9.429211e+00   8.455071e+00   1.455328e+06  -2.395657e+05  -3.881347e+05   0.000000e+00   0.000000e+00   0.000000e+00   1.525130e+06   0.000000e+00   0.000000e+00   0.000000e+00
        8000   7.999000e-08   2.164262e-01   9.410046e+00   8.424020e+00   1.455328e+06  -2.395657e+05  -3.881347e+05   0.000000e+00   0.000000e+00   0.000000e+00   1.525130e+06   0.000000e+00   0.000000e+00   0.000000e+00
       16000   1.599900e-07   3.328525e-01   9.390880e+00   8.392969e+00   1.455328e+06  -2.395657e+05  -3.881347e+05   0.000000e+00   0.000000e+00   0.000000e+00   1.525130e+06   0.000000e+00   0.000000e+00   0.000000e+00
       24000   2.399900e-07   4.492787e-01   9.371715e+00   8.361919e+00   1.455328e+06  -2.395657e+05  -3.881347e+05   0.000000e+00   0.000000e+00   0.000000e+00   1.525130e+06   0.000000e+00   0.000000e+00   0.000000e+00
       32000   3.199900e-07   5.657050e-01   9.352550e+00   8.330868e+00   1.455328e+06  -2.395657e+05  -3.881347e+05   0.000000e+00   0.000000e+00   0.000000e+00   1.525130e+06   0.000000e+00   0.000000e+00   0.000000e+00
       40000   3.999900e-07   6.821312e-01   9.333385e+00   8.299817e+00   1.455328e+06  -2.395657e+05  -3.881347e+05   0.000000e+00   0.000000e+00   0.000000e+00   1.525130e+06   0.000000e+00   0.000000e+00   0.000000e+00
       48000   4.799900e-07   7.985575e-01   9.314219e+00   8.268766e+00   1.455328e+06  -2.395657e+05  -3.881347e+05   0.000000e+00   0.000000e+00   0.000000e+00   1.525130e+06   0.000000e+00   0.000000e+00   0.000000e+00
       56000   5.599900e-07   9.149837e-01   9.295054e+00   8.237716e+00   1.455328e+06  -2.395657e+05  -3.881347e+05   0.000000e+00   0.000000e+00   0.000000e+00   1.525130e+06   0.000000e+00   0.000000e+00   0.000000e+00
       64000   6.399900e-07   1.031410e+00   9.275889e+00   8.206665e+00   1.455328e+06  -2.395657e+05  -3.881347e+05   0.000000e+00   0.000000e+00   0.000000e+00   1.525130e+06   0.000000e+00   0.000000e+00   0.000000e+00
       72000   7.199900e-07   1.147836e+00   9.256724e+00   8.175614e+00   1.455328e+06  -2.395657e+05  -3.881347e+05   0.000000e+00   0.000000e+00   0.000000e+00   1.525130e+06   0.000000e+00   0.000000e+00   0.000000e+00
       80000   7.999900e-07   1.264262e+00   9.237558e+00   8.144563e+00   1.455328e+06  -2.395657e+05  -3.881347e+05   0.000000e+00   0.000000e+00   0.000000e+00   1.525130e+06   0.000000e+00   0.000000e+00   0.000000e+00
       88000   8.799900e-07   1.380689e+00   9.218393e+00   8.113512e+00   1.455328e+06  -2.395657e+05  -3.881347e+05   0.000000e+00   0.000000e+00   0.000000e+00   1.525130e+06   0.000000e+00   0.000000e+00   0.000000e+00
       96000   9.599900e-07   1.497115e+00   9.199228e+00   8.082462e+00   1.455328e+06  -2.395657e+05  -3.881347e+05   0.000000e+00   0.000000e+00   0.000000e+00   1.525130e+06   0.000000e+00   0.000000e+00   0.000000e+00
      104000   1.039990e-06   1.613541e+00   9.180063e+00   8.051411e+00   1.455328e+06  -2.395657e+05  -3.881347e+05   0.000000e+00   0.000000e+00   0.000000e+00   1.525130e+06   0.000000e+00   0.000000e+00   0.000000e+00
      112000   1.119990e-06   1.729967e+00   9.160897e+00   8.020360e+00   1.455328e+06  -2.395657e+05  -3.881347e+05   0.000000e+00   0.000000e+00   0.000000e+00   1.525130e+06   0.000000e+00   0.000000e+00   0.000000e+00
      120000   1.199990e-06   1.846394e+00   9.141732e+00   7.989309e+00   1.455328e+06  -2.395657e+05  -3.881347e+05   0.000000e+00   0.000000e+00   0.000000e+00   1.525130e+06   0.000000e+00   0.000000e+00   0.000000e+00
      128000   1.279990e-06   1.962820e+00   9.122567e+00   7.958259e+00   1.455328e+06  -2.395657e+05  -3.881347e+05   0.000000e+00   0.000000e+00   0.000000e+00   1.525130e+06   0.000000e+00   0.000000e+00   0.000000e+00
      136000   1.359990e-06   2.079246e+00   9.103402e+00   7.927208e+00   1.455328e+06  -2.395657e+05  -3.881347e+05   0.000000e+00   0.000000e+00   0.000000e+00   1.525130e+06   0.000000e+00   0.000000e+00   0.000000e+00
      144000   1.439990e-06   2.195672e+00   9.084236e+00   7.896157e+00   1.455328e+06  -2.395657e+05  -3.881347e+05   0.000000e+00   0.000000e+00   0.000000e+00   1.525130e+06   0.000000e+00   0.000000e+00   0.000000e+00
      152000   1.519990e-06   2.312099e+00   9.065071e+00   7.865106e+00   1.455328e+06  -2.395657e+05  -3.881347e+05   0.000000e+00   0.000000e+00   0.000000e+00   1.525130e+06   0.000000e+00   0.000000e+00   0.000000e+00
      160000   1.599990e-06   2.428525e+00   9.045906e+00   7.834056e+00   1.455328e+06  -2.395657e+05  -3.881347e+05   0.000000e+00   0.000000e+00   0.000000e+00   1.525130e+06   0.000000e+00   0.000000e+00   0.000000e+00
      168000   1.679990e-06   2.544951e+00   9.026741e+00   7.803005e+00   1.455328e+06  -2.395657e+05  -3.881347e+05   0.000000e+00   0.000000e+00   0.000000e+00   1.525130e+06   0.000000e+00   0.000000e+00   0.000000e+00
      176000   1.759990e-06   2.661377e+00   9.007575e+00   7.771954e+00   1.455328e+06  -2.395657e+05  -3.881347e+05   0.000000e+00   0.000000e+00   0.000000e+00   1.525130e+06   0.000000e+00   0.000000e+00   0.000000e+00
      184000   1.839990e-06   2.777804e+00   8.988410e+00   7.740903e+00   1.455328e+06  -2.395657e+05  -3.881347e+05   0.000000e+00   0.000000e+00   0.000000e+00   1.525130e+06   0.000000e+00   0.000000e+00   0.000000e+00
      192000   1.919990e-06   2.894230e+00   8.969245e+00   7.709852e+00   1.455328e+06  -2.395657e+05  -3.881347e+05   0.000000e+00   0.000000e+00   0.000000e+00   1.525130e+06   0.000000e+00   0.000000e+00   0.000000e+00
      200000   1.999990e-06   3.010656e+00   8.950080e+00   7.678802e+00   1.455328e+06  -2.395657e+05  -3.881347e+05   0.000000e+00   0.000000e+00   0.000000e+00   1.525130e+06   0.000000e+00   0.000000e+00   0.000000e+00
      208000   2.079990e-06   3.127082e+00   8.930914e+00   7.647751e+00   1.455328e+06  -2.395657e+05  -3.881347e+05   0.000000e+00   0.000000e+00   0.000000e+00   1.525130e+06   0.000000e+00   0.000000e+00   0.000000e+00
      216000   2.159990e-06   3.243509e+00   8.911749e+00   7.616700e+00   1.455328e+06  -2.395657e+05  -3.881347e+05   0.000000e+00   0.000000e+00   0.000000e+00   1.525130e+06   0.000000e+00   0.000000e+00   0.000000e+00
      224000   2.239990e-06   3.359935e+00   8.892584e+00   7.585649e+00   1.455328e+06  -2.395657e+05  -3.881347e+05   0.000000e+00   0.000000e+00   0.000000e+00   1.525130e+06   0.000000e+00   0.000000e+00   0.000000e+00
      232000   2.319990e-06   3.476361e+00   8.873419e+00   7.554599e+00   1.455328e+06  -2.395657e+05  -3.881347e+05   0.000000e+00   0.000000e+00   0.000000e+00   1.525130e+06   0.000000e+00   0.000000e+00   0.000000e+00
      240000   2.399990e-06   3.592787e+00   8.854253e+00   7.523548e+00   1.455328e+06  -2.395657e+05  -3.881347e+05   0.000000e+00   0.000000e+00   0.000000e+00   1.525130e+06   0.000000e+00   0.000000e+00   0.000000e+00
      248000   2.479990e-06   3.709214e+00   8.835088e+00   7.492497e+00   1.455328e+06  -2.395657e+05  -3.881347e+05   0.000000e+00   0.000000e+00   0.000000e+00   1.525130e+06   0.000000e+00   0.000000e+00   0.000000e+00
      256000   2.559990e-06   3.825640e+00   8.815923e+00   7.461446e+00   1.455328e+06  -2.395657e+05  -3.881347e+05   0.000000e+00   0.000000e+00   0.000000e+00   1.525130e+06   0.000000e+00   0.000000e+00   0.000000e+00
      264000   2.639990e-06   3.942066e+00   8.796758e+00   7.430395e+00   1.455328e+06  -2.395657e+05  -3.881347e+05   0.000000e+00   0.000000e+00   0.000000e+00   1.525130e+06   0.000000e+00   0.000000e+00   0.000000e+00
      272000   2.719990e-06   4.058492e+00   8.777592e+00   7.399345e+00   1.455328e+06  -2.395657e+05  -3.881347e+05   0.000000e+00   0.000000e+00   0.000000e+00   1.525130e+06   0.000000e+00   0.000000e+00   0.000000e+00
      280000   2.799990e-06   4.174919e+00   8.758427e+00   7.368294e+00   1.455328e+06  -2.395657e+05  -3.881347e+05   0.000000e+00   0.000000e+00   0.000000e+00   1.525130e+06   0.000000e+00   0.000000e+00   0.000000e+00
      288000   2.879990e-06   4.291345e+00   8.739262e+00   7.337243e+00   1.455328e+06  -2.395657e+05  -3.881347e+05   0.000000e+00   0.000000e+00   0.000000e+00   1.525130e+06   0.000000e+00   0.000000e+00   0.000000e+00
      296000   2.959990e-06   4.407771e+00   8.720097e+00   7.306192e+00   1.455328e+06  -2.395657e+05  -3.881347e+05   0.000000e+00   0.000000e+00   0.000000e+00   1.525130e+06   0.000000e+00   0.000000e+00   0.000000e+00
      304000   3.039990e-06   4.524197e+00   8.700931e+00   7.275142e+00   1.455328e+06  -2.395657e+05  -3.881347e+05   0.000000e+00   0.000000e+00   0.000000e+00   1.525130e+06   0.000000e+00   0.000000e+00   0.000000e+00
      312000   3.119990e-06   4.640624e+00   8.681766e+00   7.244091e+00   1.455328e+06  -2.395657e+05  -3.881347e+05   0.000000e+00   0.000000e+00   0.000000e+00   1.525130e+06   0.000000e+00   0.000000e+00   0.000000e+00
      320000   3.199990e-06   4.757050e+00   8.662601e+00   7.213040e+00   1.455328e+06  -2.395657e+05  -3.881347e+05   0.000000e+00   0.000000e+00   0.000000e+00   1.525130e+06   0.000000e+00   0.000000e+00   0.000000e+00
      328000   3.279990e-06   4.873476e+00   8.643436e+00   7.181989e+00   1.455328e+06  -2.395657e+05  -3.881347e+05   0.000000e+00   0.000000e+00   0.000000e+00   1.525130e+06   0.000000e+00   0.000000e+00   0.000000e+00
      336000   3.359990e-06   4.989902e+00   8.624270e+00   7.150939e+00   1.455328e+06  -2.395657e+05  -3.881347e+05   0.000000e+00   0.000000e+00   0.000000e+00   1.525130e+06   0.000000e+00   0.000000e+00   0.000000e+00
      344000   3.439990e-06   5.106329e+00   8.605105e+00   7.119888e+00   1.455328e+06  -2.395657e+05  -3.881347e+05   0.000000e+00   0.000000e+00   0.000000e+00   1.525130e+06   0.000000e+00   0.000000e+00   0.000000e+00
      352000   3.519990e-06   5.222755e+00   8.585940e+00   7.088837e+00   1.455328e+06  -2.395657e+05  -3.881347e+05   0.000000e+00   0.000000e+00   0.000000e+00   1.525130e+06   0.000000e+00   0.000000e+00   0.000000e+00
      360000   3.599990e-06   5.339181e+00   8.566775e+00   7.057786e+00   1.455328e+06  -2.395657e+05  -3.881347e+05   0.000000e+00   0.000000e+00   0.000000e+00   1.525130e+06   0.000000e+00   0.000000e+00   0.000000e+00
      368000   3.679990e-06   5.455607e+00   8.547609e+00   7.026735e+00   1.455328e+06  -2.395657e+05  -3.881347e+05   0.000000e+00   0.000000e+00   0.000000e+00   1.525130e+06   0.000000e+00   0.000000e+00   0.000000e+00
      376000   3.759990e-06   5.572034e+00   8.528444e+00   6.995685e+00   1.455328e+06  -2.395657e+05  -3.881347e+05   0.000000e+00   0.000000e+00   0.000000e+00   1.525130e+06   0.000000e+00   0.000000e+00   0.000000e+00
      384000   3.839990e-06   5.688460e+00   8.509279e+00   6.964634e+00   1.455328e+06  -2.395657e+05  -3.881347e+05   0.000000e+00   0.000000e+00   0.000000e+00   1.525130e+06   0.000000e+00   0.000000e+00   0.000000e+00
      392000   3.919990e-06   5.804886e+00   8.490114e+00   6.933583e+00   1.455328e+06  -2.395657e+05  -3.881347e+05   0.000000e+00   0.000000e+00   0.000000e+00   1.525130e+06   0.000000e+00   0.000000e+00   0.000000e+00
      400000   3.999990e-06   5.921312e+00   8.470948e+00   6.902532e+00   1.455328e+06  -2.395657e+05  -3.881347e+05   0.000000e+00   0.000000e+00   0.000000e+00   1.525130e+06   0.000000e+00   0.000000e+00   0.000000e+00
      408000   4.079990e-06   6.037739e+00   8.451783e+00   6.871482e+00   1.455328e+06  -2.395657e+05  -3.881347e+05   0.000000e+00   0.000000e+00   0.000000e+00   1.525130e+06   0.000000e+00   0.000000e+00   0.000000e+00
      416000   4.159990e-06   6.154165e+00   8.432618e+00   6.840431e+00   1.455328e+06  -2.395657e+05  -3.881347e+05   0.000000e+00   0.000000e+00   0.000000e+00   1.525130e+06   0.000000e+00   0.000000e+00   0.000000e+00
      424000   4.239990e-06   6.270591e+00   8.413453e+00   6.809380e+00   1.455328e+06  -2.395657e+05  -3.881347e+05   0.000000e+00   0.000000e+00   0.000000e+00   1.525130e+06   0.000000e+00   0.000000e+00   0.000000e+00
      432000   4.319990e-06   6.387017e+00   8.394287e+00   6.778329e+00   1.455328e+06  -2.395657e+05  -3.881347e+05   0.000000e+00   0.000000e+00   0.000000e+00   1.525130e+06   0.000000e+00   0.000000e+00   0.000000e+00
      440000   4.399990e-06   6.503443e+00   8.375122e+00   6.747278e+00   1.455328e+06  -2.395657e+05  -3.881347e+05   0.000000e+00   0.000000e+00   0.000000e+00   1.525130e+06   0.000000e+00   0.000000e+00   0.000000e+00
      448000   4.479990e-06   6.619870e+00   8.355957e+00   6.716228e+00   1.455328e+06  -2.395657e+05  -3.881347e+05   0.000000e+00   0.000000e+00   0.000000e+00   1.525130e+06   0.000000e+00   0.000000e+00   0.000000e+00
      456000   4.559990e-06   6.736296e+00   8.336792e+00   6.685177e+00   1.455328e+06  -2.395657e+05  -3.881347e+05   0.000000e+00   0.000000e+00   0.000000e+00   1.525130e+06   0.000000e+00   0.000000e+00   0.000000e+00
      464000   4.639990e-06   6.852722e+00   8.317626e+00   6.654126e+00   1.455328e+06  -2.395657e+05  -3.881347e+05   0.000000e+00   0.000000e+00   0.000000e+00   1.525130e+06   0.000000e+00   0.000000e+00   0.000000e+00
      472000   4.719990e-06   6.969148e+00   8.298461e+00   6.623075e+00   1.455328e+06  -2.395657e+05  -3.881347e+05   0.000000e+00   0.000000e+00   0.000000e+00   1.525130e+06   0.000000e+00   0.000000e+00   0.000000e+00
      480000   4.799990e-06   7.085575e+00   8.279296e+00   6.592025e+00   1.455328e+06  -2.395657e+05  -3.881347e+05   0.000000e+00   0.000000e+00   0.000000e+00   1.525130e+06   0.000000e+00   0.000000e+00   0.000000e+00
      488000   4.879990e-06   7.202001e+00   8.260130e+00   6.560974e+00   1.455328e+06  -2.395657e+05  -3.881347e+05   0.000000e+00   0.000000e+00   0.000000e+00   1.525130e+06   0.000000e+00   0.000000e+00   0.000000e+00
      496000   4.959990e-06   7.318427e+00   8.240965e+00   6.529923e+00   1.455328e+06  -2.395657e+05  -3.881347e+05   0.000000e+00   0.000000e+00   0.000000e+00   1.525130e+06   0.000000e+00   0.000000e+00   0.000000e+00
      504000   5.039990e-06   7.434853e+00   8.221800e+00   6.498872e+00   1.455328e+06  -2.395657e+05  -3.881347e+05   0.000000e+00   0.000000e+00   0.000000e+00   1.525130e+06   0.000000e+00   0.000000e+00   0.000000e+00
      512000   5.119990e-06   7.551280e+00   8.202635e+00   6.467822e+00   1.455328e+06  -2.395657e+05  -3.881347e+05   0.000000e+00   0.000000e+00   0.000000e+00   1.525130e+06   0.000000e+00   0.000000e+00   0.000000e+00
      520000   5.199990e-06   7.667706e+00   8.183469e+00   6.436771e+00   1.455328e+06  -2.395657e+05  -3.881347e+05   0.000000e+00   0.000000e+00   0.000000e+00   1.525130e+06   0.000000e+00   0.000000e+00   0.000000e+00
      528000   5.279990e-06   7.784132e+00   8.164304e+00   6.405720e+00   1.455328e+06  -2.395657e+05  -3.881347e+05   0.000000e+00   0.000000e+00   0.000000e+00   1.525130e+06   0.000000e+00   0.000000e+00   0.000000e+00
      536000   5.359990e-06   7.900558e+00   8.145139e+00   6.374669e+00   1.455328e+06  -2.395657e+05  -3.881347e+05   0.000000e+00   0.000000e+00   0.000000e+00   1.525130e+06   0.000000e+00   0.000000e+00   0.000000e+00
      544000   5.439990e-06   8.016985e+00   8.125974e+00   6.343618e+00   1.455328e+06  -2.395657e+05  -3.881347e+05   0.000000e+00   0.000000e+00   0.000000e+00   1.525130e+06   0.000000e+00   0.000000e+00   0.000000e+00
      552000   5.519990e-06   8.133411e+00   8.106808e+00   6.312568e+00   1.455328e+06  -2.395657e+05  -3.881347e+05   0.000000e+00   0.000000e+00   0.000000e+00   1.525130e+06   0.000000e+00   0.000000e+00   0.000000e+00
      560000   5.599990e-06   8.249837e+00   8.087643e+00   6.281517e+00   1.455328e+06  -2.395657e+05  -3.881347e+05   0.000000e+00   0.000000e+00   0.000000e+00   1.525130e+06   0.000000e+00   0.000000e+00   0.000000e+00
      568000   5.679990e-06   8.366263e+00   8.068478e+00   6.250466e+00   1.455328e+06  -2.395657e+05  -3.881347e+05   0.000000e+00   0.000000e+00   0.000000e+00   1.525130e+06   0.000000e+00   0.000000e+00   0.000000e+00
      576000   5.759990e-06   8.482690e+00   8.049313e+00   6.219415e+00   1.455328e+06  -2.395657e+05  -3.881347e+05   0.000000e+00   0.000000e+00   0.000000e+00   1.525130e+06   0.000000e+00   0.000000e+00   0.000000e+00
      584000   5.839990e-06   8.599116e+00   8.030147e+00   6.188365e+00   1.455328e+06  -2.395657e+05  -3.881347e+05   0.000000e+00   0.000000e+00   0.000000e+00   1.525130e+06   0.000000e+00   0.000000e+00   0.000000e+00
      592000   5.919990e-06   8.715542e+00   8.010982e+00   6.157314e+00   1.455328e+06  -2.395657e+05  -3.881347e+05   0.000000e+00   0.000000e+00   0.000000e+00   1.525130e+06   0.000000e+00   0.000000e+00   0.000000e+00
      600000   5.999990e-06   8.831968e+00   7.991817e+00   6.126263e+00   1.455328e+06  -2.395657e+05  -3.881347e+05   0.000000e+00   0.000000e+00   0.000000e+00   1.525130e+06   0.000000e+00   0.000000e+00   0.000000e+00
      608000   6.079990e-06   8.948395e+00   7.972652e+00   6.095212e+00   1.455328e+06  -2.395657e+05  -3.881347e+05   0.000000e+00   0.000000e+00   0.000000e+00   1.525130e+06   0.000000e+00   0.000000e+00   0.000000e+00
      616000   6.159990e-06   9.064821e+00   7.953486e+00   6.064161e+00   1.455328e+06  -2.395657e+05  -3.881347e+05   0.000000e+00   0.000000e+00   0.000000e+00   1.525130e+06   0.000000e+00   0.000000e+00   0.000000e+00
      624000   6.239990e-06   9.181247e+00   7.934321e+00   6.033111e+00   1.455328e+06  -2.395657e+05  -3.881347e+05   0.000000e+00   0.000000e+00   0.000000e+00   1.525130e+06   0.000000e+00   0.000000e+00   0.000000e+00
      632000   6.319990e-06   9.297673e+00   7.915156e+00   6.002060e+00   1.455328e+06  -2.395657e+05  -3.881347e+05   0.000000e+00   0.000000e+00   0.000000e+00   1.525130e+06   0.000000e+00   0.000000e+00   0.000000e+00
      640000   6.399990e-06   9.414100e+00   7.895991e+00   5.971009e+00   1.455328e+06  -2.395657e+05  -3.881347e+05   0.000000e+00   0.000000e+00   0.000000e+00   1.525130e+06   0.000000e+00   0.000000e+00   0.000000e+00
      648000   6.479990e-06   9.530526e+00   7.876825e+00   5.939958e+00   1.455328e+06  -2.395657e+05  -3.881347e+05   0.000000e+00   0.000000e+00   0.000000e+00   1.525130e+06   0.000000e+00   0.000000e+00   0.000000e+00
      656000   6.559990e-06   9.646952e+00   7.857660e+00   5.908908e+00   1.455328e+06  -2.395657e+05  -3.881347e+05   0.000000e+00   0.000000e+00   0.000000e+00   1.525130e+06   0.000000e+00   0.000000e+00   0.000000e+00
      664000   6.639990e-06   9.763378e+00   7.838495e+00   5.877857e+00   1.455328e+06  -2.395657e+05  -3.881347e+05   0.000000e+00   0.000000e+00   0.000000e+00   1.525130e+06   0.000000e+00   0.000000e+00   0.000000e+00
      672000   6.719990e-06   9.879805e+00   7.819330e+00   5.846806e+00   1.455328e+06  -2.395657e+05  -3.881347e+05   0.000000e+00   0.000000e+00   0.000000e+00   1.525130e+06   0.000000e+00   0.000000e+00   0.000000e+00
      680000   6.799990e-06   9.996231e+00   7.800164e+00   5.815755e+00   1.455328e+06  -2.395657e+05  -3.881347e+05   0.000000e+00   0.000000e+00   0.000000e+00   1.525130e+06   0.000000e+00   0.000000e+00   0.000000e+00
      688000   6.879990e-06   1.011266e+01   7.780999e+00   5.784705e+00   1.455328e+06  -2.395657e+05  -3.881347e+05   0.000000e+00   0.000000e+00   0.000000e+00   1.525130e+06   0.000000e+00   0.000000e+00   0.000000e+00
      696000   6.959990e-06   1.022908e+01   7.761834e+00   5.753654e+00   1.455328e+06  -2.395657e+05  -3.881347e+05   0.000000e+00   0.000000e+00   0.000000e+00   1.525130e+06   0.000000e+00   0.000000e+00   0.000000e+00
      704000   7.039990e-06   1.034551e+01   7.742669e+00   5.722603e+00   1.455328e+06  -2.395657e+05  -3.881347e+05   0.000000e+00   0.000000e+00   0.000000e+00   1.525130e+06   0.000000e+00   0.000000e+00   0.000000e+00
      712000   7.119990e-06   1.046194e+01   7.723503e+00   5.691552e+00   1.455328e+06  -2.395657e+05  -3.881347e+05   0.000000e+00   0.000000e+00   0.000000e+00   1.525130e+06   0.000000e+00   0.000000e+00   0.000000e+00
      720000   7.199990e-06   1.057836e+01   7.704338e+00   5.660501e+00   1.455328e+06  -2.395657e+05  -3.881347e+05   0.000000e+00   0.000000e+00   0.000000e+00   1.525130e+06   0.000000e+00   0.000000e+00   0.000000e+00
      728000   7.279990e-06   1.069479e+01   7.685173e+00   5.629451e+00   1.455328e+06  -2.395657e+05  -3.881347e+05   0.000000e+00   0.000000e+00   0.000000e+00   1.525130e+06   0.000000e+00   0.000000e+00   0.000000e+00
      736000   7.359990e-06   1.081121e+01   7.666008e+00   5.598400e+00   1.455328e+06  -2.395657e+05  -3.881347e+05   0.000000e+00   0.000000e+00   0.000000e+00   1.525130e+06   0.000000e+00   0.000000e+00   0.000000e+00
      744000   7.439990e-06   1.092764e+01   7.646842e+00   5.567349e+00   1.455328e+06  -2.395657e+05  -3.881347e+05   0.000000e+00   0.000000e+00   0.000000e+00   1.525130e+06   0.000000e+00   0.000000e+00   0.000000e+00
      752000   7.519990e-06   1.104407e+01   7.627677e+00   5.536298e+00   1.455328e+06  -2.395657e+05  -3.881347e+05   0.000000e+00   0.000000e+00   0.000000e+00   1.525130e+06   0.000000e+00   0.000000e+00   0.000000e+00
      760000   7.599990e-06   1.116049e+01   7.608512e+00   5.505248e+00   1.455328e+06  -2.395657e+05  -3.881347e+05   0.000000e+00   0.000000e+00   0.000000e+00   1.525130e+06   0.000000e+00   0.000000e+00   0.000000e+00
      768000   7.679990e-06   1.127692e+01   7.589347e+00   5.474197e+00   1.455328e+06  -2.395657e+05  -3.881347e+05   0.000000e+00   0.000000e+00   0.000000e+00   1.525130e+06   0.000000e+00   0.000000e+00   0.000000e+00
      776000   7.759990e-06   1.139335e+01   7.570181e+00   5.443146e+00   1.455328e+06  -2.395657e+05  -3.881347e+05   0.000000e+00   0.000000e+00   0.000000e+00   1.525130e+06   0.000000e+00   0.000000e+00   0.000000e+00
      784000   7.839990e-06   1.150977e+01   7.551016e+00   5.412095e+00   1.455328e+06  -2.395657e+05  -3.881347e+05   0.000000e+00   0.000000e+00   0.000000e+00   1.525130e+06   0.000000e+00   0.000000e+00   0.000000e+00
      792000   7.919990e-06   1.162620e+01   7.531851e+00   5.381044e+00   1.455328e+06  -2.395657e+05  -3.881347e+05   0.000000e+00   0.000000e+00   0.000000e+00   1.525130e+06   0.000000e+00   0.000000e+00   0.000000e+00
      800000   7.999990e-06   1.174262e+01   7.512686e+00   5.349994e+00   1.455328e+06  -2.395657e+05  -3.881347e+05   0.000000e+00   0.000000e+00   0.000000e+00   1.525130e+06   0.000000e+00   0.000000e+00   0.000000e+00
      808000   8.079990e-06   1.185905e+01   7.493520e+00   5.318943e+00   1.455328e+06  -2.395657e+05  -3.881347e+05   0.000000e+00   0.000000e+00   0.000000e+00   1.525130e+06   0.000000e+00   0.000000e+00   0.000000e+00
      816000   8.159990e-06   1.197548e+01   7.474355e+00   5.287892e+00   1.455328e+06  -2.395657e+05  -3.881347e+05   0.000000e+00   0.000000e+00   0.000000e+00   1.525130e+06   0.000000e+00   0.000000e+00   0.000000e+00
      824000   8.239990e-06   1.209190e+01   7.455190e+00   5.256841e+00   1.455328e+06  -2.395657e+05  -3.881347e+05   0.000000e+00   0.000000e+00   0.000000e+00   1.525130e+06   0.000000e+00   0.000000e+00   0.000000e+00
      832000   8.319990e-06   1.220833e+01   7.436025e+00   5.225791e+00   1.455328e+06  -2.395657e+05  -3.881347e+05   0.000000e+00   0.000000e+00   0.000000e+00   1.525130e+06   0.000000e+00   0.000000e+00   0.000000e+00
      840000   8.399990e-06   1.232476e+01   7.416859e+00   5.194740e+00   1.455328e+06  -2.395657e+05  -3.881347e+05   0.000000e+00   0.000000e+00   0.000000e+00   1.525130e+06   0.000000e+00   0.000000e+00   0.000000e+00
      848000   8.479990e-06   1.244118e+01   7.397694e+00   5.163689e+00   1.455328e+06  -2.395657e+05  -3.881347e+05   0.000000e+00   0.000000e+00   0.000000e+00   1.525130e+06   0.000000e+00   0.000000e+00   0.000000e+00
      856000   8.559990e-06   1.255761e+01   7.378529e+00   5.132638e+00   1.455328e+06  -2.395657e+05  -3.881347e+05   0.000000e+00   0.000000e+00   0.000000e+00   1.525130e+06   0.000000e+00   0.000000e+00   0.000000e+00
      864000   8.639990e-06   1.267403e+01   7.359364e+00   5.101588e+00   1.455328e+06  -2.395657e+05  -3.881347e+05   0.000000e+00   0.000000e+00   0.000000e+00   1.525130e+06   0.000000e+00   0.000000e+00   0.000000e+00
      872000   8.719990e-06   1.279046e+01   7.340198e+00   5.070537e+00   1.455328e+06  -2.395657e+05  -3.881347e+05   0.000000e+00   0.000000e+00   0.000000e+00   1.525130e+06   0.000000e+00   0.000000e+00   0.000000e+00
      880000   8.799990e-06   1.290689e+01   7.321033e+00   5.039486e+00   1.455328e+06  -2.395657e+05  -3.881347e+05   0.000000e+00   0.000000e+00   0.000000e+00   1.525130e+06   0.000000e+00   0.000000e+00   0.000000e+00
      888000   8.879990e-06   1.302331e+01   7.301868e+00   5.008435e+00   1.455328e+06  -2.395657e+05  -3.881347e+05   0.000000e+00   0.000000e+00   0.000000e+00   1.525130e+06   0.000000e+00   0.000000e+00   0.000000e+00
      896000   8.959990e-06   1.313974e+01   7.282703e+00   4.977384e+00   1.455328e+06  -2.395657e+05  -3.881347e+05   0.000000e+00   0.000000e+00   0.000000e+00   1.525130e+06   0.000000e+00   0.000000e+00   0.000000e+00
      904000   9.039990e-06   1.325617e+01   7.263537e+00   4.946334e+00   1.455328e+06  -2.395657e+05  -3.881347e+05   0.000000e+00   0.000000e+00   0.000000e+00   1.525130e+06   0.000000e+00   0.000000e+00   0.000000e+00
      912000   9.119990e-06   1.337259e+01   7.244372e+00   4.915283e+00   1.455328e+06  -2.395657e+05  -3.881347e+05   0.000000e+00   0.000000e+00   0.000000e+00   1.525130e+06   0.000000e+00   0.000000e+00   0.000000e+00
      920000   9.199990e-06   1.348902e+01   7.225207e+00   4.884232e+00   1.455328e+06  -2.395657e+05  -3.881347e+05   0.000000e+00   0.000000e+00   0.000000e+00   1.525130e+06   0.000000e+00   0.000000e+00   0.000000e+00
      928000   9.279990e-06   1.360544e+01   7.206042e+00   4.853181e+00   1.455328e+06  -2.395657e+05  -3.881347e+05   0.000000e+00   0.000000e+00   0.000000e+00   1.525130e+06   0.000000e+00   0.000000e+00   0.000000e+00
      936000   9.359990e-06   1.372187e+01   7.186876e+00   4.822131e+00   1.455328e+06  -2.395657e+05  -3.881347e+05   0.000000e+00   0.000000e+00   0.000000e+00   1.525130e+06   0.000000e+00   0.000000e+00   0.000000e+00
      944000   9.439990e-06   1.383830e+01   7.167711e+00   4.791080e+00   1.455328e+06  -2.395657e+05  -3.881347e+05   0.000000e+00   0.000000e+00   0.000000e+00   1.525130e+06   0.000000e+00   0.000000e+00   0.000000e+00
      952000   9.519990e-06   1.395472e+01   7.148546e+00   4.760029e+00   1.455328e+06  -2.395657e+05  -3.881347e+05   0.000000e+00   0.000000e+00   0.000000e+00   1.525130e+06   0.000000e+00   0.000000e+00   0.000000e+00
      960000   9.599990e-06   1.407115e+01   7.129381e+00   4.728978e+00   1.455328e+06  -2.395657e+05  -3.881347e+05   0.000000e+00   0.000000e+00   0.000000e+00   1.525130e+06   0.000000e+00   0.000000e+00   0.000000e+00
      968000   9.679990e-06   1.418758e+01   7.110215e+00   4.697927e+00   1.455328e+06  -2.395657e+05  -3.881347e+05   0.000000e+00   0.000000e+00   0.000000e+00   1.525130e+06   0.000000e+00   0.000000e+00   0.000000e+00
      976000   9.759990e-06   1.430400e+01   7.091050e+00   4.666877e+00   1.455328e+06  -2.395657e+05  -3.881347e+05   0.000000e+00   0.000000e+00   0.000000e+00   1.525130e+06   0.000000e+00   0.000000e+00   0.000000e+00
      984000   9.839990e-06   1.442043e+01   7.071885e+00   4.635826e+00   1.455328e+06  -2.395657e+05  -3.881347e+05   0.000000e+00   0.000000e+00   0.000000e+00   1.525130e+06   0.000000e+00   0.000000e+00   0.000000e+00
      992000   9.919990e-06   1.453685e+01   7.052719e+00   4.604775e+00   1.455328e+06  -2.395657e+05  -3.881347e+05   0.000000e+00   0.000000e+00   0.000000e+00   1.525130e+06   0.000000e+00   0.000000e+00   0.000000e+00
     1000000   9.999990e-06   1.465328e+01   7.033554e+00   4.573724e+00   1.455328e+06  -2.395657e+05  -3.881347e+05   0.000000e+00   0.000000e+00   0.000000e+00   1.525130e+06   0.000000e+00   0.000000e+00   0.000000e+00
     1008000   1.007999e-05   1.476971e+01   7.014389e+00   4.542674e+00   1.455328e+06  -2.395657e+05  -3.881347e+05   0.000000e+00   0.000000e+00   0.000000e+00   1.525130e+06   0.000000e+00   0.000000e+00   0.000000e+00
     1016000   1.015999e-05   1.488613e+01   6.995224e+00   4.511623e+00   1.455328e+06  -2.395657e+05  -3.881347e+05   0.000000e+00   0.000000e+00   0.000000e+00   1.525130e+06   0.000000e+00   0.000000e+00   0.000000e+00
     1024000   1.023999e-05   1.500256e+01   6.976058e+00   4.480572e+00   1.455328e+06  -2.395657e+05  -3.881347e+05   0.000000e+00   0.000000e+00   0.000000e+00   1.525130e+06   0.000000e+00   0.000000e+00   0.000000e+00
     1032000   1.031999e-05   1.511899e+01   6.956893e+00   4.449521e+00   1.455328e+06  -2.395657e+05  -3.881347e+05   0.000000e+00   0.000000e+00   0.000000e+00   1.525130e+06   0.000000e+00   0.000000e+00   0.000000e+00
     1040000   1.039999e-05   1.523541e+01   6.937728e+00   4.418471e+00   1.455328e+06  -2.395657e+05  -3.881347e+05   0.000000e+00   0.000000e+00   0.000000e+00   1.525130e+06   0.000000e+00   0.000000e+00   0.000000e+00
     1048000   1.047999e-05   1.535184e+01   6.918563e+00   4.387420e+00   1.455328e+06  -2.395657e+05  -3.881347e+05   0.000000e+00   0.000000e+00   0.000000e+00   1.525130e+06   0.000000e+00   0.000000e+00   0.000000e+00
     1056000   1.055999e-05   1.546826e+01   6.899397e+00   4.356369e+00   1.455328e+06  -2.395657e+05  -3.881347e+05   0.000000e+00   0.000000e+00   0.000000e+00   1.525130e+06   0.000000e+00   0.000000e+00   0.000000e+00
     1064000   1.063999e-05   1.558469e+01   6.880232e+00   4.325318e+00   1.455328e+06  -2.395657e+05  -3.881347e+05   0.000000e+00   0.000000e+00   0.000000e+00   1.525130e+06   0.000000e+00   0.000000e+00   0.000000e+00
     1072000   1.071999e-05   1.570112e+01   6.861067e+00   4.294267e+00   1.455328e+06  -2.395657e+05  -3.881347e+05   0.000000e+00   0.000000e+00   0.000000e+00   1.525130e+06   0.000000e+00   0.000000e+00   0.000000e+00
     1080000   1.079999e-05   1.581754e+01   6.841902e+00   4.263217e+00   1.455328e+06  -2.395657e+05  -3.881347e+05   0.000000e+00   0.000000e+00   0.000000e+00   1.525130e+06   0.000000e+00   0.000000e+00   0.000000e+00
     1088000   1.087999e-05   1.593397e+01   6.822736e+00   4.232166e+00   1.455328e+06  -2.395657e+05  -3.881347e+05   0.000000e+00   0.000000e+00   0.000000e+00   1.525130e+06   0.000000e+00   0.000000e+00   0.000000e+00
     1096000   1.095999e-05   1.605040e+01   6.803571e+00   4.201115e+00   1.455328e+06  -2.395657e+05  -3.881347e+05   0.000000e+00   0.000000e+00   0.000000e+00   1.525130e+06   0.000000e+00   0.000000e+00   0.000000e+00
     1104000   1.103999e-05   1.616682e+01   6.784406e+00   4.170064e+00   1.455328e+06  -2.395657e+05  -3.881347e+05   0.000000e+00   0.000000e+00   0.000000e+00   1.525130e+06   0.000000e+00   0.000000e+00   0.000000e+00
     1112000   1.111999e-05   1.628325e+01   6.765241e+00   4.139014e+00   1.455328e+06  -2.395657e+05  -3.881347e+05   0.000000e+00   0.000000e+00   0.000000e+00   1.525130e+06   0.000000e+00   0.000000e+00   0.000000e+00
     1120000   1.119999e-05   1.639967e+01   6.746075e+00   4.107963e+00   1.455328e+06  -2.395657e+05  -3.881347e+05   0.000000e+00   0.000000e+00   0.000000e+00   1.525130e+06   0.000000e+00   0.000000e+00   0.000000e+00
     1128000   1.127999e-05   1.651610e+01   6.726910e+00   4.076912e+00   1.455328e+06  -2.395657e+05  -3.881347e+05   0.000000e+00   0.000000e+00   0.000000e+00   1.525130e+06   0.000000e+00   0.000000e+00   0.000000e+00
     1136000   1.135999e-05   1.663253e+01   6.707745e+00   4.045861e+00   1.455328e+06  -2.395657e+05  -3.881347e+05   0.000000e+00   0.000000e+00   0.000000e+00   1.525130e+06   0.000000e+00   0.000000e+00   0.000000e+00
     1144000   1.143999e-05   1.674895e+01   6.688580e+00   4.014810e+00   1.455328e+06  -2.395657e+05  -3.881347e+05   0.000000e+00   0.000000e+00   0.000000e+00   1.525130e+06   0.000000e+00   0.000000e+00   0.000000e+00
     1152000   1.151999e-05   1.686538e+01   6.669414e+00   3.983760e+00   1.455328e+06  -2.395657e+05  -3.881347e+05   0.000000e+00   0.000000e+00   0.000000e+00   1.525130e+06   0.000000e+00   0.000000e+00   0.000000e+00
     1160000   1.159999e-05   1.698181e+01   6.650249e+00   3.952709e+00   1.455328e+06  -2.395657e+05  -3.881347e+05   0.000000e+00   0.000000e+00   0.000000e+00   1.525130e+06   0.000000e+00   0.000000e+00   0.000000e+00
     1168000   1.167999e-05   1.709823e+01   6.631084e+00   3.921658e+00   1.455328e+06  -2.395657e+05  -3.881347e+05   0.000000e+00   0.000000e+00   0.000000e+00   1.525130e+06   0.000000e+00   0.000000e+00   0.000000e+00
     1176000   1.175999e-05   1.721466e+01   6.611919e+00   3.890607e+00   1.455328e+06  -2.395657e+05  -3.881347e+05   0.000000e+00   0.000000e+00   0.000000e+00   1.525130e+06   0.000000e+00   0.000000e+00   0.000000e+00
     1184000   1.183999e-05   1.733108e+01   6.592753e+00   3.859557e+00   1.455328e+06  -2.395657e+05  -3.881347e+05   0.000000e+00   0.000000e+00   0.000000e+00   1.525130e+06   0.000000e+00   0.000000e+00   0.000000e+00
     1192000   1.191999e-05   1.744751e+01   6.573588e+00   3.828506e+00   1.455328e+06  -2.395657e+05  -3.881347e+05   0.000000e+00   0.000000e+00   0.000000e+00   1.525130e+06   0.000000e+00   0.000000e+00   0.000000e+00
     1200000   1.199999e-05   1.756394e+01   6.554423e+00   3.797455e+00   1.455328e+06  -2.395657e+05  -3.881347e+05   0.000000e+00   0.000000e+00   0.000000e+00   1.525130e+06   0.000000e+00   0.000000e+00   0.000000e+00
     1208000   1.207999e-05   1.768036e+01   6.535258e+00   3.766404e+00   1.455328e+06  -2.395657e+05  -3.881347e+05   0.000000e+00   0.000000e+00   0.000000e+00   1.525130e+06   0.000000e+00   0.000000e+00   0.000000e+00
     1216000   1.215999e-05   1.779679e+01   6.516092e+00   3.735354e+00   1.455328e+06  -2.395657e+05  -3.881347e+05   0.000000e+00   0.000000e+00   0.000000e+00   1.525130e+06   0.000000e+00   0.000000e+00   0.000000e+00
     1224000   1.223999e-05   1.791322e+01   6.496927e+00   3.704303e+00   1.455328e+06  -2.395657e+05  -3.881347e+05   0.000000e+00   0.000000e+00   0.000000e+00   1.525130e+06   0.000000e+00   0.000000e+00   0.000000e+00
     1232000   1.231999e-05   1.802964e+01   6.477762e+00   3.673252e+00   1.455328e+06  -2.395657e+05  -3.881347e+05   0.000000e+00   0.000000e+00   0.000000e+00   1.525130e+06   0.000000e+00   0.000000e+00   0.000000e+00
     1240000   1.239999e-05   1.814607e+01   6.458597e+00   3.642201e+00   1.455328e+06  -2.395657e+05  -3.881347e+05   0.000000e+00   0.000000e+00   0.000000e+00   1.525130e+06   0.000000e+00   0.000000e+00   0.000000e+00
     1248000   1.247999e-05   1.826249e+01   6.439431e+00   3.611150e+00   1.455328e+06  -2.395657e+05  -3.881347e+05   0.000000e+00   0.000000e+00   0.000000e+00   1.525130e+06   0.000000e+00   0.000000e+00   0.000000e+00
     1256000   1.255999e-05   1.837892e+01   6.420266e+00   3.580100e+00   1.455328e+06  -2.395657e+05  -3.881347e+05   0.000000e+00   0.000000e+00   0.000000e+00   1.525130e+06   0.000000e+00   0.000000e+00   0.000000e+00
     1264000   1.263999e-05   1.849535e+01   6.401101e+00   3.549049e+00   1.455328e+06  -2.395657e+05  -3.881347e+05   0.000000e+00   0.000000e+00   0.000000e+00   1.525130e+06   0.000000e+00   0.000000e+00   0.000000e+00
     1272000   1.271999e-05   1.861177e+01   6.381936e+00   3.517998e+00   1.455328e+06  -2.395657e+05  -3.881347e+05   0.000000e+00   0.000000e+00   0.000000e+00   1.525130e+06   0.000000e+00   0.000000e+00   0.000000e+00
     1280000   1.279999e-05   1.872820e+01   6.362770e+00   3.486947e+00   1.455328e+06  -2.395657e+05  -3.881347e+05   0.000000e+00   0.000000e+00   0.000000e+00   1.525130e+06   0.000000e+00   0.000000e+00   0.000000e+00
     1288000   1.287999e-05   1.884463e+01   6.343605e+00   3.455897e+00   1.455328e+06  -2.395657e+05  -3.881347e+05   0.000000e+00   0.000000e+00   0.000000e+00   1.525130e+06   0.000000e+00   0.000000e+00   0.000000e+00
     1296000   1.295999e-05   1.896105e+01   6.324440e+00   3.424846e+00   1.455328e+06  -2.395657e+05  -3.881347e+05   0.000000e+00   0.000000e+00   0.000000e+00   1.525130e+06   0.000000e+00   0.000000e+00   0.000000e+00
     1304000   1.303999e-05   1.907748e+01   6.305275e+00   3.393795e+00   1.455328e+06  -2.395657e+05  -3.881347e+05   0.000000e+00   0.000000e+00   0.000000e+00   1.525130e+06   0.000000e+00   0.000000e+00   0.000000e+00
     1312000   1.311999e-05   1.919390e+01   6.286109e+00   3.362744e+00   1.455328e+06  -2.395657e+05  -3.881347e+05   0.000000e+00   0.000000e+00   0.000000e+00   1.525130e+06   0.000000e+00   0.000000e+00   0.000000e+00
     1320000   1.319999e-05   1.931033e+01   6.266944e+00   3.331693e+00   1.455328e+06  -2.395657e+05  -3.881347e+05   0.000000e+00   0.000000e+00   0.000000e+00   1.525130e+06   0.000000e+00   0.000000e+00   0.000000e+00
     1328000   1.327999e-05   1.942676e+01   6.247779e+00   3.300643e+00   1.455328e+06  -2.395657e+05  -3.881347e+05   0.000000e+00   0.000000e+00   0.000000e+00   1.525130e+06   0.000000e+00   0.000000e+00   0.000000e+00
     1336000   1.335999e-05   1.954318e+01   6.228614e+00   3.269592e+00   1.455328e+06  -2.395657e+05  -3.881347e+05   0.000000e+00   0.000000e+00   0.000000e+00   1.525130e+06   0.000000e+00   0.000000e+00   0.000000e+00
     1344000   1.343999e-05   1.965961e+01   6.209448e+00   3.238541e+00   1.455328e+06  -2.395657e+05  -3.881347e+05   0.000000e+00   0.000000e+00   0.000000e+00   1.525130e+06   0.000000e+00   0.000000e+00   0.000000e+00
     1352000   1.351999e-05   1.977604e+01   6.190283e+00   3.207490e+00   1.455328e+06  -2.395657e+05  -3.881347e+05   0.000000e+00   0.000000e+00   0.000000e+00   1.525130e+06   0.000000e+00   0.000000e+00   0.000000e+00
     1360000   1.359999e-05   1.989246e+01   6.171118e+00   3.176440e+00   1.455328e+06  -2.395657e+05  -3.881347e+05   0.000000e+00   0.000000e+00   0.000000e+00   1.525130e+06   0.000000e+00   0.000000e+00   0.000000e+00
     1368000   1.367999e-05   2.000889e+01   6.151953e+00   3.145389e+00   1.455328e+06  -2.395657e+05  -3.881347e+05   0.000000e+00   0.000000e+00   0.000000e+00   1.525130e+06   0.000000e+00   0.000000e+00   0.000000e+00
     1376000   1.375999e-05   2.012531e+01   6.132787e+00   3.114338e+00   1.455328e+06  -2.395657e+05  -3.881347e+05   0.000000e+00   0.000000e+00   0.000000e+00   1.525130e+06   0.000000e+00   0.000000e+00   0.000000e+00
     1384000   1.383999e-05   2.024174e+01   6.113622e+00   3.083287e+00   1.455328e+06  -2.395657e+05  -3.881347e+05   0.000000e+00   0.000000e+00   0.000000e+00   1.525130e+06   0.000000e+00   0.000000e+00   0.000000e+00
     1392000   1.391999e-05   2.035817e+01   6.094457e+00   3.052237e+00   1.455328e+06  -2.395657e+05  -3.881347e+05   0.000000e+00   0.000000e+00   0.000000e+00   1.525130e+06   0.000000e+00   0.000000e+00   0.000000e+00
     1400000   1.399999e-05   2.047459e+01   6.075292e+00   3.021186e+00   1.455328e+06  -2.395657e+05  -3.881347e+05   0.000000e+00   0.000000e+00   0.000000e+00   1.525130e+06   0.000000e+00   0.000000e+00   0.000000e+00
     1408000   1.407999e-05   2.059102e+01   6.056126e+00   2.990135e+00   1.455328e+06  -2.395657e+05  -3.881347e+05   0.000000e+00   0.000000e+00   0.000000e+00   1.525130e+06   0.000000e+00   0.000000e+00   0.000000e+00
     1416000   1.415999e-05   2.070745e+01   6.036961e+00   2.959084e+00   1.455328e+06  -2.395657e+05  -3.881347e+05   0.000000e+00   0.000000e+00   0.000000e+00   1.525130e+06   0.000000e+00   0.000000e+00   0.000000e+00
     1424000   1.423999e-05   2.082387e+01   6.017796e+00   2.928033e+00   1.455328e+06  -2.395657e+05  -3.881347e+05   0.000000e+00   0.000000e+00   0.000000e+00   1.525130e+06   0.000000e+00   0.000000e+00   0.000000e+00
     1432000   1.431999e-05   2.094030e+01   5.998631e+00   2.896983e+00   1.455328e+06  -2.395657e+05  -3.881347e+05   0.000000e+00   0.000000e+00   0.000000e+00   1.525130e+06   0.000000e+00   0.000000e+00   0.000000e+00
     1440000   1.439999e-05   2.105672e+01   5.979465e+00   2.865932e+00   1.455328e+06  -2.395657e+05  -3.881347e+05   0.000000e+00   0.000000e+00   0.000000e+00   1.525130e+06   0.000000e+00   0.000000e+00   0.000000e+00
     1448000   1.447999e-05   2.117315e+01   5.960300e+00   2.834881e+00   1.455328e+06  -2.395657e+05  -3.881347e+05   0.000000e+00   0.000000e+00   0.000000e+00   1.525130e+06   0.000000e+00   0.000000e+00   0.000000e+00
     1456000   1.455999e-05   2.128958e+01   5.941135e+00   2.803830e+00   1.455328e+06  -2.395657e+05  -3.881347e+05   0.000000e+00   0.000000e+00   0.000000e+00   1.525130e+06   0.000000e+00   0.000000e+00   0.000000e+00
     1464000   1.463999e-05   2.140600e+01   5.921969e+00   2.772780e+00   1.455328e+06  -2.395657e+05  -3.881347e+05   0.000000e+00   0.000000e+00   0.000000e+00   1.525130e+06   0.000000e+00   0.000000e+00   0.000000e+00
     1472000   1.471999e-05   2.152243e+01   5.902804e+00   2.741729e+00   1.455328e+06  -2.395657e+05  -3.881347e+05   0.000000e+00   0.000000e+00   0.000000e+00   1.525130e+06   0.000000e+00   0.000000e+00   0.000000e+00
     1480000   1.479999e-05   2.163886e+01   5.883639e+00   2.710678e+00   1.455328e+06  -2.395657e+05  -3.881347e+05   0.000000e+00   0.000000e+00   0.000000e+00   1.525130e+06   0.000000e+00   0.000000e+00   0.000000e+00
     1488000   1.487999e-05   2.175528e+01   5.864474e+00   2.679627e+00   1.455328e+06  -2.395657e+05  -3.881347e+05   0.000000e+00   0.000000e+00   0.000000e+00   1.525130e+06   0.000000e+00   0.000000e+00   0.000000e+00
     1496000   1.495999e-05   2.187171e+01   5.845308e+00   2.648576e+00   1.455328e+06  -2.395657e+05  -3.881347e+05   0.000000e+00   0.000000e+00   0.000000e+00   1.525130e+06   0.000000e+00   0.000000e+00   0.000000e+00
     1504000   1.503999e-05   2.198813e+01   5.826143e+00   2.617526e+00   1.455328e+06  -2.395657e+05  -3.881347e+05   0.000000e+00   0.000000e+00   0.000000e+00   1.525130e+06   0.000000e+00   0.000000e+00   0.000000e+00
     1512000   1.511999e-05   2.210456e+01   5.806978e+00   2.586475e+00   1.455328e+06  -2.395657e+05  -3.881347e+05   0.000000e+00   0.000000e+00   0.000000e+00   1.525130e+06   0.000000e+00   0.000000e+00   0.000000e+00
     1520000   1.519999e-05   2.222099e+01   5.787813e+00   2.555424e+00   1.455328e+06  -2.395657e+05  -3.881347e+05   0.000000e+00   0.000000e+00   0.000000e+00   1.525130e+06   0.000000e+00   0.000000e+00   0.000000e+00
     1528000   1.527999e-05   2.233741e+01   5.768647e+00   2.524373e+00   1.455328e+06  -2.395657e+05  -3.881347e+05   0.000000e+00   0.000000e+00   0.000000e+00   1.525130e+06   0.000000e+00   0.000000e+00   0.000000e+00
     1536000   1.535999e-05   2.245384e+01   5.749482e+00   2.493323e+00   1.455328e+06  -2.395657e+05  -3.881347e+05   0.000000e+00   0.000000e+00   0.000000e+00   1.525130e+06   0.000000e+00   0.000000e+00   0.000000e+00
     1544000   1.543999e-05   2.257027e+01   5.730317e+00   2.462272e+00   1.455328e+06  -2.395657e+05  -3.881347e+05   0.000000e+00   0.000000e+00   0.000000e+00   1.525130e+06   0.000000e+00   0.000000e+00   0.000000e+00
     1552000   1.551999e-05   2.268669e+01   5.711152e+00   2.431221e+00   1.455328e+06  -2.395657e+05  -3.881347e+05   0.000000e+00   0.000000e+00   0.000000e+00   1.525130e+06   0.000000e+00   0.000000e+00   0.000000e+00
     1560000   1.559999e-05   2.280312e+01   5.691986e+00   2.400170e+00   1.455328e+06  -2.395657e+05  -3.881347e+05   0.000000e+00   0.000000e+00   0.000000e+00   1.525130e+06   0.000000e+00   0.000000e+00   0.000000e+00
     1568000   1.567999e-05   2.291954e+01   5.672821e+00   2.369120e+00   1.455328e+06  -2.395657e+05  -3.881347e+05   0.000000e+00   0.000000e+00   0.000000e+00   1.525130e+06   0.000000e+00   0.000000e+00   0.000000e+00
     1576000   1.575999e-05   2.303597e+01   5.653656e+00   2.338069e+00   1.455328e+06  -2.395657e+05  -3.881347e+05   0.000000e+00   0.000000e+00   0.000000e+00   1.525130e+06   0.000000e+00   0.000000e+00   0.000000e+00
     1584000   1.583999e-05   2.315240e+01   5.634491e+00   2.307018e+00   1.455328e+06  -2.395657e+05  -3.881347e+05   0.000000e+00   0.000000e+00   0.000000e+00   1.525130e+06   0.000000e+00   0.000000e+00   0.000000e+00
     1592000   1.591999e-05   2.326882e+01   5.615325e+00   2.275967e+00   1.455328e+06  -2.395657e+05  -3.881347e+05   0.000000e+00   0.000000e+00   0.000000e+00   1.525130e+06   0.000000e+00   0.000000e+00   0.000000e+00
     1600000   1.599999e-05   2.338525e+01   5.596160e+00   2.244916e+00   1.455328e+06  -2.395657e+05  -3.881347e+05   0.000000e+00   0.000000e+00   0.000000e+00   1.525130e+06   0.000000e+00   0.000000e+00   0.000000e+00
     1608000   1.607999e-05   2.350168e+01   5.576995e+00   2.213866e+00   1.455328e+06  -2.395657e+05  -3.881347e+05   0.000000e+00   0.000000e+00   0.000000e+00   1.525130e+06   0.000000e+00   0.000000e+00   0.000000e+00
     1616000   1.615999e-05   2.361810e+01   5.557830e+00   2.182815e+00   1.455328e+06  -2.395657e+05  -3.881347e+05   0.000000e+00   0.000000e+00   0.000000e+00   1.525130e+06   0.000000e+00   0.000000e+00   0.000000e+00
     1624000   1.623999e-05   2.373453e+01   5.538664e+00   2.151764e+00   1.455328e+06  -2.395657e+05  -3.881347e+05   0.000000e+00   0.000000e+00   0.000000e+00   1.525130e+06   0.000000e+00   0.000000e+00   0.000000e+00
     1632000   1.631999e-05   2.385095e+01   5.519499e+00   2.120713e+00   1.455328e+06  -2.395657e+05  -3.881347e+05   0.000000e+00   0.000000e+00   0.000000e+00   1.525130e+06   0.000000e+00   0.000000e+00   0.000000e+00
     1640000   1.639999e-05   2.396738e+01   5.500334e+00   2.089663e+00   1.455328e+06  -2.395657e+05  -3.881347e+05   0.000000e+00   0.000000e+00   0.000000e+00   1.525130e+06   0.000000e+00   0.000000e+00   0.000000e+00
     1648000   1.647999e-05   2.408381e+01   5.481169e+00   2.058612e+00   1.455328e+06  -2.395657e+05  -3.881347e+05   0.000000e+00   0.000000e+00   0.000000e+00   1.525130e+06   0.000000e+00   0.000000e+00   0.000000e+00
     1656000   1.655999e-05   2.420023e+01   5.462003e+00   2.027561e+00   1.455328e+06  -2.395657e+05  -3.881347e+05   0.000000e+00   0.000000e+00   0.000000e+00   1.525130e+06   0.000000e+00   0.000000e+00   0.000000e+00
     1664000   1.663999e-05   2.431666e+01   5.442838e+00   1.996510e+00   1.455328e+06  -2.395657e+05  -3.881347e+05   0.000000e+00   0.000000e+00   0.000000e+00   1.525130e+06   0.000000e+00   0.000000e+00   0.000000e+00
     1672000   1.671999e-05   2.443309e+01   5.423673e+00   1.965459e+00   1.455328e+06  -2.395657e+05  -3.881347e+05   0.000000e+00   0.000000e+00   0.000000e+00   1.525130e+06   0.000000e+00   0.000000e+00   0.000000e+00
     1680000   1.679999e-05   2.454951e+01   5.404508e+00   1.934409e+00   1.455328e+06  -2.395657e+05  -3.881347e+05   0.000000e+00   0.000000e+00   0.000000e+00   1.525130e+06   0.000000e+00   0.000000e+00   0.000000e+00
     1688000   1.687999e-05   2.466594e+01   5.385342e+00   1.903358e+00   1.455328e+06  -2.395657e+05  -3.881347e+05   0.000000e+00   0.000000e+00   0.000000e+00   1.525130e+06   0.000000e+00   0.000000e+00   0.000000e+00
     1696000   1.695999e-05   2.478236e+01   5.366177e+00   1.872307e+00   1.455328e+06  -2.395657e+05  -3.881347e+05   0.000000e+00   0.000000e+00   0.000000e+00   1.525130e+06   0.000000e+00   0.000000e+00   0.000000e+00
     1704000   1.703999e-05   2.489879e+01   5.347012e+00   1.841256e+00   1.455328e+06  -2.395657e+05  -3.881347e+05   0.000000e+00   0.000000e+00   0.000000e+00   1.525130e+06   0.000000e+00   0.000000e+00   0.000000e+00
     1712000   1.711999e-05   2.501522e+01   5.327847e+00   1.810206e+00   1.455328e+06  -2.395657e+05  -3.881347e+05   0.000000e+00   0.000000e+00   0.000000e+00   1.525130e+06   0.000000e+00   0.000000e+00   0.000000e+00
     1720000   1.719999e-05   2.513164e+01   5.308681e+00   1.779155e+00   1.455328e+06  -2.395657e+05  -3.881347e+05   0.000000e+00   0.000000e+00   0.000000e+00   1.525130e+06   0.000000e+00   0.000000e+00   0.000000e+00
     1728000   1.727999e-05   2.524807e+01   5.289516e+00   1.748104e+00   1.455328e+06  -2.395657e+05  -3.881347e+05   0.000000e+00   0.000000e+00   0.000000e+00   1.525130e+06   0.000000e+00   0.000000e+00   0.000000e+00
     1736000   1.735999e-05   2.536450e+01   5.270351e+00   1.717053e+00   1.455328e+06  -2.395657e+05  -3.881347e+05   0.000000e+00   0.000000e+00   0.000000e+00   1.525130e+06   0.000000e+00   0.000000e+00   0.000000e+00
     1744000   1.743999e-05   2.548092e+01   5.251186e+00   1.686003e+00   1.455328e+06  -2.395657e+05  -3.881347e+05   0.000000e+00   0.000000e+00   0.000000e+00   1.525130e+06   0.000000e+00   0.000000e+00   0.000000e+00
     1752000   1.751999e-05   2.559735e+01   5.232020e+00   1.654952e+00   1.455328e+06  -2.395657e+05  -3.881347e+05   0.000000e+00   0.000000e+00   0.000000e+00   1.525130e+06   0.000000e+00   0.000000e+00   0.000000e+00
     1760000   1.759999e-05   2.571377e+01   5.212855e+00   1.623901e+00   1.455328e+06  -2.395657e+05  -3.881347e+05   0.000000e+00   0.000000e+00   0.000000e+00   1.525130e+06   0.000000e+00   0.000000e+00   0.000000e+00
     1768000   1.767999e-05   2.583020e+01   5.193690e+00   1.592850e+00   1.455328e+06  -2.395657e+05  -3.881347e+05   0.000000e+00   0.000000e+00   0.000000e+00   1.525130e+06   0.000000e+00   0.000000e+00   0.000000e+00
     1776000   1.775999e-05   2.594663e+01   5.174525e+00   1.561799e+00   1.455328e+06  -2.395657e+05  -3.881347e+05   0.000000e+00   0.000000e+00   0.000000e+00   1.525130e+06   0.000000e+00   0.000000e+00   0.000000e+00
     1784000   1.783999e-05   2.606305e+01   5.155359e+00   1.530749e+00   1.455328e+06  -2.395657e+05  -3.881347e+05   0.000000e+00   0.000000e+00   0.000000e+00   1.525130e+06   0.000000e+00   0.000000e+00   0.000000e+00
     1792000   1.791999e-05   2.617948e+01   5.136194e+00   1.499698e+00   1.455328e+06  -2.395657e+05  -3.881347e+05   0.000000e+00   0.000000e+00   0.000000e+00   1.525130e+06   0.000000e+00   0.000000e+00   0.000000e+00
     1800000   1.799999e-05   2.629591e+01   5.117029e+00   1.468647e+00   1.455328e+06  -2.395657e+05  -3.881347e+05   0.000000e+00   0.000000e+00   0.000000e+00   1.525130e+06   0.000000e+00   0.000000e+00   0.000000e+00
     1808000   1.807999e-05   2.641233e+01   5.097864e+00   1.437596e+00   1.455328e+06  -2.395657e+05  -3.881347e+05   0.000000e+00   0.000000e+00   0.000000e+00   1.525130e+06   0.000000e+00   0.000000e+00   0.000000e+00
     1816000   1.815999e-05   2.652876e+01   5.078698e+00   1.406546e+00   1.455328e+06  -2.395657e+05  -3.881347e+05   0.000000e+00   0.000000e+00   0.000000e+00   1.525130e+06   0.000000e+00   0.000000e+00   0.000000e+00
     1824000   1.823999e-05   2.664518e+01   5.059533e+00   1.375495e+00   1.455328e+06  -2.395657e+05  -3.881347e+05   0.000000e+00   0.000000e+00   0.000000e+00   1.525130e+06   0.000000e+00   0.000000e+00   0.000000e+00
     1832000   1.831999e-05   2.676161e+01   5.040368e+00   1.344444e+00   1.455328e+06  -2.395657e+05  -3.881347e+05   0.000000e+00   0.000000e+00   0.000000e+00   1.525130e+06   0.000000e+00   0.000000e+00   0.000000e+00
     1840000   1.839999e-05   2.687804e+01   5.021203e+00   1.313393e+00   1.455328e+06  -2.395657e+05  -3.881347e+05   0.000000e+00   0.000000e+00   0.000000e+00   1.525130e+06   0.000000e+00   0.000000e+00   0.000000e+00
     1848000   1.847999e-05   2.699446e+01   5.002037e+00   1.282342e+00   1.455328e+06  -2.395657e+05  -3.881347e+05   0.000000e+00   0.000000e+00   0.000000e+00   1.525130e+06   0.000000e+00   0.000000e+00   0.000000e+00
     1856000   1.855999e-05   2.711089e+01   4.982872e+00   1.251292e+00   1.455328e+06  -2.395657e+05  -3.881347e+05   0.000000e+00   0.000000e+00   0.000000e+00   1.525130e+06   0.000000e+00   0.000000e+00   0.000000e+00
     1864000   1.863999e-05   2.722732e+01   4.963707e+00   1.220241e+00   1.455328e+06  -2.395657e+05  -3.881347e+05   0.000000e+00   0.000000e+00   0.000000e+00   1.525130e+06   0.000000e+00   0.000000e+00   0.000000e+00
     1872000   1.871999e-05   2.734374e+01   4.944542e+00   1.189190e+00   1.455328e+06  -2.395657e+05  -3.881347e+05   0.000000e+00   0.000000e+00   0.000000e+00   1.525130e+06   0.000000e+00   0.000000e+00   0.000000e+00
     1880000   1.879999e-05   2.746017e+01   4.925376e+00   1.158139e+00   1.455328e+06  -2.395657e+05  -3.881347e+05   0.000000e+00   0.000000e+00   0.000000e+00   1.525130e+06   0.000000e+00   0.000000e+00   0.000000e+00
     1888000   1.887999e-05   2.757659e+01   4.906211e+00   1.127089e+00   1.455328e+06  -2.395657e+05  -3.881347e+05   0.000000e+00   0.000000e+00   0.000000e+00   1.525130e+06   0.000000e+00   0.000000e+00   0.000000e+00
     1896000   1.895999e-05   2.769302e+01   4.887046e+00   1.096038e+00   1.455328e+06  -2.395657e+05  -3.881347e+05   0.000000e+00   0.000000e+00   0.000000e+00   1.525130e+06   0.000000e+00   0.000000e+00   0.000000e+00
     1904000   1.903999e-05   2.780945e+01   4.867881e+00   1.064987e+00   1.455328e+06  -2.395657e+05  -3.881347e+05   0.000000e+00   0.000000e+00   0.000000e+00   1.525130e+06   0.000000e+00   0.000000e+00   0.000000e+00
     1912000   1.911999e-05   2.792587e+01   4.848715e+00   1.033936e+00   1.455328e+06  -2.395657e+05  -3.881347e+05   0.000000e+00   0.000000e+00   0.000000e+00   1.525130e+06   0.000000e+00   0.000000e+00   0.000000e+00
     1920000   1.919999e-05   2.804230e+01   4.829550e+00   1.002886e+00   1.455328e+06  -2.395657e+05  -3.881347e+05   0.000000e+00   0.000000e+00   0.000000e+00   1.525130e+06   0.000000e+00   0.000000e+00   0.000000e+00
     1928000   1.927999e-05   2.815873e+01   4.810385e+00   9.718348e-01   1.455328e+06  -2.395657e+05  -3.881347e+05   0.000000e+00   0.000000e+00   0.000000e+00   1.525130e+06   0.000000e+00   0.000000e+00   0.000000e+00
     1936000   1.935999e-05   2.827515e+01   4.791220e+00   9.407840e-01   1.455328e+06  -2.395657e+05  -3.881347e+05   0.000000e+00   0.000000e+00   0.000000e+00   1.525130e+06   0.000000e+00   0.000000e+00   0.000000e+00
     1944000   1.943999e-05   2.839158e+01   4.772054e+00   9.097332e-01   1.455328e+06  -2.395657e+05  -3.881347e+05   0.000000e+00   0.000000e+00   0.000000e+00   1.525130e+06   0.000000e+00   0.000000e+00   0.000000e+00
     1952000   1.951999e-05   2.850800e+01   4.752889e+00   8.786825e-01   1.455328e+06  -2.395657e+05  -3.881347e+05   0.000000e+00   0.000000e+00   0.000000e+00   1.525130e+06   0.000000e+00   0.000000e+00   0.000000e+00
     1960000   1.959999e-05   2.862443e+01   4.733724e+00   8.476317e-01   1.455328e+06  -2.395657e+05  -3.881347e+05   0.000000e+00   0.000000e+00   0.000000e+00   1.525130e+06   0.000000e+00   0.000000e+00   0.000000e+00
     1968000   1.967999e-05   2.874086e+01   4.714558e+00   8.165809e-01   1.455328e+06  -2.395657e+05  -3.881347e+05   0.000000e+00   0.000000e+00   0.000000e+00   1.525130e+06   0.000000e+00   0.000000e+00   0.000000e+00
     1976000   1.975999e-05   2.885728e+01   4.695393e+00   7.855301e-01   1.455328e+06  -2.395657e+05  -3.881347e+05   0.000000e+00   0.000000e+00   0.000000e+00   1.525130e+06   0.000000e+00   0.000000e+00   0.000000e+00
     1984000   1.983999e-05   2.897371e+01   4.676228e+00   7.544794e-01   1.455328e+06  -2.395657e+05  -3.881347e+05   0.000000e+00   0.000000e+00   0.000000e+00   1.525130e+06   0.000000e+00   0.000000e+00   0.000000e+00
     1992000   1.991999e-05   2.909014e+01   4.657063e+00   7.234286e-01   1.455328e+06  -2.395657e+05  -3.881347e+05   0.000000e+00   0.000000e+00   0.000000e+00   1.525130e+06   0.000000e+00   0.000000e+00   0.000000e+00
     2000000   1.999999e-05   2.920656e+01   4.637897e+00   6.923778e-01   1.455328e+06  -2.395657e+05  -3.881347e+05   0.000000e+00   0.000000e+00   0.000000e+00   1.525130e+06   0.000000e+00   0.000000e+00   0.000000e+00
     2008000   2.007999e-05   2.932299e+01   4.618732e+00   6.613270e-01   1.455328e+06  -2.395657e+05  -3.881347e+05   0.000000e+00   0.000000e+00   0.000000e+00   1.525130e+06   0.000000e+00   0.000000e+00   0.000000e+00
     2016000   2.015999e-05   2.943941e+01   4.599567e+00   6.302763e-01   1.455328e+06  -2.395657e+05  -3.881347e+05   0.000000e+00   0.000000e+00   0.000000e+00   1.525130e+06   0.000000e+00   0.000000e+00   0.000000e+00
     2024000   2.023999e-05   2.955584e+01   4.580402e+00   5.992255e-01   1.455328e+06  -2.395657e+05  -3.881347e+05   0.000000e+00   0.000000e+00   0.000000e+00   1.525130e+06   0.000000e+00   0.000000e+00   0.000000e+00
     2032000   2.031999e-05   2.967227e+01   4.561236e+00   5.681747e-01   1.455328e+06  -2.395657e+05  -3.881347e+05   0.000000e+00   0.000000e+00   0.000000e+00   1.525130e+06   0.000000e+00   0.000000e+00   0.000000e+00
     2040000   2.039999e-05   2.978869e+01   4.542071e+00   5.371240e-01   1.455328e+06  -2.395657e+05  -3.881347e+05   0.000000e+00   0.000000e+00   0.000000e+00   1.525130e+06   0.000000e+00   0.000000e+00   0.000000e+00
     2048000   2.047999e-05   2.990512e+01   4.522906e+00   5.060732e-01   1.455328e+06  -2.395657e+05  -3.881347e+05   0.000000e+00   0.000000e+00   0.000000e+00   1.525130e+06   0.000000e+00   0.000000e+00   0.000000e+00
     2056000   2.055999e-05   3.002155e+01   4.503741e+00   4.750224e-01   1.455328e+06  -2.395657e+05  -3.881347e+05   0.000000e+00   0.000000e+00   0.000000e+00   1.525130e+06   0.000000e+00   0.000000e+00   0.000000e+00
     2064000   2.063999e-05   3.013797e+01   4.484575e+00   4.439716e-01   1.455328e+06  -2.395657e+05  -3.881347e+05   0.000000e+00   0.000000e+00   0.000000e+00   1.525130e+06   0.000000e+00   0.000000e+00   0.000000e+00
     2072000   2.071999e-05   3.025440e+01   4.465410e+00   4.129209e-01   1.455328e+06  -2.395657e+05  -3.881347e+05   0.000000e+00   0.000000e+00   0.000000e+00   1.525130e+06   0.000000e+00   0.000000e+00   0.000000e+00
     2080000   2.079999e-05   3.037082e+01   4.446245e+00   3.818701e-01   1.455328e+06  -2.395657e+05  -3.881347e+05   0.000000e+00   0.000000e+00   0.000000e+00   1.525130e+06   0.000000e+00   0.000000e+00   0.000000e+00
     2088000   2.087999e-05   3.048725e+01   4.427080e+00   3.508193e-01   1.455328e+06  -2.395657e+05  -3.881347e+05   0.000000e+00   0.000000e+00   0.000000e+00   1.525130e+06   0.000000e+00   0.000000e+00   0.000000e+00
     2096000   2.095999e-05   3.060368e+01   4.407914e+00   3.197685e-01   1.455328e+06  -2.395657e+05  -3.881347e+05   0.000000e+00   0.000000e+00   0.000000e+00   1.525130e+06   0.000000e+00   0.000000e+00   0.000000e+00
     2104000   2.103999e-05   3.072010e+01   4.388749e+00   2.887178e-01   1.455328e+06  -2.395657e+05  -3.881347e+05   0.000000e+00   0.000000e+00   0.000000e+00   1.525130e+06   0.000000e+00   0.000000e+00   0.000000e+00
     2112000   2.111999e-05   3.083653e+01   4.369584e+00   2.576670e-01   1.455328e+06  -2.395657e+05  -3.881347e+05   0.000000e+00   0.000000e+00   0.000000e+00   1.525130e+06   0.000000e+00   0.000000e+00   0.000000e+00
     2120000   2.119999e-05   3.095296e+01   4.350419e+00   2.266162e-01   1.455328e+06  -2.395657e+05  -3.881347e+05   0.000000e+00   0.000000e+00   0.000000e+00   1.525130e+06   0.000000e+00   0.000000e+00   0.000000e+00
     2128000   2.127999e-05   3.106938e+01   4.331253e+00   1.955655e-01   1.455328e+06  -2.395657e+05  -3.881347e+05   0.000000e+00   0.000000e+00   0.000000e+00   1.525130e+06   0.000000e+00   0.000000e+00   0.000000e+00
     2136000   2.135999e-05   3.118581e+01   4.312088e+00   1.645147e-01   1.455328e+06  -2.395657e+05  -3.881347e+05   0.000000e+00   0.000000e+00   0.000000e+00   1.525130e+06   0.000000e+00   0.000000e+00   0.000000e+00
     2144000   2.143999e-05   3.130223e+01   4.292923e+00   1.334639e-01   1.455328e+06  -2.395657e+05  -3.881347e+05   0.000000e+00   0.000000e+00   0.000000e+00   1.525130e+06   0.000000e+00   0.000000e+00   0.000000e+00
     2152000   2.151999e-05   3.141866e+01   4.273758e+00   1.024131e-01   1.455328e+06  -2.395657e+05  -3.881347e+05   0.000000e+00   0.000000e+00   0.000000e+00   1.525130e+06   0.000000e+00   0.000000e+00   0.000000e+00
     2160000   2.159999e-05   3.153509e+01   4.254592e+00   7.136236e-02   1.455328e+06  -2.395657e+05  -3.881347e+05   0.000000e+00   0.000000e+00   0.000000e+00   1.525130e+06   0.000000e+00   0.000000e+00   0.000000e+00
     2168000   2.167999e-05   3.165151e+01   4.235427e+00   4.031159e-02   1.455328e+06  -2.395657e+05  -3.881347e+05   0.000000e+00   0.000000e+00   0.000000e+00   1.525130e+06   0.000000e+00   0.000000e+00   0.000000e+00
     2176000   2.175999e-05   3.176794e+01   4.216262e+00   9.260817e-03   1.455328e+06  -2.395657e+05  -3.881347e+05   0.000000e+00   0.000000e+00   0.000000e+00   1.525130e+06   0.000000e+00   0.000000e+00   0.000000e+00
