     timestep     time              x             y              z              vx             vy             vz             ax             ay             az         v_magnitude      ELoss        Electronic      Nuclear
           0   0.000000e+00   1.000000e-01   2.038468e+01   8.275056e+00   3.236200e+05   1.431285e+06  -4.155892e+05   0.000000e+00   0.000000e+00   0.000000e+00   1.525130e+06   0.000000e+00   0.000000e+00   0.000000e+00
        8000   7.999000e-08   1.258896e-01   2.049918e+01   8.241809e+00   3.236200e+05   1.431285e+06  -4.155892e+05   0.000000e+00   0.000000e+00   0.000000e+00   1.525130e+06   0.000000e+00   0.000000e+00   0.000000e+00
       16000   1.599900e-07   1.517792e-01   2.061368e+01   8.208562e+00   3.236200e+05   1.431285e+06  -4.155892e+05   0.000000e+00   0.000000e+00   0.000000e+00   1.525130e+06   0.000000e+00   0.000000e+00   0.000000e+00
       24000   2.399900e-07   1.776688e-01   2.072818e+01   8.175315e+00   3.236200e+05   1.431285e+06  -4.155892e+05   0.000000e+00   0.000000e+00   0.000000e+00   1.525130e+06   0.000000e+00   0.000000e+00   0.000000e+00
       32000   3.199900e-07   2.035584e-01   2.084269e+01   8.142067e+00   3.236200e+05   1.431285e+06  -4.155892e+05   0.000000e+00   0.000000e+00   0.000000e+00   1.525130e+06   0.000000e+00   0.000000e+00   0.000000e+00
       40000   3.999900e-07   2.294480e-01   2.095719e+01   8.108820e+00   3.236200e+05   1.431285e+06  -4.155892e+05   0.000000e+00   0.000000e+00   0.000000e+00   1.525130e+06   0.000000e+00   0.000000e+00   0.000000e+00
       48000   4.799900e-07   2.553376e-01   2.107169e+01   8.075573e+00   3.236200e+05   1.431285e+06  -4.155892e+05   0.000000e+00   0.000000e+00   0.000000e+00   1.525130e+06   0.000000e+00   0.000000e+00   0.000000e+00
       56000   5.599900e-07   2.812272e-01   2.118620e+01   8.042326e+00   3.236200e+05   1.431285e+06  -4.155892e+05   0.000000e+00   0.000000e+00   0.000000e+00   1.525130e+06   0.000000e+00   0.000000e+00   0.000000e+00
       64000   6.399900e-07   3.071168e-01   2.130070e+01   8.009079e+00   3.236200e+05   1.431285e+06  -4.155892e+05   0.000000e+00   0.000000e+00   0.000000e+00   1.525130e+06   0.000000e+00   0.000000e+00   0.000000e+00
       72000   7.199900e-07   3.330064e-01   2.141520e+01   7.975832e+00   3.236200e+05   1.431285e+06  -4.155892e+05   0.000000e+00   0.000000e+00   0.000000e+00   1.525130e+06   0.000000e+00   0.000000e+00   0.000000e+00
       80000   7.999900e-07   3.588960e-01   2.152970e+01   7.942585e+00   3.236200e+05   1.431285e+06  -4.155892e+05   0.000000e+00   0.000000e+00   0.000000e+00   1.525130e+06   0.000000e+00   0.000000e+00   0.000000e+00
       88000   8.799900e-07   3.847856e-01   2.164421e+01   7.909337e+00   3.236200e+05   1.431285e+06  -4.155892e+05   0.000000e+00   0.000000e+00   0.000000e+00   1.525130e+06   0.000000e+00   0.000000e+00   0.000000e+00
       96000   9.599900e-07   4.106752e-01   2.175871e+01   7.876090e+00   3.236200e+05   1.431285e+06  -4.155892e+05   0.000000e+00   0.000000e+00   0.000000e+00   1.525130e+06   0.000000e+00   0.000000e+00   0.000000e+00
      104000   1.039990e-06   4.365648e-01   2.187321e+01   7.842843e+00   3.236200e+05   1.431285e+06  -4.155892e+05   0.000000e+00   0.000000e+00   0.000000e+00   1.525130e+06   0.000000e+00   0.000000e+00   0.000000e+00
      112000   1.119990e-06   4.624545e-01   2.198771e+01   7.809596e+00   3.236200e+05   1.431285e+06  -4.155892e+05   0.000000e+00   0.000000e+00   0.000000e+00   1.525130e+06   0.000000e+00   0.000000e+00   0.000000e+00
      120000   1.199990e-06   4.883441e-01   2.210222e+01   7.776349e+00   3.236200e+05   1.431285e+06  -4.155892e+05   0.000000e+00   0.000000e+00   0.000000e+00   1.525130e+06   0.000000e+00   0.000000e+00   0.000000e+00
      128000   1.279990e-06   5.142337e-01   2.221672e+01   7.743102e+00   3.236200e+05   1.431285e+06  -4.155892e+05   0.000000e+00   0.000000e+00   0.000000e+00   1.525130e+06   0.000000e+00   0.000000e+00   0.000000e+00
      136000   1.359990e-06   5.401233e-01   2.233122e+01   7.709855e+00   3.236200e+05   1.431285e+06  -4.155892e+05   0.000000e+00   0.000000e+00   0.000000e+00   1.525130e+06   0.000000e+00   0.000000e+00   0.000000e+00
      144000   1.439990e-06   5.660129e-01   2.244573e+01   7.676608e+00   3.236200e+05   1.431285e+06  -4.155892e+05   0.000000e+00   0.000000e+00   0.000000e+00   1.525130e+06   0.000000e+00   0.000000e+00   0.000000e+00
      152000   1.519990e-06   5.919025e-01   2.256023e+01   7.643360e+00   3.236200e+05   1.431285e+06  -4.155892e+05   0.000000e+00   0.000000e+00   0.000000e+00   1.525130e+06   0.000000e+00   0.000000e+00   0.000000e+00
      160000   1.599990e-06   6.177921e-01   2.267473e+01   7.610113e+00   3.236200e+05   1.431285e+06  -4.155892e+05   0.000000e+00   0.000000e+00   0.000000e+00   1.525130e+06   0.000000e+00   0.000000e+00   0.000000e+00
      168000   1.679990e-06   6.436817e-01   2.278923e+01   7.576866e+00   3.236200e+05   1.431285e+06  -4.155892e+05   0.000000e+00   0.000000e+00   0.000000e+00   1.525130e+06   0.000000e+00   0.000000e+00   0.000000e+00
      176000   1.759990e-06   6.695713e-01   2.290374e+01   7.543619e+00   3.236200e+05   1.431285e+06  -4.155892e+05   0.000000e+00   0.000000e+00   0.000000e+00   1.525130e+06   0.000000e+00   0.000000e+00   0.000000e+00
      184000   1.839990e-06   6.954609e-01   2.301824e+01   7.510372e+00   3.236200e+05   1.431285e+06  -4.155892e+05   0.000000e+00   0.000000e+00   0.000000e+00   1.525130e+06   0.000000e+00   0.000000e+00   0.000000e+00
      192000   1.919990e-06   7.213505e-01   2.313274e+01   7.477125e+00   3.236200e+05   1.431285e+06  -4.155892e+05   0.000000e+00   0.000000e+00   0.000000e+00   1.525130e+06   0.000000e+00   0.000000e+00   0.000000e+00
      200000   1.999990e-06   7.472401e-01   2.324725e+01   7.443878e+00   3.236200e+05   1.431285e+06  -4.155892e+05   0.000000e+00   0.000000e+00   0.000000e+00   1.525130e+06   0.000000e+00   0.000000e+00   0.000000e+00
      208000   2.079990e-06   7.731297e-01   2.336175e+01   7.410630e+00   3.236200e+05   1.431285e+06  -4.155892e+05   0.000000e+00   0.000000e+00   0.000000e+00   1.525130e+06   0.000000e+00   0.000000e+00   0.000000e+00
      216000   2.159990e-06   7.990193e-01   2.347625e+01   7.377383e+00   3.236200e+05   1.431285e+06  -4.155892e+05   0.000000e+00   0.000000e+00   0.000000e+00   1.525130e+06   0.000000e+00   0.000000e+00   0.000000e+00
      224000   2.239990e-06   8.249089e-01   2.359075e+01   7.344136e+00   3.236200e+05   1.431285e+06  -4.155892e+05   0.000000e+00   0.000000e+00   0.000000e+00   1.525130e+06   0.000000e+00   0.000000e+00   0.000000e+00
      232000   2.319990e-06   8.507985e-01   2.370526e+01   7.310889e+00   3.236200e+05   1.431285e+06  -4.155892e+05   0.000000e+00   0.000000e+00   0.000000e+00   1.525130e+06   0.000000e+00   0.000000e+00   0.000000e+00
      240000   2.399990e-06   8.766881e-01   2.381976e+01   7.277642e+00   3.236200e+05   1.431285e+06  -4.155892e+05   0.000000e+00   0.000000e+00   0.000000e+00   1.525130e+06   0.000000e+00   0.000000e+00   0.000000e+00
      248000   2.479990e-06   9.025777e-01   2.393426e+01   7.244395e+00   3.236200e+05   1.431285e+06  -4.155892e+05   0.000000e+00   0.000000e+00   0.000000e+00   1.525130e+06   0.000000e+00   0.000000e+00   0.000000e+00
      256000   2.559990e-06   9.284673e-01   2.404876e+01   7.211148e+00   3.236200e+05   1.431285e+06  -4.155892e+05   0.000000e+00   0.000000e+00   0.000000e+00   1.525130e+06   0.000000e+00   0.000000e+00   0.000000e+00
      264000   2.639990e-06   9.543569e-01   2.416327e+01   7.177900e+00   3.236200e+05   1.431285e+06  -4.155892e+05   0.000000e+00   0.000000e+00   0.000000e+00   1.525130e+06   0.000000e+00   0.000000e+00   0.000000e+00
      272000   2.719990e-06   9.802465e-01   2.427777e+01   7.144653e+00   3.236200e+05   1.431285e+06  -4.155892e+05   0.000000e+00   0.000000e+00   0.000000e+00   1.525130e+06   0.000000e+00   0.000000e+00   0.000000e+00
      280000   2.799990e-06   1.006136e+00   2.439227e+01   7.111406e+00   3.236200e+05   1.431285e+06  -4.155892e+05   0.000000e+00   0.000000e+00   0.000000e+00   1.525130e+06   0.000000e+00   0.000000e+00   0.000000e+00
      288000   2.879990e-06   1.032026e+00   2.450678e+01   7.078159e+00   3.236200e+05   1.431285e+06  -4.155892e+05   0.000000e+00   0.000000e+00   0.000000e+00   1.525130e+06   0.000000e+00   0.000000e+00   0.000000e+00
      296000   2.959990e-06   1.057915e+00   2.462128e+01   7.044912e+00   3.236200e+05   1.431285e+06  -4.155892e+05   0.000000e+00   0.000000e+00   0.000000e+00   1.525130e+06   0.000000e+00   0.000000e+00   0.000000e+00
      304000   3.039990e-06   1.083805e+00   2.473578e+01   7.011665e+00   3.236200e+05   1.431285e+06  -4.155892e+05   0.000000e+00   0.000000e+00   0.000000e+00   1.525130e+06   0.000000e+00   0.000000e+00   0.000000e+00
      312000   3.119990e-06   1.109695e+00   2.485028e+01   6.978418e+00   3.236200e+05   1.431285e+06  -4.155892e+05   0.000000e+00   0.000000e+00   0.000000e+00   1.525130e+06   0.000000e+00   0.000000e+00   0.000000e+00
      320000   3.199990e-06   1.135584e+00   2.496479e+01   6.945170e+00   3.236200e+05   1.431285e+06  -4.155892e+05   0.000000e+00   0.000000e+00   0.000000e+00   1.525130e+06   0.000000e+00   0.000000e+00   0.000000e+00
      328000   3.279990e-06   1.161474e+00   2.507929e+01   6.911923e+00   3.236200e+05   1.431285e+06  -4.155892e+05   0.000000e+00   0.000000e+00   0.000000e+00   1.525130e+06   0.000000e+00   0.000000e+00   0.000000e+00
      336000   3.359990e-06   1.187363e+00   2.519379e+01   6.878676e+00   3.236200e+05   1.431285e+06  -4.155892e+05   0.000000e+00   0.000000e+00   0.000000e+00   1.525130e+06   0.000000e+00   0.000000e+00   0.000000e+00
      344000   3.439990e-06   1.213253e+00   2.530830e+01   6.845429e+00   3.236200e+05   1.431285e+06  -4.155892e+05   0.000000e+00   0.000000e+00   0.000000e+00   1.525130e+06   0.000000e+00   0.000000e+00   0.000000e+00
      352000   3.519990e-06   1.239143e+00   2.542280e+01   6.812182e+00   3.236200e+05   1.431285e+06  -4.155892e+05   0.000000e+00   0.000000e+00   0.000000e+00   1.525130e+06   0.000000e+00   0.000000e+00   0.000000e+00
      360000   3.599990e-06   1.265032e+00   2.553730e+01   6.778935e+00   3.236200e+05   1.431285e+06  -4.155892e+05   0.000000e+00   0.000000e+00   0.000000e+00   1.525130e+06   0.000000e+00   0.000000e+00   0.000000e+00
      368000   3.679990e-06   1.290922e+00   2.565180e+01   6.745688e+00   3.236200e+05   1.431285e+06  -4.155892e+05   0.000000e+00   0.000000e+00   0.000000e+00   1.525130e+06   0.000000e+00   0.000000e+00   0.000000e+00
      376000   3.759990e-06   1.316811e+00   2.576631e+01   6.712440e+00   3.236200e+05   1.431285e+06  -4.155892e+05   0.000000e+00   0.000000e+00   0.000000e+00   1.525130e+06   0.000000e+00   0.000000e+00   0.000000e+00
      384000   3.839990e-06   1.342701e+00   2.588081e+01   6.679193e+00   3.236200e+05   1.431285e+06  -4.155892e+05   0.000000e+00   0.000000e+00   0.000000e+00   1.525130e+06   0.000000e+00   0.000000e+00   0.000000e+00
      392000   3.919990e-06   1.368591e+00   2.599531e+01   6.645946e+00   3.236200e+05   1.431285e+06  -4.155892e+05   0.000000e+00   0.000000e+00   0.000000e+00   1.525130e+06   0.000000e+00   0.000000e+00   0.000000e+00
      400000   3.999990e-06   1.394480e+00   2.610981e+01   6.612699e+00   3.236200e+05   1.431285e+06  -4.155892e+05   0.000000e+00   0.000000e+00   0.000000e+00   1.525130e+06   0.000000e+00   0.000000e+00   0.000000e+00
      408000   4.079990e-06   1.420370e+00   2.622432e+01   6.579452e+00   3.236200e+05   1.431285e+06  -4.155892e+05   0.000000e+00   0.000000e+00   0.000000e+00   1.525130e+06   0.000000e+00   0.000000e+00   0.000000e+00
      416000   4.159990e-06   1.446259e+00   2.633882e+01   6.546205e+00   3.236200e+05   1.431285e+06  -4.155892e+05   0.000000e+00   0.000000e+00   0.000000e+00   1.525130e+06   0.000000e+00   0.000000e+00   0.000000e+00
      424000   4.239990e-06   1.472149e+00   2.645332e+01   6.512958e+00   3.236200e+05   1.431285e+06  -4.155892e+05   0.000000e+00   0.000000e+00   0.000000e+00   1.525130e+06   0.000000e+00   0.000000e+00   0.000000e+00
      432000   4.319990e-06   1.498039e+00   2.656783e+01   6.479711e+00   3.236200e+05   1.431285e+06  -4.155892e+05   0.000000e+00   0.000000e+00   0.000000e+00   1.525130e+06   0.000000e+00   0.000000e+00   0.000000e+00
      440000   4.399990e-06   1.523928e+00   2.668233e+01   6.446463e+00   3.236200e+05   1.431285e+06  -4.155892e+05   0.000000e+00   0.000000e+00   0.000000e+00   1.525130e+06   0.000000e+00   0.000000e+00   0.000000e+00
      448000   4.479990e-06   1.549818e+00   2.679683e+01   6.413216e+00   3.236200e+05   1.431285e+06  -4.155892e+05   0.000000e+00   0.000000e+00   0.000000e+00   1.525130e+06   0.000000e+00   0.000000e+00   0.000000e+00
      456000   4.559990e-06   1.575707e+00   2.691133e+01   6.379969e+00   3.236200e+05   1.431285e+06  -4.155892e+05   0.000000e+00   0.000000e+00   0.000000e+00   1.525130e+06   0.000000e+00   0.000000e+00   0.000000e+00
      464000   4.639990e-06   1.601597e+00   2.702584e+01   6.346722e+00   3.236200e+05   1.431285e+06  -4.155892e+05   0.000000e+00   0.000000e+00   0.000000e+00   1.525130e+06   0.000000e+00   0.000000e+00   0.000000e+00
      472000   4.719990e-06   1.627487e+00   2.714034e+01   6.313475e+00   3.236200e+05   1.431285e+06  -4.155892e+05   0.000000e+00   0.000000e+00   0.000000e+00   1.525130e+06   0.000000e+00   0.000000e+00   0.000000e+00
      480000   4.799990e-06   1.653376e+00   2.725484e+01   6.280228e+00   3.236200e+05   1.431285e+06  -4.155892e+05   0.000000e+00   0.000000e+00   0.000000e+00   1.525130e+06   0.000000e+00   0.000000e+00   0.000000e+00
      488000   4.879990e-06   1.679266e+00   2.736934e+01   6.246981e+00   3.236200e+05   1.431285e+06  -4.155892e+05   0.000000e+00   0.000000e+00   0.000000e+00   1.525130e+06   0.000000e+00   0.000000e+00   0.000000e+00
      496000   4.959990e-06   1.705155e+00   2.748385e+01   6.213733e+00   3.236200e+05   1.431285e+06  -4.155892e+05   0.000000e+00   0.000000e+00   0.000000e+00   1.525130e+06   0.000000e+00   0.000000e+00   0.000000e+00
      504000   5.039990e-06   1.731045e+00   2.759835e+01   6.180486e+00   3.236200e+05   1.431285e+06  -4.155892e+05   0.000000e+00   0.000000e+00   0.000000e+00   1.525130e+06   0.000000e+00   0.000000e+00   0.000000e+00
      512000   5.119990e-06   1.756935e+00   2.771285e+01   6.147239e+00   3.236200e+05   1.431285e+06  -4.155892e+05   0.000000e+00   0.000000e+00   0.000000e+00   1.525130e+06   0.000000e+00   0.000000e+00   0.000000e+00
      520000   5.199990e-06   1.782824e+00   2.782736e+01   6.113992e+00   3.236200e+05   1.431285e+06  -4.155892e+05   0.000000e+00   0.000000e+00   0.000000e+00   1.525130e+06   0.000000e+00   0.000000e+00   0.000000e+00
      528000   5.279990e-06   1.808714e+00   2.794186e+01   6.080745e+00   3.236200e+05   1.431285e+06  -4.155892e+05   0.000000e+00   0.000000e+00   0.000000e+00   1.525130e+06   0.000000e+00   0.000000e+00   0.000000e+00
      536000   5.359990e-06   1.834603e+00   2.805636e+01   6.047498e+00   3.236200e+05   1.431285e+06  -4.155892e+05   0.000000e+00   0.000000e+00   0.000000e+00   1.525130e+06   0.000000e+00   0.000000e+00   0.000000e+00
      544000   5.439990e-06   1.860493e+00   2.817086e+01   6.014251e+00   3.236200e+05   1.431285e+06  -4.155892e+05   0.000000e+00   0.000000e+00   0.000000e+00   1.525130e+06   0.000000e+00   0.000000e+00   0.000000e+00
      552000   5.519990e-06   1.886383e+00   2.828537e+01   5.981003e+00   3.236200e+05   1.431285e+06  -4.155892e+05   0.000000e+00   0.000000e+00   0.000000e+00   1.525130e+06   0.000000e+00   0.000000e+00   0.000000e+00
      560000   5.599990e-06   1.912272e+00   2.839987e+01   5.947756e+00   3.236200e+05   1.431285e+06  -4.155892e+05   0.000000e+00   0.000000e+00   0.000000e+00   1.525130e+06   0.000000e+00   0.000000e+00   0.000000e+00
      568000   5.679990e-06   1.938162e+00   2.851437e+01   5.914509e+00   3.236200e+05   1.431285e+06  -4.155892e+05   0.000000e+00   0.000000e+00   0.000000e+00   1.525130e+06   0.000000e+00   0.000000e+00   0.000000e+00
      576000   5.759990e-06   1.964051e+00   2.862888e+01   5.881262e+00   3.236200e+05   1.431285e+06  -4.155892e+05   0.000000e+00   0.000000e+00   0.000000e+00   1.525130e+06   0.000000e+00   0.000000e+00   0.000000e+00
      584000   5.839990e-06   1.989941e+00   2.874338e+01   5.848015e+00   3.236200e+05   1.431285e+06  -4.155892e+05   0.000000e+00   0.000000e+00   0.000000e+00   1.525130e+06   0.000000e+00   0.000000e+00   0.000000e+00
      592000   5.919990e-06   2.015831e+00   2.885788e+01   5.814768e+00   3.236200e+05   1.431285e+06  -4.155892e+05   0.000000e+00   0.000000e+00   0.000000e+00   1.525130e+06   0.000000e+00   0.000000e+00   0.000000e+00
      600000   5.999990e-06   2.041720e+00   2.897238e+01   5.781521e+00   3.236200e+05   1.431285e+06  -4.155892e+05   0.000000e+00   0.000000e+00   0.000000e+00   1.525130e+06   0.000000e+00   0.000000e+00   0.000000e+00
      608000   6.079990e-06   2.067610e+00   2.908689e+01   5.748273e+00   3.236200e+05   1.431285e+06  -4.155892e+05   0.000000e+00   0.000000e+00   0.000000e+00   1.525130e+06   0.000000e+00   0.000000e+00   0.000000e+00
      616000   6.159990e-06   2.093499e+00   2.920139e+01   5.715026e+00   3.236200e+05   1.431285e+06  -4.155892e+05   0.000000e+00   0.000000e+00   0.000000e+00   1.525130e+06   0.000000e+00   0.000000e+00   0.000000e+00
      624000   6.239990e-06   2.119389e+00   2.931589e+01   5.681779e+00   3.236200e+05   1.431285e+06  -4.155892e+05   0.000000e+00   0.000000e+00   0.000000e+00   1.525130e+06   0.000000e+00   0.000000e+00   0.000000e+00
      632000   6.319990e-06   2.145279e+00   2.943039e+01   5.648532e+00   3.236200e+05   1.431285e+06  -4.155892e+05   0.000000e+00   0.000000e+00   0.000000e+00   1.525130e+06   0.000000e+00   0.000000e+00   0.000000e+00
      640000   6.399990e-06   2.171168e+00   2.954490e+01   5.615285e+00   3.236200e+05   1.431285e+06  -4.155892e+05   0.000000e+00   0.000000e+00   0.000000e+00   1.525130e+06   0.000000e+00   0.000000e+00   0.000000e+00
      648000   6.479990e-06   2.197058e+00   2.965940e+01   5.582038e+00   3.236200e+05   1.431285e+06  -4.155892e+05   0.000000e+00   0.000000e+00   0.000000e+00   1.525130e+06   0.000000e+00   0.000000e+00   0.000000e+00
      656000   6.559990e-06   2.222947e+00   2.977390e+01   5.548791e+00   3.236200e+05   1.431285e+06  -4.155892e+05   0.000000e+00   0.000000e+00   0.000000e+00   1.525130e+06   0.000000e+00   0.000000e+00   0.000000e+00
      664000   6.639990e-06   2.248837e+00   2.988841e+01   5.515543e+00   3.236200e+05   1.431285e+06  -4.155892e+05   0.000000e+00   0.000000e+00   0.000000e+00   1.525130e+06   0.000000e+00   0.000000e+00   0.000000e+00
      672000   6.719990e-06   2.274727e+00   3.000291e+01   5.482296e+00   3.236200e+05   1.431285e+06  -4.155892e+05   0.000000e+00   0.000000e+00   0.000000e+00   1.525130e+06   0.000000e+00   0.000000e+00   0.000000e+00
      680000   6.799990e-06   2.300616e+00   3.011741e+01   5.449049e+00   3.236200e+05   1.431285e+06  -4.155892e+05   0.000000e+00   0.000000e+00   0.000000e+00   1.525130e+06   0.000000e+00   0.000000e+00   0.000000e+00
      688000   6.879990e-06   2.326506e+00   3.023191e+01   5.415802e+00   3.236200e+05   1.431285e+06  -4.155892e+05   0.000000e+00   0.000000e+00   0.000000e+00   1.525130e+06   0.000000e+00   0.000000e+00   0.000000e+00
      696000   6.959990e-06   2.352396e+00   3.034642e+01   5.382555e+00   3.236200e+05   1.431285e+06  -4.155892e+05   0.000000e+00   0.000000e+00   0.000000e+00   1.525130e+06   0.000000e+00   0.000000e+00   0.000000e+00
      704000   7.039990e-06   2.378285e+00   3.046092e+01   5.349308e+00   3.236200e+05   1.431285e+06  -4.155892e+05   0.000000e+00   0.000000e+00   0.000000e+00   1.525130e+06   0.000000e+00   0.000000e+00   0.000000e+00
      712000   7.119990e-06   2.404175e+00   3.057542e+01   5.316061e+00   3.236200e+05   1.431285e+06  -4.155892e+05   0.000000e+00   0.000000e+00   0.000000e+00   1.525130e+06   0.000000e+00   0.000000e+00   0.000000e+00
      720000   7.199990e-06   2.430064e+00   3.068993e+01   5.282814e+00   3.236200e+05   1.431285e+06  -4.155892e+05   0.000000e+00   0.000000e+00   0.000000e+00   1.525130e+06   0.000000e+00   0.000000e+00   0.000000e+00
      728000   7.279990e-06   2.455954e+00   3.080443e+01   5.249566e+00   3.236200e+05   1.431285e+06  -4.155892e+05   0.000000e+00   0.000000e+00   0.000000e+00   1.525130e+06   0.000000e+00   0.000000e+00   0.000000e+00
      736000   7.359990e-06   2.481844e+00   3.091893e+01   5.216319e+00   3.236200e+05   1.431285e+06  -4.155892e+05   0.000000e+00   0.000000e+00   0.000000e+00   1.525130e+06   0.000000e+00   0.000000e+00   0.000000e+00
      744000   7.439990e-06   2.507733e+00   3.103343e+01   5.183072e+00   3.236200e+05   1.431285e+06  -4.155892e+05   0.000000e+00   0.000000e+00   0.000000e+00   1.525130e+06   0.000000e+00   0.000000e+00   0.000000e+00
      752000   7.519990e-06   2.533623e+00   3.114794e+01   5.149825e+00   3.236200e+05   1.431285e+06  -4.155892e+05   0.000000e+00   0.000000e+00   0.000000e+00   1.525130e+06   0.000000e+00   0.000000e+00   0.000000e+00
      760000   7.599990e-06   2.559512e+00   3.126244e+01   5.116578e+00   3.236200e+05   1.431285e+06  -4.155892e+05   0.000000e+00   0.000000e+00   0.000000e+00   1.525130e+06   0.000000e+00   0.000000e+00   0.000000e+00
      768000   7.679990e-06   2.585402e+00   3.137694e+01   5.083331e+00   3.236200e+05   1.431285e+06  -4.155892e+05   0.000000e+00   0.000000e+00   0.000000e+00   1.525130e+06   0.000000e+00   0.000000e+00   0.000000e+00
      776000   7.759990e-06   2.611292e+00   3.149144e+01   5.050084e+00   3.236200e+05   1.431285e+06  -4.155892e+05   0.000000e+00   0.000000e+00   0.000000e+00   1.525130e+06   0.000000e+00   0.000000e+00   0.000000e+00
      784000   7.839990e-06   2.637181e+00   3.160595e+01   5.016836e+00   3.236200e+05   1.431285e+06  -4.155892e+05   0.000000e+00   0.000000e+00   0.000000e+00   1.525130e+06   0.000000e+00   0.000000e+00   0.000000e+00
      792000   7.919990e-06   2.663071e+00   3.172045e+01   4.983589e+00   3.236200e+05   1.431285e+06  -4.155892e+05   0.000000e+00   0.000000e+00   0.000000e+00   1.525130e+06   0.000000e+00   0.000000e+00   0.000000e+00
      800000   7.999990e-06   2.688960e+00   3.183495e+01   4.950342e+00   3.236200e+05   1.431285e+06  -4.155892e+05   0.000000e+00   0.000000e+00   0.000000e+00   1.525130e+06   0.000000e+00   0.000000e+00   0.000000e+00
      808000   8.079990e-06   2.714850e+00   3.194946e+01   4.917095e+00   3.236200e+05   1.431285e+06  -4.155892e+05   0.000000e+00   0.000000e+00   0.000000e+00   1.525130e+06   0.000000e+00   0.000000e+00   0.000000e+00
      816000   8.159990e-06   2.740740e+00   3.206396e+01   4.883848e+00   3.236200e+05   1.431285e+06  -4.155892e+05   0.000000e+00   0.000000e+00   0.000000e+00   1.525130e+06   0.000000e+00   0.000000e+00   0.000000e+00
      824000   8.239990e-06   2.766629e+00   3.217846e+01   4.850601e+00   3.236200e+05   1.431285e+06  -4.155892e+05   0.000000e+00   0.000000e+00   0.000000e+00   1.525130e+06   0.000000e+00   0.000000e+00   0.000000e+00
      832000   8.319990e-06   2.792519e+00   3.229296e+01   4.817354e+00   3.236200e+05   1.431285e+06  -4.155892e+05   0.000000e+00   0.000000e+00   0.000000e+00   1.525130e+06   0.000000e+00   0.000000e+00   0.000000e+00
      840000   8.399990e-06   2.818408e+00   3.240747e+01   4.784106e+00   3.236200e+05   1.431285e+06  -4.155892e+05   0.000000e+00   0.000000e+00   0.000000e+00   1.525130e+06   0.000000e+00   0.000000e+00   0.000000e+00
      848000   8.479990e-06   2.844298e+00   3.252197e+01   4.750859e+00   3.236200e+05   1.431285e+06  -4.155892e+05   0.000000e+00   0.000000e+00   0.000000e+00   1.525130e+06   0.000000e+00   0.000000e+00   0.000000e+00
      856000   8.559990e-06   2.870188e+00   3.263647e+01   4.717612e+00   3.236200e+05   1.431285e+06  -4.155892e+05   0.000000e+00   0.000000e+00   0.000000e+00   1.525130e+06   0.000000e+00   0.000000e+00   0.000000e+00
      864000   8.639990e-06   2.896077e+00   3.275098e+01   4.684365e+00   3.236200e+05   1.431285e+06  -4.155892e+05   0.000000e+00   0.000000e+00   0.000000e+00   1.525130e+06   0.000000e+00   0.000000e+00   0.000000e+00
      872000   8.719990e-06   2.921967e+00   3.286548e+01   4.651118e+00   3.236200e+05   1.431285e+06  -4.155892e+05   0.000000e+00   0.000000e+00   0.000000e+00   1.525130e+06   0.000000e+00   0.000000e+00   0.000000e+00
      880000   8.799990e-06   2.947856e+00   3.297998e+01   4.617871e+00   3.236200e+05   1.431285e+06  -4.155892e+05   0.000000e+00   0.000000e+00   0.000000e+00   1.525130e+06   0.000000e+00   0.000000e+00   0.000000e+00
      888000   8.879990e-06   2.973746e+00   3.309448e+01   4.584624e+00   3.236200e+05   1.431285e+06  -4.155892e+05   0.000000e+00   0.000000e+00   0.000000e+00   1.525130e+06   0.000000e+00   0.000000e+00   0.000000e+00
      896000   8.959990e-06   2.999636e+00   3.320899e+01   4.551376e+00   3.236200e+05   1.431285e+06  -4.155892e+05   0.000000e+00   0.000000e+00   0.000000e+00   1.525130e+06   0.000000e+00   0.000000e+00   0.000000e+00
      904000   9.039990e-06   3.025525e+00   3.332349e+01   4.518129e+00   3.236200e+05   1.431285e+06  -4.155892e+05   0.000000e+00   0.000000e+00   0.000000e+00   1.525130e+06   0.000000e+00   0.000000e+00   0.000000e+00
      912000   9.119990e-06   3.051415e+00   3.343799e+01   4.484882e+00   3.236200e+05   1.431285e+06  -4.155892e+05   0.000000e+00   0.000000e+00   0.000000e+00   1.525130e+06   0.000000e+00   0.000000e+00   0.000000e+00
      920000   9.199990e-06   3.077304e+00   3.355249e+01   4.451635e+00   3.236200e+05   1.431285e+06  -4.155892e+05   0.000000e+00   0.000000e+00   0.000000e+00   1.525130e+06   0.000000e+00   0.000000e+00   0.000000e+00
      928000   9.279990e-06   3.103194e+00   3.366700e+01   4.418388e+00   3.236200e+05   1.431285e+06  -4.155892e+05   0.000000e+00   0.000000e+00   0.000000e+00   1.525130e+06   0.000000e+00   0.000000e+00   0.000000e+00
      936000   9.359990e-06   3.129084e+00   3.378150e+01   4.385141e+00   3.236200e+05   1.431285e+06  -4.155892e+05   0.000000e+00   0.000000e+00   0.000000e+00   1.525130e+06   0.000000e+00   0.000000e+00   0.000000e+00
      944000   9.439990e-06   3.154973e+00   3.389600e+01   4.351894e+00   3.236200e+05   1.431285e+06  -4.155892e+05   0.000000e+00   0.000000e+00   0.000000e+00   1.525130e+06   0.000000e+00   0.000000e+00   0.000000e+00
      952000   9.519990e-06   3.180863e+00   3.401051e+01   4.318646e+00   3.236200e+05   1.431285e+06  -4.155892e+05   0.000000e+00   0.000000e+00   0.000000e+00   1.525130e+06   0.000000e+00   0.000000e+00   0.000000e+00
      960000   9.599990e-06   3.206752e+00   3.412501e+01   4.285399e+00   3.236200e+05   1.431285e+06  -4.155892e+05   0.000000e+00   0.000000e+00   0.000000e+00   1.525130e+06   0.000000e+00   0.000000e+00   0.000000e+00
      968000   9.679990e-06   3.232642e+00   3.423951e+01   4.252152e+00   3.236200e+05   1.431285e+06  -4.155892e+05   0.000000e+00   0.000000e+00   0.000000e+00   1.525130e+06   0.000000e+00   0.000000e+00   0.000000e+00
      976000   9.759990e-06   3.258532e+00   3.435401e+01   4.218905e+00   3.236200e+05   1.431285e+06  -4.155892e+05   0.000000e+00   0.000000e+00   0.000000e+00   1.525130e+06   0.000000e+00   0.000000e+00   0.000000e+00
      984000   9.839990e-06   3.284421e+00   3.446852e+01   4.185658e+00   3.236200e+05   1.431285e+06  -4.155892e+05   0.000000e+00   0.000000e+00   0.000000e+00   1.525130e+06   0.000000e+00   0.000000e+00   0.000000e+00
      992000   9.919990e-06   3.310311e+00   3.458302e+01   4.152411e+00   3.236200e+05   1.431285e+06  -4.155892e+05   0.000000e+00   0.000000e+00   0.000000e+00   1.525130e+06   0.000000e+00   0.000000e+00   0.000000e+00
     1000000   9.999990e-06   3.336200e+00   3.469752e+01   4.119164e+00   3.236200e+05   1.431285e+06  -4.155892e+05   0.000000e+00   0.000000e+00   0.000000e+00   1.525130e+06   0.000000e+00   0.000000e+00   0.000000e+00
     1008000   1.007999e-05   3.362090e+00   3.481202e+01   4.085917e+00   3.236200e+05   1.431285e+06  -4.155892e+05   0.000000e+00   0.000000e+00   0.000000e+00   1.525130e+06   0.000000e+00   0.000000e+00   0.000000e+00
     1016000   1.015999e-05   3.387980e+00   3.492653e+01   4.052669e+00   3.236200e+05   1.431285e+06  -4.155892e+05   0.000000e+00   0.000000e+00   0.000000e+00   1.525130e+06   0.000000e+00   0.000000e+00   0.000000e+00
     1024000   1.023999e-05   3.413869e+00   3.504103e+01   4.019422e+00   3.236200e+05   1.431285e+06  -4.155892e+05   0.000000e+00   0.000000e+00   0.000000e+00   1.525130e+06   0.000000e+00   0.000000e+00   0.000000e+00
     1032000   1.031999e-05   3.439759e+00   3.515553e+01   3.986175e+00   3.236200e+05   1.431285e+06  -4.155892e+05   0.000000e+00   0.000000e+00   0.000000e+00   1.525130e+06   0.000000e+00   0.000000e+00   0.000000e+00
     1040000   1.039999e-05   3.465648e+00   3.527004e+01   3.952928e+00   3.236200e+05   1.431285e+06  -4.155892e+05   0.000000e+00   0.000000e+00   0.000000e+00   1.525130e+06   0.000000e+00   0.000000e+00   0.000000e+00
     1048000   1.047999e-05   3.491538e+00   3.538454e+01   3.919681e+00   3.236200e+05   1.431285e+06  -4.155892e+05   0.000000e+00   0.000000e+00   0.000000e+00   1.525130e+06   0.000000e+00   0.000000e+00   0.000000e+00
     1056000   1.055999e-05   3.517428e+00   3.549904e+01   3.886434e+00   3.236200e+05   1.431285e+06  -4.155892e+05   0.000000e+00   0.000000e+00   0.000000e+00   1.525130e+06   0.000000e+00   0.000000e+00   0.000000e+00
     1064000   1.063999e-05   3.543317e+00   3.561354e+01   3.853187e+00   3.236200e+05   1.431285e+06  -4.155892e+05   0.000000e+00   0.000000e+00   0.000000e+00   1.525130e+06   0.000000e+00   0.000000e+00   0.000000e+00
     1072000   1.071999e-05   3.569207e+00   3.572805e+01   3.819939e+00   3.236200e+05   1.431285e+06  -4.155892e+05   0.000000e+00   0.000000e+00   0.000000e+00   1.525130e+06   0.000000e+00   0.000000e+00   0.000000e+00
     1080000   1.079999e-05   3.595096e+00   3.584255e+01   3.786692e+00   3.236200e+05   1.431285e+06  -4.155892e+05   0.000000e+00   0.000000e+00   0.000000e+00   1.525130e+06   0.000000e+00   0.000000e+00   0.000000e+00
     1088000   1.087999e-05   3.620986e+00   3.595705e+01   3.753445e+00   3.236200e+05   1.431285e+06  -4.155892e+05   0.000000e+00   0.000000e+00   0.000000e+00   1.525130e+06   0.000000e+00   0.000000e+00   0.000000e+00
     1096000   1.095999e-05   3.646876e+00   3.607156e+01   3.720198e+00   3.236200e+05   1.431285e+06  -4.155892e+05   0.000000e+00   0.000000e+00   0.000000e+00   1.525130e+06   0.000000e+00   0.000000e+00   0.000000e+00
     1104000   1.103999e-05   3.672765e+00   3.618606e+01   3.686951e+00   3.236200e+05   1.431285e+06  -4.155892e+05   0.000000e+00   0.000000e+00   0.000000e+00   1.525130e+06   0.000000e+00   0.000000e+00   0.000000e+00
     1112000   1.111999e-05   3.698655e+00   3.630056e+01   3.653704e+00   3.236200e+05   1.431285e+06  -4.155892e+05   0.000000e+00   0.000000e+00   0.000000e+00   1.525130e+06   0.000000e+00   0.000000e+00   0.000000e+00
     1120000   1.119999e-05   3.724545e+00   3.641506e+01   3.620457e+00   3.236200e+05   1.431285e+06  -4.155892e+05   0.000000e+00   0.000000e+00   0.000000e+00   1.525130e+06   0.000000e+00   0.000000e+00   0.000000e+00
     1128000   1.127999e-05   3.750434e+00   3.652957e+01   3.587209e+00   3.236200e+05   1.431285e+06  -4.155892e+05   0.000000e+00   0.000000e+00   0.000000e+00   1.525130e+06   0.000000e+00   0.000000e+00   0.000000e+00
     1136000   1.135999e-05   3.776324e+00   3.664407e+01   3.553962e+00   3.236200e+05   1.431285e+06  -4.155892e+05   0.000000e+00   0.000000e+00   0.000000e+00   1.525130e+06   0.000000e+00   0.000000e+00   0.000000e+00
     1144000   1.143999e-05   3.802213e+00   3.675857e+01   3.520715e+00   3.236200e+05   1.431285e+06  -4.155892e+05   0.000000e+00   0.000000e+00   0.000000e+00   1.525130e+06   0.000000e+00   0.000000e+00   0.000000e+00
     1152000   1.151999e-05   3.828103e+00   3.687307e+01   3.487468e+00   3.236200e+05   1.431285e+06  -4.155892e+05   0.000000e+00   0.000000e+00   0.000000e+00   1.525130e+06   0.000000e+00   0.000000e+00   0.000000e+00
     1160000   1.159999e-05   3.853993e+00   3.698758e+01   3.454221e+00   3.236200e+05   1.431285e+06  -4.155892e+05   0.000000e+00   0.000000e+00   0.000000e+00   1.525130e+06   0.000000e+00   0.000000e+00   0.000000e+00
     1168000   1.167999e-05   3.879882e+00   3.710208e+01   3.420974e+00   3.236200e+05   1.431285e+06  -4.155892e+05   0.000000e+00   0.000000e+00   0.000000e+00   1.525130e+06   0.000000e+00   0.000000e+00   0.000000e+00
     1176000   1.175999e-05   3.905772e+00   3.721658e+01   3.387727e+00   3.236200e+05   1.431285e+06  -4.155892e+05   0.000000e+00   0.000000e+00   0.000000e+00   1.525130e+06   0.000000e+00   0.000000e+00   0.000000e+00
     1184000   1.183999e-05   3.931661e+00   3.733109e+01   3.354479e+00   3.236200e+05   1.431285e+06  -4.155892e+05   0.000000e+00   0.000000e+00   0.000000e+00   1.525130e+06   0.000000e+00   0.000000e+00   0.000000e+00
     1192000   1.191999e-05   3.957551e+00   3.744559e+01   3.321232e+00   3.236200e+05   1.431285e+06  -4.155892e+05   0.000000e+00   0.000000e+00   0.000000e+00   1.525130e+06   0.000000e+00   0.000000e+00   0.000000e+00
     1200000   1.199999e-05   3.983441e+00   3.756009e+01   3.287985e+00   3.236200e+05   1.431285e+06  -4.155892e+05   0.000000e+00   0.000000e+00   0.000000e+00   1.525130e+06   0.000000e+00   0.000000e+00   0.000000e+00
     1208000   1.207999e-05   4.009330e+00   3.767459e+01   3.254738e+00   3.236200e+05   1.431285e+06  -4.155892e+05   0.000000e+00   0.000000e+00   0.000000e+00   1.525130e+06   0.000000e+00   0.000000e+00   0.000000e+00
     1216000   1.215999e-05   4.035220e+00   3.778910e+01   3.221491e+00   3.236200e+05   1.431285e+06  -4.155892e+05   0.000000e+00   0.000000e+00   0.000000e+00   1.525130e+06   0.000000e+00   0.000000e+00   0.000000e+00
     1224000   1.223999e-05   4.061109e+00   3.790360e+01   3.188244e+00   3.236200e+05   1.431285e+06  -4.155892e+05   0.000000e+00   0.000000e+00   0.000000e+00   1.525130e+06   0.000000e+00   0.000000e+00   0.000000e+00
     1232000   1.231999e-05   4.086999e+00   3.801810e+01   3.154997e+00   3.236200e+05   1.431285e+06  -4.155892e+05   0.000000e+00   0.000000e+00   0.000000e+00   1.525130e+06   0.000000e+00   0.000000e+00   0.000000e+00
     1240000   1.239999e-05   4.112889e+00   3.813261e+01   3.121749e+00   3.236200e+05   1.431285e+06  -4.155892e+05   0.000000e+00   0.000000e+00   0.000000e+00   1.525130e+06   0.000000e+00   0.000000e+00   0.000000e+00
     1248000   1.247999e-05   4.138778e+00   3.824711e+01   3.088502e+00   3.236200e+05   1.431285e+06  -4.155892e+05   0.000000e+00   0.000000e+00   0.000000e+00   1.525130e+06   0.000000e+00   0.000000e+00   0.000000e+00
     1256000   1.255999e-05   4.164668e+00   3.836161e+01   3.055255e+00   3.236200e+05   1.431285e+06  -4.155892e+05   0.000000e+00   0.000000e+00   0.000000e+00   1.525130e+06   0.000000e+00   0.000000e+00   0.000000e+00
     1264000   1.263999e-05   4.190557e+00   3.847611e+01   3.022008e+00   3.236200e+05   1.431285e+06  -4.155892e+05   0.000000e+00   0.000000e+00   0.000000e+00   1.525130e+06   0.000000e+00   0.000000e+00   0.000000e+00
     1272000   1.271999e-05   4.216447e+00   3.859062e+01   2.988761e+00   3.236200e+05   1.431285e+06  -4.155892e+05   0.000000e+00   0.000000e+00   0.000000e+00   1.525130e+06   0.000000e+00   0.000000e+00   0.000000e+00
     1280000   1.279999e-05   4.242337e+00   3.870512e+01   2.955514e+00   3.236200e+05   1.431285e+06  -4.155892e+05   0.000000e+00   0.000000e+00   0.000000e+00   1.525130e+06   0.000000e+00   0.000000e+00   0.000000e+00
     1288000   1.287999e-05   4.268226e+00   3.881962e+01   2.922267e+00   3.236200e+05   1.431285e+06  -4.155892e+05   0.000000e+00   0.000000e+00   0.000000e+00   1.525130e+06   0.000000e+00   0.000000e+00   0.000000e+00
     1296000   1.295999e-05   4.294116e+00   3.893412e+01   2.889020e+00   3.236200e+05   1.431285e+06  -4.155892e+05   0.000000e+00   0.000000e+00   0.000000e+00   1.525130e+06   0.000000e+00   0.000000e+00   0.000000e+00
     1304000   1.303999e-05   4.320005e+00   3.904863e+01   2.855772e+00   3.236200e+05   1.431285e+06  -4.155892e+05   0.000000e+00   0.000000e+00   0.000000e+00   1.525130e+06   0.000000e+00   0.000000e+00   0.000000e+00
     1312000   1.311999e-05   4.345895e+00   3.916313e+01   2.822525e+00   3.236200e+05   1.431285e+06  -4.155892e+05   0.000000e+00   0.000000e+00   0.000000e+00   1.525130e+06   0.000000e+00   0.000000e+00   0.000000e+00
     1320000   1.319999e-05   4.371785e+00   3.927763e+01   2.789278e+00   3.236200e+05   1.431285e+06  -4.155892e+05   0.000000e+00   0.000000e+00   0.000000e+00   1.525130e+06   0.000000e+00   0.000000e+00   0.000000e+00
     1328000   1.327999e-05   4.397674e+00   3.939214e+01   2.756031e+00   3.236200e+05   1.431285e+06  -4.155892e+05   0.000000e+00   0.000000e+00   0.000000e+00   1.525130e+06   0.000000e+00   0.000000e+00   0.000000e+00
     1336000   1.335999e-05   4.423564e+00   3.950664e+01   2.722784e+00   3.236200e+05   1.431285e+06  -4.155892e+05   0.000000e+00   0.000000e+00   0.000000e+00   1.525130e+06   0.000000e+00   0.000000e+00   0.000000e+00
     1344000   1.343999e-05   4.449453e+00   3.962114e+01   2.689537e+00   3.236200e+05   1.431285e+06  -4.155892e+05   0.000000e+00   0.000000e+00   0.000000e+00   1.525130e+06   0.000000e+00   0.000000e+00   0.000000e+00
     1352000   1.351999e-05   4.475343e+00   3.973564e+01   2.656290e+00   3.236200e+05   1.431285e+06  -4.155892e+05   0.000000e+00   0.000000e+00   0.000000e+00   1.525130e+06   0.000000e+00   0.000000e+00   0.000000e+00
     1360000   1.359999e-05   4.501233e+00   3.985015e+01   2.623042e+00   3.236200e+05   1.431285e+06  -4.155892e+05   0.000000e+00   0.000000e+00   0.000000e+00   1.525130e+06   0.000000e+00   0.000000e+00   0.000000e+00
     1368000   1.367999e-05   4.527122e+00   3.996465e+01   2.589795e+00   3.236200e+05   1.431285e+06  -4.155892e+05   0.000000e+00   0.000000e+00   0.000000e+00   1.525130e+06   0.000000e+00   0.000000e+00   0.000000e+00
     1376000   1.375999e-05   4.553012e+00   4.007915e+01   2.556548e+00   3.236200e+05   1.431285e+06  -4.155892e+05   0.000000e+00   0.000000e+00   0.000000e+00   1.525130e+06   0.000000e+00   0.000000e+00   0.000000e+00
     1384000   1.383999e-05   4.578901e+00   4.019366e+01   2.523301e+00   3.236200e+05   1.431285e+06  -4.155892e+05   0.000000e+00   0.000000e+00   0.000000e+00   1.525130e+06   0.000000e+00   0.000000e+00   0.000000e+00
     1392000   1.391999e-05   4.604791e+00   4.030816e+01   2.490054e+00   3.236200e+05   1.431285e+06  -4.155892e+05   0.000000e+00   0.000000e+00   0.000000e+00   1.525130e+06   0.000000e+00   0.000000e+00   0.000000e+00
     1400000   1.399999e-05   4.630681e+00   4.042266e+01   2.456807e+00   3.236200e+05   1.431285e+06  -4.155892e+05   0.000000e+00   0.000000e+00   0.000000e+00   1.525130e+06   0.000000e+00   0.000000e+00   0.000000e+00
     1408000   1.407999e-05   4.656570e+00   4.053716e+01   2.423560e+00   3.236200e+05   1.431285e+06  -4.155892e+05   0.000000e+00   0.000000e+00   0.000000e+00   1.525130e+06   0.000000e+00   0.000000e+00   0.000000e+00
     1416000   1.415999e-05   4.682460e+00   4.065167e+01   2.390312e+00   3.236200e+05   1.431285e+06  -4.155892e+05   0.000000e+00   0.000000e+00   0.000000e+00   1.525130e+06   0.000000e+00   0.000000e+00   0.000000e+00
     1424000   1.423999e-05   4.708349e+00   4.076617e+01   2.357065e+00   3.236200e+05   1.431285e+06  -4.155892e+05   0.000000e+00   0.000000e+00   0.000000e+00   1.525130e+06   0.000000e+00   0.000000e+00   0.000000e+00
     1432000   1.431999e-05   4.734239e+00   4.088067e+01   2.323818e+00   3.236200e+05   1.431285e+06  -4.155892e+05   0.000000e+00   0.000000e+00   0.000000e+00   1.525130e+06   0.000000e+00   0.000000e+00   0.000000e+00
     1440000   1.439999e-05   4.760129e+00   4.099517e+01   2.290571e+00   3.236200e+05   1.431285e+06  -4.155892e+05   0.000000e+00   0.000000e+00   0.000000e+00   1.525130e+06   0.000000e+00   0.000000e+00   0.000000e+00
     1448000   1.447999e-05   4.786018e+00   4.110968e+01   2.257324e+00   3.236200e+05   1.431285e+06  -4.155892e+05   0.000000e+00   0.000000e+00   0.000000e+00   1.525130e+06   0.000000e+00   0.000000e+00   0.000000e+00
     1456000   1.455999e-05   4.811908e+00   4.122418e+01   2.224077e+00   3.236200e+05   1.431285e+06  -4.155892e+05   0.000000e+00   0.000000e+00   0.000000e+00   1.525130e+06   0.000000e+00   0.000000e+00   0.000000e+00
     1464000   1.463999e-05   4.837797e+00   4.133868e+01   2.190830e+00   3.236200e+05   1.431285e+06  -4.155892e+05   0.000000e+00   0.000000e+00   0.000000e+00   1.525130e+06   0.000000e+00   0.000000e+00   0.000000e+00
     1472000   1.471999e-05   4.863687e+00   4.145319e+01   2.157582e+00   3.236200e+05   1.431285e+06  -4.155892e+05   0.000000e+00   0.000000e+00   0.000000e+00   1.525130e+06   0.000000e+00   0.000000e+00   0.000000e+00
     1480000   1.479999e-05   4.889577e+00   4.156769e+01   2.124335e+00   3.236200e+05   1.431285e+06  -4.155892e+05   0.000000e+00   0.000000e+00   0.000000e+00   1.525130e+06   0.000000e+00   0.000000e+00   0.000000e+00
     1488000   1.487999e-05   4.915466e+00   4.168219e+01   2.091088e+00   3.236200e+05   1.431285e+06  -4.155892e+05   0.000000e+00   0.000000e+00   0.000000e+00   1.525130e+06   0.000000e+00   0.000000e+00   0.000000e+00
     1496000   1.495999e-05   4.941356e+00   4.179669e+01   2.057841e+00   3.236200e+05   1.431285e+06  -4.155892e+05   0.000000e+00   0.000000e+00   0.000000e+00   1.525130e+06   0.000000e+00   0.000000e+00   0.000000e+00
     1504000   1.503999e-05   4.967245e+00   4.191120e+01   2.024594e+00   3.236200e+05   1.431285e+06  -4.155892e+05   0.000000e+00   0.000000e+00   0.000000e+00   1.525130e+06   0.000000e+00   0.000000e+00   0.000000e+00
     1512000   1.511999e-05   4.993135e+00   4.202570e+01   1.991347e+00   3.236200e+05   1.431285e+06  -4.155892e+05   0.000000e+00   0.000000e+00   0.000000e+00   1.525130e+06   0.000000e+00   0.000000e+00   0.000000e+00
     1520000   1.519999e-05   5.019025e+00   4.214020e+01   1.958100e+00   3.236200e+05   1.431285e+06  -4.155892e+05   0.000000e+00   0.000000e+00   0.000000e+00   1.525130e+06   0.000000e+00   0.000000e+00   0.000000e+00
     1528000   1.527999e-05   5.044914e+00   4.225470e+01   1.924852e+00   3.236200e+05   1.431285e+06  -4.155892e+05   0.000000e+00   0.000000e+00   0.000000e+00   1.525130e+06   0.000000e+00   0.000000e+00   0.000000e+00
     1536000   1.535999e-05   5.070804e+00   4.236921e+01   1.891605e+00   3.236200e+05   1.431285e+06  -4.155892e+05   0.000000e+00   0.000000e+00   0.000000e+00   1.525130e+06   0.000000e+00   0.000000e+00   0.000000e+00
     1544000   1.543999e-05   5.096694e+00   4.248371e+01   1.858358e+00   3.236200e+05   1.431285e+06  -4.155892e+05   0.000000e+00   0.000000e+00   0.000000e+00   1.525130e+06   0.000000e+00   0.000000e+00   0.000000e+00
     1552000   1.551999e-05   5.122583e+00   4.259821e+01   1.825111e+00   3.236200e+05   1.431285e+06  -4.155892e+05   0.000000e+00   0.000000e+00   0.000000e+00   1.525130e+06   0.000000e+00   0.000000e+00   0.000000e+00
     1560000   1.559999e-05   5.148473e+00   4.271272e+01   1.791864e+00   3.236200e+05   1.431285e+06  -4.155892e+05   0.000000e+00   0.000000e+00   0.000000e+00   1.525130e+06   0.000000e+00   0.000000e+00   0.000000e+00
     1568000   1.567999e-05   5.174362e+00   4.282722e+01   1.758617e+00   3.236200e+05   1.431285e+06  -4.155892e+05   0.000000e+00   0.000000e+00   0.000000e+00   1.525130e+06   0.000000e+00   0.000000e+00   0.000000e+00
     1576000   1.575999e-05   5.200252e+00   4.294172e+01   1.725370e+00   3.236200e+05   1.431285e+06  -4.155892e+05   0.000000e+00   0.000000e+00   0.000000e+00   1.525130e+06   0.000000e+00   0.000000e+00   0.000000e+00
     1584000   1.583999e-05   5.226142e+00   4.305622e+01   1.692123e+00   3.236200e+05   1.431285e+06  -4.155892e+05   0.000000e+00   0.000000e+00   0.000000e+00   1.525130e+06   0.000000e+00   0.000000e+00   0.000000e+00
     1592000   1.591999e-05   5.252031e+00   4.317073e+01   1.658875e+00   3.236200e+05   1.431285e+06  -4.155892e+05   0.000000e+00   0.000000e+00   0.000000e+00   1.525130e+06   0.000000e+00   0.000000e+00   0.000000e+00
     1600000   1.599999e-05   5.277921e+00   4.328523e+01   1.625628e+00   3.236200e+05   1.431285e+06  -4.155892e+05   0.000000e+00   0.000000e+00   0.000000e+00   1.525130e+06   0.000000e+00   0.000000e+00   0.000000e+00
     1608000   1.607999e-05   5.303810e+00   4.339973e+01   1.592381e+00   3.236200e+05   1.431285e+06  -4.155892e+05   0.000000e+00   0.000000e+00   0.000000e+00   1.525130e+06   0.000000e+00   0.000000e+00   0.000000e+00
     1616000   1.615999e-05   5.329700e+00   4.351424e+01   1.559134e+00   3.236200e+05   1.431285e+06  -4.155892e+05   0.000000e+00   0.000000e+00   0.000000e+00   1.525130e+06   0.000000e+00   0.000000e+00   0.000000e+00
     1624000   1.623999e-05   5.355590e+00   4.362874e+01   1.525887e+00   3.236200e+05   1.431285e+06  -4.155892e+05   0.000000e+00   0.000000e+00   0.000000e+00   1.525130e+06   0.000000e+00   0.000000e+00   0.000000e+00
     1632000   1.631999e-05   5.381479e+00   4.374324e+01   1.492640e+00   3.236200e+05   1.431285e+06  -4.155892e+05   0.000000e+00   0.000000e+00   0.000000e+00   1.525130e+06   0.000000e+00   0.000000e+00   0.000000e+00
     1640000   1.639999e-05   5.407369e+00   4.385774e+01   1.459393e+00   3.236200e+05   1.431285e+06  -4.155892e+05   0.000000e+00   0.000000e+00   0.000000e+00   1.525130e+06   0.000000e+00   0.000000e+00   0.000000e+00
     1648000   1.647999e-05   5.433258e+00   4.397225e+01   1.426145e+00   3.236200e+05   1.431285e+06  -4.155892e+05   0.000000e+00   0.000000e+00   0.000000e+00   1.525130e+06   0.000000e+00   0.000000e+00   0.000000e+00
     1656000   1.655999e-05   5.459148e+00   4.408675e+01   1.392898e+00   3.236200e+05   1.431285e+06  -4.155892e+05   0.000000e+00   0.000000e+00   0.000000e+00   1.525130e+06   0.000000e+00   0.000000e+00   0.000000e+00
     1664000   1.663999e-05   5.485038e+00   4.420125e+01   1.359651e+00   3.236200e+05   1.431285e+06  -4.155892e+05   0.000000e+00   0.000000e+00   0.000000e+00   1.525130e+06   0.000000e+00   0.000000e+00   0.000000e+00
     1672000   1.671999e-05   5.510927e+00   4.431575e+01   1.326404e+00   3.236200e+05   1.431285e+06  -4.155892e+05   0.000000e+00   0.000000e+00   0.000000e+00   1.525130e+06   0.000000e+00   0.000000e+00   0.000000e+00
     1680000   1.679999e-05   5.536817e+00   4.443026e+01   1.293157e+00   3.236200e+05   1.431285e+06  -4.155892e+05   0.000000e+00   0.000000e+00   0.000000e+00   1.525130e+06   0.000000e+00   0.000000e+00   0.000000e+00
     1688000   1.687999e-05   5.562706e+00   4.454476e+01   1.259910e+00   3.236200e+05   1.431285e+06  -4.155892e+05   0.000000e+00   0.000000e+00   0.000000e+00   1.525130e+06   0.000000e+00   0.000000e+00   0.000000e+00
     1696000   1.695999e-05   5.588596e+00   4.465926e+01   1.226663e+00   3.236200e+05   1.431285e+06  -4.155892e+05   0.000000e+00   0.000000e+00   0.000000e+00   1.525130e+06   0.000000e+00   0.000000e+00   0.000000e+00
     1704000   1.703999e-05   5.614486e+00   4.477377e+01   1.193415e+00   3.236200e+05   1.431285e+06  -4.155892e+05   0.000000e+00   0.000000e+00   0.000000e+00   1.525130e+06   0.000000e+00   0.000000e+00   0.000000e+00
     1712000   1.711999e-05   5.640375e+00   4.488827e+01   1.160168e+00   3.236200e+05   1.431285e+06  -4.155892e+05   0.000000e+00   0.000000e+00   0.000000e+00   1.525130e+06   0.000000e+00   0.000000e+00   0.000000e+00
     1720000   1.719999e-05   5.666265e+00   4.500277e+01   1.126921e+00   3.236200e+05   1.431285e+06  -4.155892e+05   0.000000e+00   0.000000e+00   0.000000e+00   1.525130e+06   0.000000e+00   0.000000e+00   0.000000e+00
     1728000   1.727999e-05   5.692154e+00   4.511727e+01   1.093674e+00   3.236200e+05   1.431285e+06  -4.155892e+05   0.000000e+00   0.000000e+00   0.000000e+00   1.525130e+06   0.000000e+00   0.000000e+00   0.000000e+00
     1736000   1.735999e-05   5.718044e+00   4.523178e+01   1.060427e+00   3.236200e+05   1.431285e+06  -4.155892e+05   0.000000e+00   0.000000e+00   0.000000e+00   1.525130e+06   0.000000e+00   0.000000e+00   0.000000e+00
     1744000   1.743999e-05   5.743934e+00   4.534628e+01   1.027180e+00   3.236200e+05   1.431285e+06  -4.155892e+05   0.000000e+00   0.000000e+00   0.000000e+00   1.525130e+06   0.000000e+00   0.000000e+00   0.000000e+00
     1752000   1.751999e-05   5.769823e+00   4.546078e+01   9.939326e-01   3.236200e+05   1.431285e+06  -4.155892e+05   0.000000e+00   0.000000e+00   0.000000e+00   1.525130e+06   0.000000e+00   0.000000e+00   0.000000e+00
     1760000   1.759999e-05   5.795713e+00   4.557529e+01   9.606855e-01   3.236200e+05   1.431285e+06  -4.155892e+05   0.000000e+00   0.000000e+00   0.000000e+00   1.525130e+06   0.000000e+00   0.000000e+00   0.000000e+00
     1768000   1.767999e-05   5.821602e+00   4.568979e+01   9.274383e-01   3.236200e+05   1.431285e+06  -4.155892e+05   0.000000e+00   0.000000e+00   0.000000e+00   1.525130e+06   0.000000e+00   0.000000e+00   0.000000e+00
     1776000   1.775999e-05   5.847492e+00   4.580429e+01   8.941912e-01   3.236200e+05   1.431285e+06  -4.155892e+05   0.000000e+00   0.000000e+00   0.000000e+00   1.525130e+06   0.000000e+00   0.000000e+00   0.000000e+00
     1784000   1.783999e-05   5.873382e+00   4.591879e+01   8.609440e-01   3.236200e+05   1.431285e+06  -4.155892e+05   0.000000e+00   0.000000e+00   0.000000e+00   1.525130e+06   0.000000e+00   0.000000e+00   0.000000e+00
     1792000   1.791999e-05   5.899271e+00   4.603330e+01   8.276969e-01   3.236200e+05   1.431285e+06  -4.155892e+05   0.000000e+00   0.000000e+00   0.000000e+00   1.525130e+06   0.000000e+00   0.000000e+00   0.000000e+00
     1800000   1.799999e-05   5.925161e+00   4.614780e+01   7.944498e-01   3.236200e+05   1.431285e+06  -4.155892e+05   0.000000e+00   0.000000e+00   0.000000e+00   1.525130e+06   0.000000e+00   0.000000e+00   0.000000e+00
     1808000   1.807999e-05   5.951050e+00   4.626230e+01   7.612026e-01   3.236200e+05   1.431285e+06  -4.155892e+05   0.000000e+00   0.000000e+00   0.000000e+00   1.525130e+06   0.000000e+00   0.000000e+00   0.000000e+00
     1816000   1.815999e-05   5.976940e+00   4.637680e+01   7.279555e-01   3.236200e+05   1.431285e+06  -4.155892e+05   0.000000e+00   0.000000e+00   0.000000e+00   1.525130e+06   0.000000e+00   0.000000e+00   0.000000e+00
     1824000   1.823999e-05   6.002830e+00   4.649131e+01   6.947083e-01   3.236200e+05   1.431285e+06  -4.155892e+05   0.000000e+00   0.000000e+00   0.000000e+00   1.525130e+06   0.000000e+00   0.000000e+00   0.000000e+00
     1832000   1.831999e-05   6.028719e+00   4.660581e+01   6.614612e-01   3.236200e+05   1.431285e+06  -4.155892e+05   0.000000e+00   0.000000e+00   0.000000e+00   1.525130e+06   0.000000e+00   0.000000e+00   0.000000e+00
     1840000   1.839999e-05   6.054609e+00   4.672031e+01   6.282141e-01   3.236200e+05   1.431285e+06  -4.155892e+05   0.000000e+00   0.000000e+00   0.000000e+00   1.525130e+06   0.000000e+00   0.000000e+00   0.000000e+00
     1848000   1.847999e-05   6.080498e+00   4.683482e+01   5.949669e-01   3.236200e+05   1.431285e+06  -4.155892e+05   0.000000e+00   0.000000e+00   0.000000e+00   1.525130e+06   0.000000e+00   0.000000e+00   0.000000e+00
     1856000   1.855999e-05   6.106388e+00   4.694932e+01   5.617198e-01   3.236200e+05   1.431285e+06  -4.155892e+05   0.000000e+00   0.000000e+00   0.000000e+00   1.525130e+06   0.000000e+00   0.000000e+00   0.000000e+00
     1864000   1.863999e-05   6.132278e+00   4.706382e+01   5.284727e-01   3.236200e+05   1.431285e+06  -4.155892e+05   0.000000e+00   0.000000e+00   0.000000e+00   1.525130e+06   0.000000e+00   0.000000e+00   0.000000e+00
     1872000   1.871999e-05   6.158167e+00   4.717832e+01   4.952255e-01   3.236200e+05   1.431285e+06  -4.155892e+05   0.000000e+00   0.000000e+00   0.000000e+00   1.525130e+06   0.000000e+00   0.000000e+00   0.000000e+00
     1880000   1.879999e-05   6.184057e+00   4.729283e+01   4.619784e-01   3.236200e+05   1.431285e+06  -4.155892e+05   0.000000e+00   0.000000e+00   0.000000e+00   1.525130e+06   0.000000e+00   0.000000e+00   0.000000e+00
     1888000   1.887999e-05   6.209946e+00   4.740733e+01   4.287312e-01   3.236200e+05   1.431285e+06  -4.155892e+05   0.000000e+00   0.000000e+00   0.000000e+00   1.525130e+06   0.000000e+00   0.000000e+00   0.000000e+00
     1896000   1.895999e-05   6.235836e+00   4.752183e+01   3.954841e-01   3.236200e+05   1.431285e+06  -4.155892e+05   0.000000e+00   0.000000e+00   0.000000e+00   1.525130e+06   0.000000e+00   0.000000e+00   0.000000e+00
     1904000   1.903999e-05   6.261726e+00   4.763634e+01   3.622370e-01   3.236200e+05   1.431285e+06  -4.155892e+05   0.000000e+00   0.000000e+00   0.000000e+00   1.525130e+06   0.000000e+00   0.000000e+00   0.000000e+00
     1912000   1.911999e-05   6.287615e+00   4.775084e+01   3.289898e-01   3.236200e+05   1.431285e+06  -4.155892e+05   0.000000e+00   0.000000e+00   0.000000e+00   1.525130e+06   0.000000e+00   0.000000e+00   0.000000e+00
     1920000   1.919999e-05   6.313505e+00   4.786534e+01   2.957427e-01   3.236200e+05   1.431285e+06  -4.155892e+05   0.000000e+00   0.000000e+00   0.000000e+00   1.525130e+06   0.000000e+00   0.000000e+00   0.000000e+00
     1928000   1.927999e-05   6.339394e+00   4.797984e+01   2.624955e-01   3.236200e+05   1.431285e+06  -4.155892e+05   0.000000e+00   0.000000e+00   0.000000e+00   1.525130e+06   0.000000e+00   0.000000e+00   0.000000e+00
     1936000   1.935999e-05   6.365284e+00   4.809435e+01   2.292484e-01   3.236200e+05   1.431285e+06  -4.155892e+05   0.000000e+00   0.000000e+00   0.000000e+00   1.525130e+06   0.000000e+00   0.000000e+00   0.000000e+00
     1944000   1.943999e-05   6.391174e+00   4.820885e+01   1.960013e-01   3.236200e+05   1.431285e+06  -4.155892e+05   0.000000e+00   0.000000e+00   0.000000e+00   1.525130e+06   0.000000e+00   0.000000e+00   0.000000e+00
     1952000   1.951999e-05   6.417063e+00   4.832335e+01   1.627541e-01   3.236200e+05   1.431285e+06  -4.155892e+05   0.000000e+00   0.000000e+00   0.000000e+00   1.525130e+06   0.000000e+00   0.000000e+00   0.000000e+00
     1960000   1.959999e-05   6.442953e+00   4.843785e+01   1.295070e-01   3.236200e+05   1.431285e+06  -4.155892e+05   0.000000e+00   0.000000e+00   0.000000e+00   1.525130e+06   0.000000e+00   0.000000e+00   0.000000e+00
     1968000   1.967999e-05   6.468842e+00   4.855236e+01   9.625985e-02   3.236200e+05   1.431285e+06  -4.155892e+05   0.000000e+00   0.000000e+00   0.000000e+00   1.525130e+06   0.000000e+00   0.000000e+00   0.000000e+00
     1976000   1.975999e-05   6.494732e+00   4.866686e+01   6.301271e-02   3.236200e+05   1.431285e+06  -4.155892e+05   0.000000e+00   0.000000e+00   0.000000e+00   1.525130e+06   0.000000e+00   0.000000e+00   0.000000e+00
     1984000   1.983999e-05   6.520622e+00   4.878136e+01   2.976557e-02   3.236200e+05   1.431285e+06  -4.155892e+05   0.000000e+00   0.000000e+00   0.000000e+00   1.525130e+06   0.000000e+00   0.000000e+00   0.000000e+00
