     timestep     time              x             y              z              vx             vy             vz             ax             ay             az         v_magnitude      ELoss        Electronic      Nuclear
           0   0.000000e+00   1.000000e-01   1.951318e+01   9.961790e+00   1.223380e+06   2.025148e+06  -2.469734e+05   0.000000e+00   0.000000e+00   0.000000e+00   2.378840e+06   0.000000e+00   0.000000e+00   0.000000e+00
        8000   7.999000e-08   1.978704e-01   1.967519e+01   9.942032e+00   1.223380e+06   2.025148e+06  -2.469734e+05   0.000000e+00   0.000000e+00   0.000000e+00   2.378840e+06   0.000000e+00   0.000000e+00   0.000000e+00
       16000   1.599900e-07   2.957408e-01   1.983720e+01   9.922274e+00   1.223380e+06   2.025148e+06  -2.469734e+05   0.000000e+00   0.000000e+00   0.000000e+00   2.378840e+06   0.000000e+00   0.000000e+00   0.000000e+00
       24000   2.399900e-07   3.936111e-01   1.999921e+01   9.902516e+00   1.223380e+06   2.025148e+06  -2.469734e+05   0.000000e+00   0.000000e+00   0.000000e+00   2.378840e+06   0.000000e+00   0.000000e+00   0.000000e+00
       32000   3.199900e-07   4.914815e-01   2.016122e+01   9.882759e+00   1.223380e+06   2.025148e+06  -2.469734e+05   0.000000e+00   0.000000e+00   0.000000e+00   2.378840e+06   0.000000e+00   0.000000e+00   0.000000e+00
       40000   3.999900e-07   5.893519e-01   2.032324e+01   9.863001e+00   1.223380e+06   2.025148e+06  -2.469734e+05   0.000000e+00   0.000000e+00   0.000000e+00   2.378840e+06   0.000000e+00   0.000000e+00   0.000000e+00
       48000   4.799900e-07   6.872223e-01   2.048525e+01   9.843243e+00   1.223380e+06   2.025148e+06  -2.469734e+05   0.000000e+00   0.000000e+00   0.000000e+00   2.378840e+06   0.000000e+00   0.000000e+00   0.000000e+00
       56000   5.599900e-07   7.850927e-01   2.064726e+01   9.823485e+00   1.223380e+06   2.025148e+06  -2.469734e+05   0.000000e+00   0.000000e+00   0.000000e+00   2.378840e+06   0.000000e+00   0.000000e+00   0.000000e+00
       64000   6.399900e-07   8.829630e-01   2.080927e+01   9.803727e+00   1.223380e+06   2.025148e+06  -2.469734e+05   0.000000e+00   0.000000e+00   0.000000e+00   2.378840e+06   0.000000e+00   0.000000e+00   0.000000e+00
       72000   7.199900e-07   9.808334e-01   2.097128e+01   9.783969e+00   1.223380e+06   2.025148e+06  -2.469734e+05   0.000000e+00   0.000000e+00   0.000000e+00   2.378840e+06   0.000000e+00   0.000000e+00   0.000000e+00
       80000   7.999900e-07   1.078704e+00   2.113329e+01   9.764211e+00   1.223380e+06   2.025148e+06  -2.469734e+05   0.000000e+00   0.000000e+00   0.000000e+00   2.378840e+06   0.000000e+00   0.000000e+00   0.000000e+00
       88000   8.799900e-07   1.176574e+00   2.129531e+01   9.744453e+00   1.223380e+06   2.025148e+06  -2.469734e+05   0.000000e+00   0.000000e+00   0.000000e+00   2.378840e+06   0.000000e+00   0.000000e+00   0.000000e+00
       96000   9.599900e-07   1.274445e+00   2.145732e+01   9.724696e+00   1.223380e+06   2.025148e+06  -2.469734e+05   0.000000e+00   0.000000e+00   0.000000e+00   2.378840e+06   0.000000e+00   0.000000e+00   0.000000e+00
      104000   1.039990e-06   1.372315e+00   2.161933e+01   9.704938e+00   1.223380e+06   2.025148e+06  -2.469734e+05   0.000000e+00   0.000000e+00   0.000000e+00   2.378840e+06   0.000000e+00   0.000000e+00   0.000000e+00
      112000   1.119990e-06   1.470185e+00   2.178134e+01   9.685180e+00   1.223380e+06   2.025148e+06  -2.469734e+05   0.000000e+00   0.000000e+00   0.000000e+00   2.378840e+06   0.000000e+00   0.000000e+00   0.000000e+00
      120000   1.199990e-06   1.568056e+00   2.194335e+01   9.665422e+00   1.223380e+06   2.025148e+06  -2.469734e+05   0.000000e+00   0.000000e+00   0.000000e+00   2.378840e+06   0.000000e+00   0.000000e+00   0.000000e+00
      128000   1.279990e-06   1.665926e+00   2.210537e+01   9.645664e+00   1.223380e+06   2.025148e+06  -2.469734e+05   0.000000e+00   0.000000e+00   0.000000e+00   2.378840e+06   0.000000e+00   0.000000e+00   0.000000e+00
      136000   1.359990e-06   1.763796e+00   2.226738e+01   9.625906e+00   1.223380e+06   2.025148e+06  -2.469734e+05   0.000000e+00   0.000000e+00   0.000000e+00   2.378840e+06   0.000000e+00   0.000000e+00   0.000000e+00
      144000   1.439990e-06   1.861667e+00   2.242939e+01   9.606148e+00   1.223380e+06   2.025148e+06  -2.469734e+05   0.000000e+00   0.000000e+00   0.000000e+00   2.378840e+06   0.000000e+00   0.000000e+00   0.000000e+00
      152000   1.519990e-06   1.959537e+00   2.259140e+01   9.586390e+00   1.223380e+06   2.025148e+06  -2.469734e+05   0.000000e+00   0.000000e+00   0.000000e+00   2.378840e+06   0.000000e+00   0.000000e+00   0.000000e+00
      160000   1.599990e-06   2.057408e+00   2.275341e+01   9.566633e+00   1.223380e+06   2.025148e+06  -2.469734e+05   0.000000e+00   0.000000e+00   0.000000e+00   2.378840e+06   0.000000e+00   0.000000e+00   0.000000e+00
      168000   1.679990e-06   2.155278e+00   2.291542e+01   9.546875e+00   1.223380e+06   2.025148e+06  -2.469734e+05   0.000000e+00   0.000000e+00   0.000000e+00   2.378840e+06   0.000000e+00   0.000000e+00   0.000000e+00
      176000   1.759990e-06   2.253148e+00   2.307744e+01   9.527117e+00   1.223380e+06   2.025148e+06  -2.469734e+05   0.000000e+00   0.000000e+00   0.000000e+00   2.378840e+06   0.000000e+00   0.000000e+00   0.000000e+00
      184000   1.839990e-06   2.351019e+00   2.323945e+01   9.507359e+00   1.223380e+06   2.025148e+06  -2.469734e+05   0.000000e+00   0.000000e+00   0.000000e+00   2.378840e+06   0.000000e+00   0.000000e+00   0.000000e+00
      192000   1.919990e-06   2.448889e+00   2.340146e+01   9.487601e+00   1.223380e+06   2.025148e+06  -2.469734e+05   0.000000e+00   0.000000e+00   0.000000e+00   2.378840e+06   0.000000e+00   0.000000e+00   0.000000e+00
      200000   1.999990e-06   2.546759e+00   2.356347e+01   9.467843e+00   1.223380e+06   2.025148e+06  -2.469734e+05   0.000000e+00   0.000000e+00   0.000000e+00   2.378840e+06   0.000000e+00   0.000000e+00   0.000000e+00
      208000   2.079990e-06   2.644630e+00   2.372548e+01   9.448085e+00   1.223380e+06   2.025148e+06  -2.469734e+05   0.000000e+00   0.000000e+00   0.000000e+00   2.378840e+06   0.000000e+00   0.000000e+00   0.000000e+00
      216000   2.159990e-06   2.742500e+00   2.388750e+01   9.428327e+00   1.223380e+06   2.025148e+06  -2.469734e+05   0.000000e+00   0.000000e+00   0.000000e+00   2.378840e+06   0.000000e+00   0.000000e+00   0.000000e+00
      224000   2.239990e-06   2.840371e+00   2.404951e+01   9.408570e+00   1.223380e+06   2.025148e+06  -2.469734e+05   0.000000e+00   0.000000e+00   0.000000e+00   2.378840e+06   0.000000e+00   0.000000e+00   0.000000e+00
      232000   2.319990e-06   2.938241e+00   2.421152e+01   9.388812e+00   1.223380e+06   2.025148e+06  -2.469734e+05   0.000000e+00   0.000000e+00   0.000000e+00   2.378840e+06   0.000000e+00   0.000000e+00   0.000000e+00
      240000   2.399990e-06   3.036111e+00   2.437353e+01   9.369054e+00   1.223380e+06   2.025148e+06  -2.469734e+05   0.000000e+00   0.000000e+00   0.000000e+00   2.378840e+06   0.000000e+00   0.000000e+00   0.000000e+00
      248000   2.479990e-06   3.133982e+00   2.453554e+01   9.349296e+00   1.223380e+06   2.025148e+06  -2.469734e+05   0.000000e+00   0.000000e+00   0.000000e+00   2.378840e+06   0.000000e+00   0.000000e+00   0.000000e+00
      256000   2.559990e-06   3.231852e+00   2.469756e+01   9.329538e+00   1.223380e+06   2.025148e+06  -2.469734e+05   0.000000e+00   0.000000e+00   0.000000e+00   2.378840e+06   0.000000e+00   0.000000e+00   0.000000e+00
      264000   2.639990e-06   3.329723e+00   2.485957e+01   9.309780e+00   1.223380e+06   2.025148e+06  -2.469734e+05   0.000000e+00   0.000000e+00   0.000000e+00   2.378840e+06   0.000000e+00   0.000000e+00   0.000000e+00
      272000   2.719990e-06   3.427593e+00   2.502158e+01   9.290022e+00   1.223380e+06   2.025148e+06  -2.469734e+05   0.000000e+00   0.000000e+00   0.000000e+00   2.378840e+06   0.000000e+00   0.000000e+00   0.000000e+00
      280000   2.799990e-06   3.525463e+00   2.518359e+01   9.270264e+00   1.223380e+06   2.025148e+06  -2.469734e+05   0.000000e+00   0.000000e+00   0.000000e+00   2.378840e+06   0.000000e+00   0.000000e+00   0.000000e+00
      288000   2.879990e-06   3.623334e+00   2.534560e+01   9.250507e+00   1.223380e+06   2.025148e+06  -2.469734e+05   0.000000e+00   0.000000e+00   0.000000e+00   2.378840e+06   0.000000e+00   0.000000e+00   0.000000e+00
      296000   2.959990e-06   3.721204e+00   2.550761e+01   9.230749e+00   1.223380e+06   2.025148e+06  -2.469734e+05   0.000000e+00   0.000000e+00   0.000000e+00   2.378840e+06   0.000000e+00   0.000000e+00   0.000000e+00
      304000   3.039990e-06   3.819074e+00   2.566963e+01   9.210991e+00   1.223380e+06   2.025148e+06  -2.469734e+05   0.000000e+00   0.000000e+00   0.000000e+00   2.378840e+06   0.000000e+00   0.000000e+00   0.000000e+00
      312000   3.119990e-06   3.916945e+00   2.583164e+01   9.191233e+00   1.223380e+06   2.025148e+06  -2.469734e+05   0.000000e+00   0.000000e+00   0.000000e+00   2.378840e+06   0.000000e+00   0.000000e+00   0.000000e+00
      320000   3.199990e-06   4.014815e+00   2.599365e+01   9.171475e+00   1.223380e+06   2.025148e+06  -2.469734e+05   0.000000e+00   0.000000e+00   0.000000e+00   2.378840e+06   0.000000e+00   0.000000e+00   0.000000e+00
      328000   3.279990e-06   4.112686e+00   2.615566e+01   9.151717e+00   1.223380e+06   2.025148e+06  -2.469734e+05   0.000000e+00   0.000000e+00   0.000000e+00   2.378840e+06   0.000000e+00   0.000000e+00   0.000000e+00
      336000   3.359990e-06   4.210556e+00   2.631767e+01   9.131959e+00   1.223380e+06   2.025148e+06  -2.469734e+05   0.000000e+00   0.000000e+00   0.000000e+00   2.378840e+06   0.000000e+00   0.000000e+00   0.000000e+00
      344000   3.439990e-06   4.308426e+00   2.647969e+01   9.112201e+00   1.223380e+06   2.025148e+06  -2.469734e+05   0.000000e+00   0.000000e+00   0.000000e+00   2.378840e+06   0.000000e+00   0.000000e+00   0.000000e+00
      352000   3.519990e-06   4.406297e+00   2.664170e+01   9.092444e+00   1.223380e+06   2.025148e+06  -2.469734e+05   0.000000e+00   0.000000e+00   0.000000e+00   2.378840e+06   0.000000e+00   0.000000e+00   0.000000e+00
      360000   3.599990e-06   4.504167e+00   2.680371e+01   9.072686e+00   1.223380e+06   2.025148e+06  -2.469734e+05   0.000000e+00   0.000000e+00   0.000000e+00   2.378840e+06   0.000000e+00   0.000000e+00   0.000000e+00
      368000   3.679990e-06   4.602037e+00   2.696572e+01   9.052928e+00   1.223380e+06   2.025148e+06  -2.469734e+05   0.000000e+00   0.000000e+00   0.000000e+00   2.378840e+06   0.000000e+00   0.000000e+00   0.000000e+00
      376000   3.759990e-06   4.699908e+00   2.712773e+01   9.033170e+00   1.223380e+06   2.025148e+06  -2.469734e+05   0.000000e+00   0.000000e+00   0.000000e+00   2.378840e+06   0.000000e+00   0.000000e+00   0.000000e+00
      384000   3.839990e-06   4.797778e+00   2.728974e+01   9.013412e+00   1.223380e+06   2.025148e+06  -2.469734e+05   0.000000e+00   0.000000e+00   0.000000e+00   2.378840e+06   0.000000e+00   0.000000e+00   0.000000e+00
      392000   3.919990e-06   4.895649e+00   2.745176e+01   8.993654e+00   1.223380e+06   2.025148e+06  -2.469734e+05   0.000000e+00   0.000000e+00   0.000000e+00   2.378840e+06   0.000000e+00   0.000000e+00   0.000000e+00
      400000   3.999990e-06   4.993519e+00   2.761377e+01   8.973896e+00   1.223380e+06   2.025148e+06  -2.469734e+05   0.000000e+00   0.000000e+00   0.000000e+00   2.378840e+06   0.000000e+00   0.000000e+00   0.000000e+00
      408000   4.079990e-06   5.091389e+00   2.777578e+01   8.954139e+00   1.223380e+06   2.025148e+06  -2.469734e+05   0.000000e+00   0.000000e+00   0.000000e+00   2.378840e+06   0.000000e+00   0.000000e+00   0.000000e+00
      416000   4.159990e-06   5.189260e+00   2.793779e+01   8.934381e+00   1.223380e+06   2.025148e+06  -2.469734e+05   0.000000e+00   0.000000e+00   0.000000e+00   2.378840e+06   0.000000e+00   0.000000e+00   0.000000e+00
      424000   4.239990e-06   5.287130e+00   2.809980e+01   8.914623e+00   1.223380e+06   2.025148e+06  -2.469734e+05   0.000000e+00   0.000000e+00   0.000000e+00   2.378840e+06   0.000000e+00   0.000000e+00   0.000000e+00
      432000   4.319990e-06   5.385000e+00   2.826182e+01   8.894865e+00   1.223380e+06   2.025148e+06  -2.469734e+05   0.000000e+00   0.000000e+00   0.000000e+00   2.378840e+06   0.000000e+00   0.000000e+00   0.000000e+00
      440000   4.399990e-06   5.482871e+00   2.842383e+01   8.875107e+00   1.223380e+06   2.025148e+06  -2.469734e+05   0.000000e+00   0.000000e+00   0.000000e+00   2.378840e+06   0.000000e+00   0.000000e+00   0.000000e+00
      448000   4.479990e-06   5.580741e+00   2.858584e+01   8.855349e+00   1.223380e+06   2.025148e+06  -2.469734e+05   0.000000e+00   0.000000e+00   0.000000e+00   2.378840e+06   0.000000e+00   0.000000e+00   0.000000e+00
      456000   4.559990e-06   5.678612e+00   2.874785e+01   8.835591e+00   1.223380e+06   2.025148e+06  -2.469734e+05   0.000000e+00   0.000000e+00   0.000000e+00   2.378840e+06   0.000000e+00   0.000000e+00   0.000000e+00
      464000   4.639990e-06   5.776482e+00   2.890986e+01   8.815833e+00   1.223380e+06   2.025148e+06  -2.469734e+05   0.000000e+00   0.000000e+00   0.000000e+00   2.378840e+06   0.000000e+00   0.000000e+00   0.000000e+00
      472000   4.719990e-06   5.874352e+00   2.907187e+01   8.796076e+00   1.223380e+06   2.025148e+06  -2.469734e+05   0.000000e+00   0.000000e+00   0.000000e+00   2.378840e+06   0.000000e+00   0.000000e+00   0.000000e+00
      480000   4.799990e-06   5.972223e+00   2.923389e+01   8.776318e+00   1.223380e+06   2.025148e+06  -2.469734e+05   0.000000e+00   0.000000e+00   0.000000e+00   2.378840e+06   0.000000e+00   0.000000e+00   0.000000e+00
      488000   4.879990e-06   6.070093e+00   2.939590e+01   8.756560e+00   1.223380e+06   2.025148e+06  -2.469734e+05   0.000000e+00   0.000000e+00   0.000000e+00   2.378840e+06   0.000000e+00   0.000000e+00   0.000000e+00
      496000   4.959990e-06   6.167964e+00   2.955791e+01   8.736802e+00   1.223380e+06   2.025148e+06  -2.469734e+05   0.000000e+00   0.000000e+00   0.000000e+00   2.378840e+06   0.000000e+00   0.000000e+00   0.000000e+00
      504000   5.039990e-06   6.265834e+00   2.971992e+01   8.717044e+00   1.223380e+06   2.025148e+06  -2.469734e+05   0.000000e+00   0.000000e+00   0.000000e+00   2.378840e+06   0.000000e+00   0.000000e+00   0.000000e+00
      512000   5.119990e-06   6.363704e+00   2.988193e+01   8.697286e+00   1.223380e+06   2.025148e+06  -2.469734e+05   0.000000e+00   0.000000e+00   0.000000e+00   2.378840e+06   0.000000e+00   0.000000e+00   0.000000e+00
      520000   5.199990e-06   6.461575e+00   3.004395e+01   8.677528e+00   1.223380e+06   2.025148e+06  -2.469734e+05   0.000000e+00   0.000000e+00   0.000000e+00   2.378840e+06   0.000000e+00   0.000000e+00   0.000000e+00
      528000   5.279990e-06   6.559445e+00   3.020596e+01   8.657770e+00   1.223380e+06   2.025148e+06  -2.469734e+05   0.000000e+00   0.000000e+00   0.000000e+00   2.378840e+06   0.000000e+00   0.000000e+00   0.000000e+00
      536000   5.359990e-06   6.657315e+00   3.036797e+01   8.638013e+00   1.223380e+06   2.025148e+06  -2.469734e+05   0.000000e+00   0.000000e+00   0.000000e+00   2.378840e+06   0.000000e+00   0.000000e+00   0.000000e+00
      544000   5.439990e-06   6.755186e+00   3.052998e+01   8.618255e+00   1.223380e+06   2.025148e+06  -2.469734e+05   0.000000e+00   0.000000e+00   0.000000e+00   2.378840e+06   0.000000e+00   0.000000e+00   0.000000e+00
      552000   5.519990e-06   6.853056e+00   3.069199e+01   8.598497e+00   1.223380e+06   2.025148e+06  -2.469734e+05   0.000000e+00   0.000000e+00   0.000000e+00   2.378840e+06   0.000000e+00   0.000000e+00   0.000000e+00
      560000   5.599990e-06   6.950927e+00   3.085401e+01   8.578739e+00   1.223380e+06   2.025148e+06  -2.469734e+05   0.000000e+00   0.000000e+00   0.000000e+00   2.378840e+06   0.000000e+00   0.000000e+00   0.000000e+00
      568000   5.679990e-06   7.048797e+00   3.101602e+01   8.558981e+00   1.223380e+06   2.025148e+06  -2.469734e+05   0.000000e+00   0.000000e+00   0.000000e+00   2.378840e+06   0.000000e+00   0.000000e+00   0.000000e+00
      576000   5.759990e-06   7.146667e+00   3.117803e+01   8.539223e+00   1.223380e+06   2.025148e+06  -2.469734e+05   0.000000e+00   0.000000e+00   0.000000e+00   2.378840e+06   0.000000e+00   0.000000e+00   0.000000e+00
      584000   5.839990e-06   7.244538e+00   3.134004e+01   8.519465e+00   1.223380e+06   2.025148e+06  -2.469734e+05   0.000000e+00   0.000000e+00   0.000000e+00   2.378840e+06   0.000000e+00   0.000000e+00   0.000000e+00
      592000   5.919990e-06   7.342408e+00   3.150205e+01   8.499707e+00   1.223380e+06   2.025148e+06  -2.469734e+05   0.000000e+00   0.000000e+00   0.000000e+00   2.378840e+06   0.000000e+00   0.000000e+00   0.000000e+00
      600000   5.999990e-06   7.440278e+00   3.166406e+01   8.479950e+00   1.223380e+06   2.025148e+06  -2.469734e+05   0.000000e+00   0.000000e+00   0.000000e+00   2.378840e+06   0.000000e+00   0.000000e+00   0.000000e+00
      608000   6.079990e-06   7.538149e+00   3.182608e+01   8.460192e+00   1.223380e+06   2.025148e+06  -2.469734e+05   0.000000e+00   0.000000e+00   0.000000e+00   2.378840e+06   0.000000e+00   0.000000e+00   0.000000e+00
      616000   6.159990e-06   7.636019e+00   3.198809e+01   8.440434e+00   1.223380e+06   2.025148e+06  -2.469734e+05   0.000000e+00   0.000000e+00   0.000000e+00   2.378840e+06   0.000000e+00   0.000000e+00   0.000000e+00
      624000   6.239990e-06   7.733890e+00   3.215010e+01   8.420676e+00   1.223380e+06   2.025148e+06  -2.469734e+05   0.000000e+00   0.000000e+00   0.000000e+00   2.378840e+06   0.000000e+00   0.000000e+00   0.000000e+00
      632000   6.319990e-06   7.831760e+00   3.231211e+01   8.400918e+00   1.223380e+06   2.025148e+06  -2.469734e+05   0.000000e+00   0.000000e+00   0.000000e+00   2.378840e+06   0.000000e+00   0.000000e+00   0.000000e+00
      640000   6.399990e-06   7.929630e+00   3.247412e+01   8.381160e+00   1.223380e+06   2.025148e+06  -2.469734e+05   0.000000e+00   0.000000e+00   0.000000e+00   2.378840e+06   0.000000e+00   0.000000e+00   0.000000e+00
      648000   6.479990e-06   8.027501e+00   3.263614e+01   8.361402e+00   1.223380e+06   2.025148e+06  -2.469734e+05   0.000000e+00   0.000000e+00   0.000000e+00   2.378840e+06   0.000000e+00   0.000000e+00   0.000000e+00
      656000   6.559990e-06   8.125371e+00   3.279815e+01   8.341644e+00   1.223380e+06   2.025148e+06  -2.469734e+05   0.000000e+00   0.000000e+00   0.000000e+00   2.378840e+06   0.000000e+00   0.000000e+00   0.000000e+00
      664000   6.639990e-06   8.223241e+00   3.296016e+01   8.321887e+00   1.223380e+06   2.025148e+06  -2.469734e+05   0.000000e+00   0.000000e+00   0.000000e+00   2.378840e+06   0.000000e+00   0.000000e+00   0.000000e+00
      672000   6.719990e-06   8.321112e+00   3.312217e+01   8.302129e+00   1.223380e+06   2.025148e+06  -2.469734e+05   0.000000e+00   0.000000e+00   0.000000e+00   2.378840e+06   0.000000e+00   0.000000e+00   0.000000e+00
      680000   6.799990e-06   8.418982e+00   3.328418e+01   8.282371e+00   1.223380e+06   2.025148e+06  -2.469734e+05   0.000000e+00   0.000000e+00   0.000000e+00   2.378840e+06   0.000000e+00   0.000000e+00   0.000000e+00
      688000   6.879990e-06   8.516853e+00   3.344619e+01   8.262613e+00   1.223380e+06   2.025148e+06  -2.469734e+05   0.000000e+00   0.000000e+00   0.000000e+00   2.378840e+06   0.000000e+00   0.000000e+00   0.000000e+00
      696000   6.959990e-06   8.614723e+00   3.360821e+01   8.242855e+00   1.223380e+06   2.025148e+06  -2.469734e+05   0.000000e+00   0.000000e+00   0.000000e+00   2.378840e+06   0.000000e+00   0.000000e+00   0.000000e+00
      704000   7.039990e-06   8.712593e+00   3.377022e+01   8.223097e+00   1.223380e+06   2.025148e+06  -2.469734e+05   0.000000e+00   0.000000e+00   0.000000e+00   2.378840e+06   0.000000e+00   0.000000e+00   0.000000e+00
      712000   7.119990e-06   8.810464e+00   3.393223e+01   8.203339e+00   1.223380e+06   2.025148e+06  -2.469734e+05   0.000000e+00   0.000000e+00   0.000000e+00   2.378840e+06   0.000000e+00   0.000000e+00   0.000000e+00
      720000   7.199990e-06   8.908334e+00   3.409424e+01   8.183582e+00   1.223380e+06   2.025148e+06  -2.469734e+05   0.000000e+00   0.000000e+00   0.000000e+00   2.378840e+06   0.000000e+00   0.000000e+00   0.000000e+00
      728000   7.279990e-06   9.006205e+00   3.425625e+01   8.163824e+00   1.223380e+06   2.025148e+06  -2.469734e+05   0.000000e+00   0.000000e+00   0.000000e+00   2.378840e+06   0.000000e+00   0.000000e+00   0.000000e+00
      736000   7.359990e-06   9.104075e+00   3.441827e+01   8.144066e+00   1.223380e+06   2.025148e+06  -2.469734e+05   0.000000e+00   0.000000e+00   0.000000e+00   2.378840e+06   0.000000e+00   0.000000e+00   0.000000e+00
      744000   7.439990e-06   9.201945e+00   3.458028e+01   8.124308e+00   1.223380e+06   2.025148e+06  -2.469734e+05   0.000000e+00   0.000000e+00   0.000000e+00   2.378840e+06   0.000000e+00   0.000000e+00   0.000000e+00
      752000   7.519990e-06   9.299816e+00   3.474229e+01   8.104550e+00   1.223380e+06   2.025148e+06  -2.469734e+05   0.000000e+00   0.000000e+00   0.000000e+00   2.378840e+06   0.000000e+00   0.000000e+00   0.000000e+00
      760000   7.599990e-06   9.397686e+00   3.490430e+01   8.084792e+00   1.223380e+06   2.025148e+06  -2.469734e+05   0.000000e+00   0.000000e+00   0.000000e+00   2.378840e+06   0.000000e+00   0.000000e+00   0.000000e+00
      768000   7.679990e-06   9.495556e+00   3.506631e+01   8.065034e+00   1.223380e+06   2.025148e+06  -2.469734e+05   0.000000e+00   0.000000e+00   0.000000e+00   2.378840e+06   0.000000e+00   0.000000e+00   0.000000e+00
      776000   7.759990e-06   9.593427e+00   3.522832e+01   8.045276e+00   1.223380e+06   2.025148e+06  -2.469734e+05   0.000000e+00   0.000000e+00   0.000000e+00   2.378840e+06   0.000000e+00   0.000000e+00   0.000000e+00
      784000   7.839990e-06   9.691297e+00   3.539034e+01   8.025519e+00   1.223380e+06   2.025148e+06  -2.469734e+05   0.000000e+00   0.000000e+00   0.000000e+00   2.378840e+06   0.000000e+00   0.000000e+00   0.000000e+00
      792000   7.919990e-06   9.789168e+00   3.555235e+01   8.005761e+00   1.223380e+06   2.025148e+06  -2.469734e+05   0.000000e+00   0.000000e+00   0.000000e+00   2.378840e+06   0.000000e+00   0.000000e+00   0.000000e+00
      800000   7.999990e-06   9.887038e+00   3.571436e+01   7.986003e+00   1.223380e+06   2.025148e+06  -2.469734e+05   0.000000e+00   0.000000e+00   0.000000e+00   2.378840e+06   0.000000e+00   0.000000e+00   0.000000e+00
      808000   8.079990e-06   9.984908e+00   3.587637e+01   7.966245e+00   1.223380e+06   2.025148e+06  -2.469734e+05   0.000000e+00   0.000000e+00   0.000000e+00   2.378840e+06   0.000000e+00   0.000000e+00   0.000000e+00
      816000   8.159990e-06   1.008278e+01   3.603838e+01   7.946487e+00   1.223380e+06   2.025148e+06  -2.469734e+05   0.000000e+00   0.000000e+00   0.000000e+00   2.378840e+06   0.000000e+00   0.000000e+00   0.000000e+00
      824000   8.239990e-06   1.018065e+01   3.620040e+01   7.926729e+00   1.223380e+06   2.025148e+06  -2.469734e+05   0.000000e+00   0.000000e+00   0.000000e+00   2.378840e+06   0.000000e+00   0.000000e+00   0.000000e+00
      832000   8.319990e-06   1.027852e+01   3.636241e+01   7.906971e+00   1.223380e+06   2.025148e+06  -2.469734e+05   0.000000e+00   0.000000e+00   0.000000e+00   2.378840e+06   0.000000e+00   0.000000e+00   0.000000e+00
      840000   8.399990e-06   1.037639e+01   3.652442e+01   7.887213e+00   1.223380e+06   2.025148e+06  -2.469734e+05   0.000000e+00   0.000000e+00   0.000000e+00   2.378840e+06   0.000000e+00   0.000000e+00   0.000000e+00
      848000   8.479990e-06   1.047426e+01   3.668643e+01   7.867456e+00   1.223380e+06   2.025148e+06  -2.469734e+05   0.000000e+00   0.000000e+00   0.000000e+00   2.378840e+06   0.000000e+00   0.000000e+00   0.000000e+00
      856000   8.559990e-06   1.057213e+01   3.684844e+01   7.847698e+00   1.223380e+06   2.025148e+06  -2.469734e+05   0.000000e+00   0.000000e+00   0.000000e+00   2.378840e+06   0.000000e+00   0.000000e+00   0.000000e+00
      864000   8.639990e-06   1.067000e+01   3.701046e+01   7.827940e+00   1.223380e+06   2.025148e+06  -2.469734e+05   0.000000e+00   0.000000e+00   0.000000e+00   2.378840e+06   0.000000e+00   0.000000e+00   0.000000e+00
      872000   8.719990e-06   1.076787e+01   3.717247e+01   7.808182e+00   1.223380e+06   2.025148e+06  -2.469734e+05   0.000000e+00   0.000000e+00   0.000000e+00   2.378840e+06   0.000000e+00   0.000000e+00   0.000000e+00
      880000   8.799990e-06   1.086574e+01   3.733448e+01   7.788424e+00   1.223380e+06   2.025148e+06  -2.469734e+05   0.000000e+00   0.000000e+00   0.000000e+00   2.378840e+06   0.000000e+00   0.000000e+00   0.000000e+00
      888000   8.879990e-06   1.096361e+01   3.749649e+01   7.768666e+00   1.223380e+06   2.025148e+06  -2.469734e+05   0.000000e+00   0.000000e+00   0.000000e+00   2.378840e+06   0.000000e+00   0.000000e+00   0.000000e+00
      896000   8.959990e-06   1.106148e+01   3.765850e+01   7.748908e+00   1.223380e+06   2.025148e+06  -2.469734e+05   0.000000e+00   0.000000e+00   0.000000e+00   2.378840e+06   0.000000e+00   0.000000e+00   0.000000e+00
      904000   9.039990e-06   1.115935e+01   3.782051e+01   7.729150e+00   1.223380e+06   2.025148e+06  -2.469734e+05   0.000000e+00   0.000000e+00   0.000000e+00   2.378840e+06   0.000000e+00   0.000000e+00   0.000000e+00
      912000   9.119990e-06   1.125722e+01   3.798253e+01   7.709393e+00   1.223380e+06   2.025148e+06  -2.469734e+05   0.000000e+00   0.000000e+00   0.000000e+00   2.378840e+06   0.000000e+00   0.000000e+00   0.000000e+00
      920000   9.199990e-06   1.135509e+01   3.814454e+01   7.689635e+00   1.223380e+06   2.025148e+06  -2.469734e+05   0.000000e+00   0.000000e+00   0.000000e+00   2.378840e+06   0.000000e+00   0.000000e+00   0.000000e+00
      928000   9.279990e-06   1.145296e+01   3.830655e+01   7.669877e+00   1.223380e+06   2.025148e+06  -2.469734e+05   0.000000e+00   0.000000e+00   0.000000e+00   2.378840e+06   0.000000e+00   0.000000e+00   0.000000e+00
      936000   9.359990e-06   1.155083e+01   3.846856e+01   7.650119e+00   1.223380e+06   2.025148e+06  -2.469734e+05   0.000000e+00   0.000000e+00   0.000000e+00   2.378840e+06   0.000000e+00   0.000000e+00   0.000000e+00
      944000   9.439990e-06   1.164870e+01   3.863057e+01   7.630361e+00   1.223380e+06   2.025148e+06  -2.469734e+05   0.000000e+00   0.000000e+00   0.000000e+00   2.378840e+06   0.000000e+00   0.000000e+00   0.000000e+00
      952000   9.519990e-06   1.174658e+01   3.879259e+01   7.610603e+00   1.223380e+06   2.025148e+06  -2.469734e+05   0.000000e+00   0.000000e+00   0.000000e+00   2.378840e+06   0.000000e+00   0.000000e+00   0.000000e+00
      960000   9.599990e-06   1.184445e+01   3.895460e+01   7.590845e+00   1.223380e+06   2.025148e+06  -2.469734e+05   0.000000e+00   0.000000e+00   0.000000e+00   2.378840e+06   0.000000e+00   0.000000e+00   0.000000e+00
      968000   9.679990e-06   1.194232e+01   3.911661e+01   7.571087e+00   1.223380e+06   2.025148e+06  -2.469734e+05   0.000000e+00   0.000000e+00   0.000000e+00   2.378840e+06   0.000000e+00   0.000000e+00   0.000000e+00
      976000   9.759990e-06   1.204019e+01   3.927862e+01   7.551330e+00   1.223380e+06   2.025148e+06  -2.469734e+05   0.000000e+00   0.000000e+00   0.000000e+00   2.378840e+06   0.000000e+00   0.000000e+00   0.000000e+00
      984000   9.839990e-06   1.213806e+01   3.944063e+01   7.531572e+00   1.223380e+06   2.025148e+06  -2.469734e+05   0.000000e+00   0.000000e+00   0.000000e+00   2.378840e+06   0.000000e+00   0.000000e+00   0.000000e+00
      992000   9.919990e-06   1.223593e+01   3.960264e+01   7.511814e+00   1.223380e+06   2.025148e+06  -2.469734e+05   0.000000e+00   0.000000e+00   0.000000e+00   2.378840e+06   0.000000e+00   0.000000e+00   0.000000e+00
     1000000   9.999990e-06   1.233380e+01   3.976466e+01   7.492056e+00   1.223380e+06   2.025148e+06  -2.469734e+05   0.000000e+00   0.000000e+00   0.000000e+00   2.378840e+06   0.000000e+00   0.000000e+00   0.000000e+00
     1008000   1.007999e-05   1.243167e+01   3.992667e+01   7.472298e+00   1.223380e+06   2.025148e+06  -2.469734e+05   0.000000e+00   0.000000e+00   0.000000e+00   2.378840e+06   0.000000e+00   0.000000e+00   0.000000e+00
     1016000   1.015999e-05   1.252954e+01   4.008868e+01   7.452540e+00   1.223380e+06   2.025148e+06  -2.469734e+05   0.000000e+00   0.000000e+00   0.000000e+00   2.378840e+06   0.000000e+00   0.000000e+00   0.000000e+00
     1024000   1.023999e-05   1.262741e+01   4.025069e+01   7.432782e+00   1.223380e+06   2.025148e+06  -2.469734e+05   0.000000e+00   0.000000e+00   0.000000e+00   2.378840e+06   0.000000e+00   0.000000e+00   0.000000e+00
     1032000   1.031999e-05   1.272528e+01   4.041270e+01   7.413024e+00   1.223380e+06   2.025148e+06  -2.469734e+05   0.000000e+00   0.000000e+00   0.000000e+00   2.378840e+06   0.000000e+00   0.000000e+00   0.000000e+00
     1040000   1.039999e-05   1.282315e+01   4.057472e+01   7.393267e+00   1.223380e+06   2.025148e+06  -2.469734e+05   0.000000e+00   0.000000e+00   0.000000e+00   2.378840e+06   0.000000e+00   0.000000e+00   0.000000e+00
     1048000   1.047999e-05   1.292102e+01   4.073673e+01   7.373509e+00   1.223380e+06   2.025148e+06  -2.469734e+05   0.000000e+00   0.000000e+00   0.000000e+00   2.378840e+06   0.000000e+00   0.000000e+00   0.000000e+00
     1056000   1.055999e-05   1.301889e+01   4.089874e+01   7.353751e+00   1.223380e+06   2.025148e+06  -2.469734e+05   0.000000e+00   0.000000e+00   0.000000e+00   2.378840e+06   0.000000e+00   0.000000e+00   0.000000e+00
     1064000   1.063999e-05   1.311676e+01   4.106075e+01   7.333993e+00   1.223380e+06   2.025148e+06  -2.469734e+05   0.000000e+00   0.000000e+00   0.000000e+00   2.378840e+06   0.000000e+00   0.000000e+00   0.000000e+00
     1072000   1.071999e-05   1.321463e+01   4.122276e+01   7.314235e+00   1.223380e+06   2.025148e+06  -2.469734e+05   0.000000e+00   0.000000e+00   0.000000e+00   2.378840e+06   0.000000e+00   0.000000e+00   0.000000e+00
     1080000   1.079999e-05   1.331250e+01   4.138478e+01   7.294477e+00   1.223380e+06   2.025148e+06  -2.469734e+05   0.000000e+00   0.000000e+00   0.000000e+00   2.378840e+06   0.000000e+00   0.000000e+00   0.000000e+00
     1088000   1.087999e-05   1.341037e+01   4.154679e+01   7.274719e+00   1.223380e+06   2.025148e+06  -2.469734e+05   0.000000e+00   0.000000e+00   0.000000e+00   2.378840e+06   0.000000e+00   0.000000e+00   0.000000e+00
     1096000   1.095999e-05   1.350824e+01   4.170880e+01   7.254962e+00   1.223380e+06   2.025148e+06  -2.469734e+05   0.000000e+00   0.000000e+00   0.000000e+00   2.378840e+06   0.000000e+00   0.000000e+00   0.000000e+00
     1104000   1.103999e-05   1.360611e+01   4.187081e+01   7.235204e+00   1.223380e+06   2.025148e+06  -2.469734e+05   0.000000e+00   0.000000e+00   0.000000e+00   2.378840e+06   0.000000e+00   0.000000e+00   0.000000e+00
     1112000   1.111999e-05   1.370398e+01   4.203282e+01   7.215446e+00   1.223380e+06   2.025148e+06  -2.469734e+05   0.000000e+00   0.000000e+00   0.000000e+00   2.378840e+06   0.000000e+00   0.000000e+00   0.000000e+00
     1120000   1.119999e-05   1.380185e+01   4.219483e+01   7.195688e+00   1.223380e+06   2.025148e+06  -2.469734e+05   0.000000e+00   0.000000e+00   0.000000e+00   2.378840e+06   0.000000e+00   0.000000e+00   0.000000e+00
     1128000   1.127999e-05   1.389972e+01   4.235685e+01   7.175930e+00   1.223380e+06   2.025148e+06  -2.469734e+05   0.000000e+00   0.000000e+00   0.000000e+00   2.378840e+06   0.000000e+00   0.000000e+00   0.000000e+00
     1136000   1.135999e-05   1.399759e+01   4.251886e+01   7.156172e+00   1.223380e+06   2.025148e+06  -2.469734e+05   0.000000e+00   0.000000e+00   0.000000e+00   2.378840e+06   0.000000e+00   0.000000e+00   0.000000e+00
     1144000   1.143999e-05   1.409546e+01   4.268087e+01   7.136414e+00   1.223380e+06   2.025148e+06  -2.469734e+05   0.000000e+00   0.000000e+00   0.000000e+00   2.378840e+06   0.000000e+00   0.000000e+00   0.000000e+00
     1152000   1.151999e-05   1.419333e+01   4.284288e+01   7.116656e+00   1.223380e+06   2.025148e+06  -2.469734e+05   0.000000e+00   0.000000e+00   0.000000e+00   2.378840e+06   0.000000e+00   0.000000e+00   0.000000e+00
     1160000   1.159999e-05   1.429120e+01   4.300489e+01   7.096899e+00   1.223380e+06   2.025148e+06  -2.469734e+05   0.000000e+00   0.000000e+00   0.000000e+00   2.378840e+06   0.000000e+00   0.000000e+00   0.000000e+00
     1168000   1.167999e-05   1.438908e+01   4.316691e+01   7.077141e+00   1.223380e+06   2.025148e+06  -2.469734e+05   0.000000e+00   0.000000e+00   0.000000e+00   2.378840e+06   0.000000e+00   0.000000e+00   0.000000e+00
     1176000   1.175999e-05   1.448695e+01   4.332892e+01   7.057383e+00   1.223380e+06   2.025148e+06  -2.469734e+05   0.000000e+00   0.000000e+00   0.000000e+00   2.378840e+06   0.000000e+00   0.000000e+00   0.000000e+00
     1184000   1.183999e-05   1.458482e+01   4.349093e+01   7.037625e+00   1.223380e+06   2.025148e+06  -2.469734e+05   0.000000e+00   0.000000e+00   0.000000e+00   2.378840e+06   0.000000e+00   0.000000e+00   0.000000e+00
     1192000   1.191999e-05   1.468269e+01   4.365294e+01   7.017867e+00   1.223380e+06   2.025148e+06  -2.469734e+05   0.000000e+00   0.000000e+00   0.000000e+00   2.378840e+06   0.000000e+00   0.000000e+00   0.000000e+00
     1200000   1.199999e-05   1.478056e+01   4.381495e+01   6.998109e+00   1.223380e+06   2.025148e+06  -2.469734e+05   0.000000e+00   0.000000e+00   0.000000e+00   2.378840e+06   0.000000e+00   0.000000e+00   0.000000e+00
     1208000   1.207999e-05   1.487843e+01   4.397696e+01   6.978351e+00   1.223380e+06   2.025148e+06  -2.469734e+05   0.000000e+00   0.000000e+00   0.000000e+00   2.378840e+06   0.000000e+00   0.000000e+00   0.000000e+00
     1216000   1.215999e-05   1.497630e+01   4.413898e+01   6.958593e+00   1.223380e+06   2.025148e+06  -2.469734e+05   0.000000e+00   0.000000e+00   0.000000e+00   2.378840e+06   0.000000e+00   0.000000e+00   0.000000e+00
     1224000   1.223999e-05   1.507417e+01   4.430099e+01   6.938836e+00   1.223380e+06   2.025148e+06  -2.469734e+05   0.000000e+00   0.000000e+00   0.000000e+00   2.378840e+06   0.000000e+00   0.000000e+00   0.000000e+00
     1232000   1.231999e-05   1.517204e+01   4.446300e+01   6.919078e+00   1.223380e+06   2.025148e+06  -2.469734e+05   0.000000e+00   0.000000e+00   0.000000e+00   2.378840e+06   0.000000e+00   0.000000e+00   0.000000e+00
     1240000   1.239999e-05   1.526991e+01   4.462501e+01   6.899320e+00   1.223380e+06   2.025148e+06  -2.469734e+05   0.000000e+00   0.000000e+00   0.000000e+00   2.378840e+06   0.000000e+00   0.000000e+00   0.000000e+00
     1248000   1.247999e-05   1.536778e+01   4.478702e+01   6.879562e+00   1.223380e+06   2.025148e+06  -2.469734e+05   0.000000e+00   0.000000e+00   0.000000e+00   2.378840e+06   0.000000e+00   0.000000e+00   0.000000e+00
     1256000   1.255999e-05   1.546565e+01   4.494904e+01   6.859804e+00   1.223380e+06   2.025148e+06  -2.469734e+05   0.000000e+00   0.000000e+00   0.000000e+00   2.378840e+06   0.000000e+00   0.000000e+00   0.000000e+00
     1264000   1.263999e-05   1.556352e+01   4.511105e+01   6.840046e+00   1.223380e+06   2.025148e+06  -2.469734e+05   0.000000e+00   0.000000e+00   0.000000e+00   2.378840e+06   0.000000e+00   0.000000e+00   0.000000e+00
     1272000   1.271999e-05   1.566139e+01   4.527306e+01   6.820288e+00   1.223380e+06   2.025148e+06  -2.469734e+05   0.000000e+00   0.000000e+00   0.000000e+00   2.378840e+06   0.000000e+00   0.000000e+00   0.000000e+00
     1280000   1.279999e-05   1.575926e+01   4.543507e+01   6.800530e+00   1.223380e+06   2.025148e+06  -2.469734e+05   0.000000e+00   0.000000e+00   0.000000e+00   2.378840e+06   0.000000e+00   0.000000e+00   0.000000e+00
     1288000   1.287999e-05   1.585713e+01   4.559708e+01   6.780773e+00   1.223380e+06   2.025148e+06  -2.469734e+05   0.000000e+00   0.000000e+00   0.000000e+00   2.378840e+06   0.000000e+00   0.000000e+00   0.000000e+00
     1296000   1.295999e-05   1.595500e+01   4.575909e+01   6.761015e+00   1.223380e+06   2.025148e+06  -2.469734e+05   0.000000e+00   0.000000e+00   0.000000e+00   2.378840e+06   0.000000e+00   0.000000e+00   0.000000e+00
     1304000   1.303999e-05   1.605287e+01   4.592111e+01   6.741257e+00   1.223380e+06   2.025148e+06  -2.469734e+05   0.000000e+00   0.000000e+00   0.000000e+00   2.378840e+06   0.000000e+00   0.000000e+00   0.000000e+00
     1312000   1.311999e-05   1.615074e+01   4.608312e+01   6.721499e+00   1.223380e+06   2.025148e+06  -2.469734e+05   0.000000e+00   0.000000e+00   0.000000e+00   2.378840e+06   0.000000e+00   0.000000e+00   0.000000e+00
     1320000   1.319999e-05   1.624861e+01   4.624513e+01   6.701741e+00   1.223380e+06   2.025148e+06  -2.469734e+05   0.000000e+00   0.000000e+00   0.000000e+00   2.378840e+06   0.000000e+00   0.000000e+00   0.000000e+00
     1328000   1.327999e-05   1.634648e+01   4.640714e+01   6.681983e+00   1.223380e+06   2.025148e+06  -2.469734e+05   0.000000e+00   0.000000e+00   0.000000e+00   2.378840e+06   0.000000e+00   0.000000e+00   0.000000e+00
     1336000   1.335999e-05   1.644435e+01   4.656915e+01   6.662225e+00   1.223380e+06   2.025148e+06  -2.469734e+05   0.000000e+00   0.000000e+00   0.000000e+00   2.378840e+06   0.000000e+00   0.000000e+00   0.000000e+00
     1344000   1.343999e-05   1.654222e+01   4.673117e+01   6.642467e+00   1.223380e+06   2.025148e+06  -2.469734e+05   0.000000e+00   0.000000e+00   0.000000e+00   2.378840e+06   0.000000e+00   0.000000e+00   0.000000e+00
     1352000   1.351999e-05   1.664009e+01   4.689318e+01   6.622710e+00   1.223380e+06   2.025148e+06  -2.469734e+05   0.000000e+00   0.000000e+00   0.000000e+00   2.378840e+06   0.000000e+00   0.000000e+00   0.000000e+00
     1360000   1.359999e-05   1.673796e+01   4.705519e+01   6.602952e+00   1.223380e+06   2.025148e+06  -2.469734e+05   0.000000e+00   0.000000e+00   0.000000e+00   2.378840e+06   0.000000e+00   0.000000e+00   0.000000e+00
     1368000   1.367999e-05   1.683583e+01   4.721720e+01   6.583194e+00   1.223380e+06   2.025148e+06  -2.469734e+05   0.000000e+00   0.000000e+00   0.000000e+00   2.378840e+06   0.000000e+00   0.000000e+00   0.000000e+00
     1376000   1.375999e-05   1.693371e+01   4.737921e+01   6.563436e+00   1.223380e+06   2.025148e+06  -2.469734e+05   0.000000e+00   0.000000e+00   0.000000e+00   2.378840e+06   0.000000e+00   0.000000e+00   0.000000e+00
     1384000   1.383999e-05   1.703158e+01   4.754123e+01   6.543678e+00   1.223380e+06   2.025148e+06  -2.469734e+05   0.000000e+00   0.000000e+00   0.000000e+00   2.378840e+06   0.000000e+00   0.000000e+00   0.000000e+00
     1392000   1.391999e-05   1.712945e+01   4.770324e+01   6.523920e+00   1.223380e+06   2.025148e+06  -2.469734e+05   0.000000e+00   0.000000e+00   0.000000e+00   2.378840e+06   0.000000e+00   0.000000e+00   0.000000e+00
     1400000   1.399999e-05   1.722732e+01   4.786525e+01   6.504162e+00   1.223380e+06   2.025148e+06  -2.469734e+05   0.000000e+00   0.000000e+00   0.000000e+00   2.378840e+06   0.000000e+00   0.000000e+00   0.000000e+00
     1408000   1.407999e-05   1.732519e+01   4.802726e+01   6.484404e+00   1.223380e+06   2.025148e+06  -2.469734e+05   0.000000e+00   0.000000e+00   0.000000e+00   2.378840e+06   0.000000e+00   0.000000e+00   0.000000e+00
     1416000   1.415999e-05   1.742306e+01   4.818927e+01   6.464647e+00   1.223380e+06   2.025148e+06  -2.469734e+05   0.000000e+00   0.000000e+00   0.000000e+00   2.378840e+06   0.000000e+00   0.000000e+00   0.000000e+00
     1424000   1.423999e-05   1.752093e+01   4.835128e+01   6.444889e+00   1.223380e+06   2.025148e+06  -2.469734e+05   0.000000e+00   0.000000e+00   0.000000e+00   2.378840e+06   0.000000e+00   0.000000e+00   0.000000e+00
     1432000   1.431999e-05   1.761880e+01   4.851330e+01   6.425131e+00   1.223380e+06   2.025148e+06  -2.469734e+05   0.000000e+00   0.000000e+00   0.000000e+00   2.378840e+06   0.000000e+00   0.000000e+00   0.000000e+00
     1440000   1.439999e-05   1.771667e+01   4.867531e+01   6.405373e+00   1.223380e+06   2.025148e+06  -2.469734e+05   0.000000e+00   0.000000e+00   0.000000e+00   2.378840e+06   0.000000e+00   0.000000e+00   0.000000e+00
     1448000   1.447999e-05   1.781454e+01   4.883732e+01   6.385615e+00   1.223380e+06   2.025148e+06  -2.469734e+05   0.000000e+00   0.000000e+00   0.000000e+00   2.378840e+06   0.000000e+00   0.000000e+00   0.000000e+00
     1456000   1.455999e-05   1.791241e+01   4.899933e+01   6.365857e+00   1.223380e+06   2.025148e+06  -2.469734e+05   0.000000e+00   0.000000e+00   0.000000e+00   2.378840e+06   0.000000e+00   0.000000e+00   0.000000e+00
     1464000   1.463999e-05   1.801028e+01   4.916134e+01   6.346099e+00   1.223380e+06   2.025148e+06  -2.469734e+05   0.000000e+00   0.000000e+00   0.000000e+00   2.378840e+06   0.000000e+00   0.000000e+00   0.000000e+00
     1472000   1.471999e-05   1.810815e+01   4.932336e+01   6.326342e+00   1.223380e+06   2.025148e+06  -2.469734e+05   0.000000e+00   0.000000e+00   0.000000e+00   2.378840e+06   0.000000e+00   0.000000e+00   0.000000e+00
     1480000   1.479999e-05   1.820602e+01   4.948537e+01   6.306584e+00   1.223380e+06   2.025148e+06  -2.469734e+05   0.000000e+00   0.000000e+00   0.000000e+00   2.378840e+06   0.000000e+00   0.000000e+00   0.000000e+00
     1488000   1.487999e-05   1.830389e+01   4.964738e+01   6.286826e+00   1.223380e+06   2.025148e+06  -2.469734e+05   0.000000e+00   0.000000e+00   0.000000e+00   2.378840e+06   0.000000e+00   0.000000e+00   0.000000e+00
     1496000   1.495999e-05   1.840176e+01   4.980939e+01   6.267068e+00   1.223380e+06   2.025148e+06  -2.469734e+05   0.000000e+00   0.000000e+00   0.000000e+00   2.378840e+06   0.000000e+00   0.000000e+00   0.000000e+00
     1504000   1.503999e-05   1.849963e+01   4.997140e+01   6.247310e+00   1.223380e+06   2.025148e+06  -2.469734e+05   0.000000e+00   0.000000e+00   0.000000e+00   2.378840e+06   0.000000e+00   0.000000e+00   0.000000e+00
