     timestep     time              x             y              z              vx             vy             vz             ax             ay             az         v_magnitude      ELoss        Electronic      Nuclear
           0   0.000000e+00   1.000000e-01   2.091719e+01   1.005964e+01   1.030233e+05   1.168135e+06  -1.107639e+05   0.000000e+00   0.000000e+00   0.000000e+00   1.177889e+06   0.000000e+00   0.000000e+00   0.000000e+00
        8000   7.999000e-08   1.082419e-01   2.101064e+01   1.005078e+01   1.030233e+05   1.168135e+06  -1.107639e+05   0.000000e+00   0.000000e+00   0.000000e+00   1.177889e+06   0.000000e+00   0.000000e+00   0.000000e+00
       16000   1.599900e-07   1.164837e-01   2.110409e+01   1.004192e+01   1.030233e+05   1.168135e+06  -1.107639e+05   0.000000e+00   0.000000e+00   0.000000e+00   1.177889e+06   0.000000e+00   0.000000e+00   0.000000e+00
       24000   2.399900e-07   1.247256e-01   2.119755e+01   1.003306e+01   1.030233e+05   1.168135e+06  -1.107639e+05   0.000000e+00   0.000000e+00   0.000000e+00   1.177889e+06   0.000000e+00   0.000000e+00   0.000000e+00
       32000   3.199900e-07   1.329675e-01   2.129100e+01   1.002420e+01   1.030233e+05   1.168135e+06  -1.107639e+05   0.000000e+00   0.000000e+00   0.000000e+00   1.177889e+06   0.000000e+00   0.000000e+00   0.000000e+00
       40000   3.999900e-07   1.412093e-01   2.138445e+01   1.001534e+01   1.030233e+05   1.168135e+06  -1.107639e+05   0.000000e+00   0.000000e+00   0.000000e+00   1.177889e+06   0.000000e+00   0.000000e+00   0.000000e+00
       48000   4.799900e-07   1.494512e-01   2.147790e+01   1.000647e+01   1.030233e+05   1.168135e+06  -1.107639e+05   0.000000e+00   0.000000e+00   0.000000e+00   1.177889e+06   0.000000e+00   0.000000e+00   0.000000e+00
       56000   5.599900e-07   1.576931e-01   2.157135e+01   9.997613e+00   1.030233e+05   1.168135e+06  -1.107639e+05   0.000000e+00   0.000000e+00   0.000000e+00   1.177889e+06   0.000000e+00   0.000000e+00   0.000000e+00
       64000   6.399900e-07   1.659349e-01   2.166480e+01   9.988752e+00   1.030233e+05   1.168135e+06  -1.107639e+05   0.000000e+00   0.000000e+00   0.000000e+00   1.177889e+06   0.000000e+00   0.000000e+00   0.000000e+00
       72000   7.199900e-07   1.741768e-01   2.175825e+01   9.979891e+00   1.030233e+05   1.168135e+06  -1.107639e+05   0.000000e+00   0.000000e+00   0.000000e+00   1.177889e+06   0.000000e+00   0.000000e+00   0.000000e+00
       80000   7.999900e-07   1.824186e-01   2.185170e+01   9.971030e+00   1.030233e+05   1.168135e+06  -1.107639e+05   0.000000e+00   0.000000e+00   0.000000e+00   1.177889e+06   0.000000e+00   0.000000e+00   0.000000e+00
       88000   8.799900e-07   1.906605e-01   2.194515e+01   9.962169e+00   1.030233e+05   1.168135e+06  -1.107639e+05   0.000000e+00   0.000000e+00   0.000000e+00   1.177889e+06   0.000000e+00   0.000000e+00   0.000000e+00
       96000   9.599900e-07   1.989024e-01   2.203860e+01   9.953308e+00   1.030233e+05   1.168135e+06  -1.107639e+05   0.000000e+00   0.000000e+00   0.000000e+00   1.177889e+06   0.000000e+00   0.000000e+00   0.000000e+00
      104000   1.039990e-06   2.071442e-01   2.213205e+01   9.944447e+00   1.030233e+05   1.168135e+06  -1.107639e+05   0.000000e+00   0.000000e+00   0.000000e+00   1.177889e+06   0.000000e+00   0.000000e+00   0.000000e+00
      112000   1.119990e-06   2.153861e-01   2.222550e+01   9.935585e+00   1.030233e+05   1.168135e+06  -1.107639e+05   0.000000e+00   0.000000e+00   0.000000e+00   1.177889e+06   0.000000e+00   0.000000e+00   0.000000e+00
      120000   1.199990e-06   2.236280e-01   2.231896e+01   9.926724e+00   1.030233e+05   1.168135e+06  -1.107639e+05   0.000000e+00   0.000000e+00   0.000000e+00   1.177889e+06   0.000000e+00   0.000000e+00   0.000000e+00
      128000   1.279990e-06   2.318698e-01   2.241241e+01   9.917863e+00   1.030233e+05   1.168135e+06  -1.107639e+05   0.000000e+00   0.000000e+00   0.000000e+00   1.177889e+06   0.000000e+00   0.000000e+00   0.000000e+00
      136000   1.359990e-06   2.401117e-01   2.250586e+01   9.909002e+00   1.030233e+05   1.168135e+06  -1.107639e+05   0.000000e+00   0.000000e+00   0.000000e+00   1.177889e+06   0.000000e+00   0.000000e+00   0.000000e+00
      144000   1.439990e-06   2.483536e-01   2.259931e+01   9.900141e+00   1.030233e+05   1.168135e+06  -1.107639e+05   0.000000e+00   0.000000e+00   0.000000e+00   1.177889e+06   0.000000e+00   0.000000e+00   0.000000e+00
      152000   1.519990e-06   2.565954e-01   2.269276e+01   9.891280e+00   1.030233e+05   1.168135e+06  -1.107639e+05   0.000000e+00   0.000000e+00   0.000000e+00   1.177889e+06   0.000000e+00   0.000000e+00   0.000000e+00
      160000   1.599990e-06   2.648373e-01   2.278621e+01   9.882419e+00   1.030233e+05   1.168135e+06  -1.107639e+05   0.000000e+00   0.000000e+00   0.000000e+00   1.177889e+06   0.000000e+00   0.000000e+00   0.000000e+00
      168000   1.679990e-06   2.730792e-01   2.287966e+01   9.873558e+00   1.030233e+05   1.168135e+06  -1.107639e+05   0.000000e+00   0.000000e+00   0.000000e+00   1.177889e+06   0.000000e+00   0.000000e+00   0.000000e+00
      176000   1.759990e-06   2.813210e-01   2.297311e+01   9.864697e+00   1.030233e+05   1.168135e+06  -1.107639e+05   0.000000e+00   0.000000e+00   0.000000e+00   1.177889e+06   0.000000e+00   0.000000e+00   0.000000e+00
      184000   1.839990e-06   2.895629e-01   2.306656e+01   9.855835e+00   1.030233e+05   1.168135e+06  -1.107639e+05   0.000000e+00   0.000000e+00   0.000000e+00   1.177889e+06   0.000000e+00   0.000000e+00   0.000000e+00
      192000   1.919990e-06   2.978048e-01   2.316001e+01   9.846974e+00   1.030233e+05   1.168135e+06  -1.107639e+05   0.000000e+00   0.000000e+00   0.000000e+00   1.177889e+06   0.000000e+00   0.000000e+00   0.000000e+00
      200000   1.999990e-06   3.060466e-01   2.325346e+01   9.838113e+00   1.030233e+05   1.168135e+06  -1.107639e+05   0.000000e+00   0.000000e+00   0.000000e+00   1.177889e+06   0.000000e+00   0.000000e+00   0.000000e+00
      208000   2.079990e-06   3.142885e-01   2.334691e+01   9.829252e+00   1.030233e+05   1.168135e+06  -1.107639e+05   0.000000e+00   0.000000e+00   0.000000e+00   1.177889e+06   0.000000e+00   0.000000e+00   0.000000e+00
      216000   2.159990e-06   3.225304e-01   2.344037e+01   9.820391e+00   1.030233e+05   1.168135e+06  -1.107639e+05   0.000000e+00   0.000000e+00   0.000000e+00   1.177889e+06   0.000000e+00   0.000000e+00   0.000000e+00
      224000   2.239990e-06   3.307722e-01   2.353382e+01   9.811530e+00   1.030233e+05   1.168135e+06  -1.107639e+05   0.000000e+00   0.000000e+00   0.000000e+00   1.177889e+06   0.000000e+00   0.000000e+00   0.000000e+00
      232000   2.319990e-06   3.390141e-01   2.362727e+01   9.802669e+00   1.030233e+05   1.168135e+06  -1.107639e+05   0.000000e+00   0.000000e+00   0.000000e+00   1.177889e+06   0.000000e+00   0.000000e+00   0.000000e+00
      240000   2.399990e-06   3.472559e-01   2.372072e+01   9.793808e+00   1.030233e+05   1.168135e+06  -1.107639e+05   0.000000e+00   0.000000e+00   0.000000e+00   1.177889e+06   0.000000e+00   0.000000e+00   0.000000e+00
      248000   2.479990e-06   3.554978e-01   2.381417e+01   9.784947e+00   1.030233e+05   1.168135e+06  -1.107639e+05   0.000000e+00   0.000000e+00   0.000000e+00   1.177889e+06   0.000000e+00   0.000000e+00   0.000000e+00
      256000   2.559990e-06   3.637397e-01   2.390762e+01   9.776085e+00   1.030233e+05   1.168135e+06  -1.107639e+05   0.000000e+00   0.000000e+00   0.000000e+00   1.177889e+06   0.000000e+00   0.000000e+00   0.000000e+00
      264000   2.639990e-06   3.719815e-01   2.400107e+01   9.767224e+00   1.030233e+05   1.168135e+06  -1.107639e+05   0.000000e+00   0.000000e+00   0.000000e+00   1.177889e+06   0.000000e+00   0.000000e+00   0.000000e+00
      272000   2.719990e-06   3.802234e-01   2.409452e+01   9.758363e+00   1.030233e+05   1.168135e+06  -1.107639e+05   0.000000e+00   0.000000e+00   0.000000e+00   1.177889e+06   0.000000e+00   0.000000e+00   0.000000e+00
      280000   2.799990e-06   3.884653e-01   2.418797e+01   9.749502e+00   1.030233e+05   1.168135e+06  -1.107639e+05   0.000000e+00   0.000000e+00   0.000000e+00   1.177889e+06   0.000000e+00   0.000000e+00   0.000000e+00
      288000   2.879990e-06   3.967071e-01   2.428142e+01   9.740641e+00   1.030233e+05   1.168135e+06  -1.107639e+05   0.000000e+00   0.000000e+00   0.000000e+00   1.177889e+06   0.000000e+00   0.000000e+00   0.000000e+00
      296000   2.959990e-06   4.049490e-01   2.437487e+01   9.731780e+00   1.030233e+05   1.168135e+06  -1.107639e+05   0.000000e+00   0.000000e+00   0.000000e+00   1.177889e+06   0.000000e+00   0.000000e+00   0.000000e+00
      304000   3.039990e-06   4.131909e-01   2.446832e+01   9.722919e+00   1.030233e+05   1.168135e+06  -1.107639e+05   0.000000e+00   0.000000e+00   0.000000e+00   1.177889e+06   0.000000e+00   0.000000e+00   0.000000e+00
      312000   3.119990e-06   4.214327e-01   2.456178e+01   9.714058e+00   1.030233e+05   1.168135e+06  -1.107639e+05   0.000000e+00   0.000000e+00   0.000000e+00   1.177889e+06   0.000000e+00   0.000000e+00   0.000000e+00
      320000   3.199990e-06   4.296746e-01   2.465523e+01   9.705197e+00   1.030233e+05   1.168135e+06  -1.107639e+05   0.000000e+00   0.000000e+00   0.000000e+00   1.177889e+06   0.000000e+00   0.000000e+00   0.000000e+00
      328000   3.279990e-06   4.379165e-01   2.474868e+01   9.696335e+00   1.030233e+05   1.168135e+06  -1.107639e+05   0.000000e+00   0.000000e+00   0.000000e+00   1.177889e+06   0.000000e+00   0.000000e+00   0.000000e+00
      336000   3.359990e-06   4.461583e-01   2.484213e+01   9.687474e+00   1.030233e+05   1.168135e+06  -1.107639e+05   0.000000e+00   0.000000e+00   0.000000e+00   1.177889e+06   0.000000e+00   0.000000e+00   0.000000e+00
      344000   3.439990e-06   4.544002e-01   2.493558e+01   9.678613e+00   1.030233e+05   1.168135e+06  -1.107639e+05   0.000000e+00   0.000000e+00   0.000000e+00   1.177889e+06   0.000000e+00   0.000000e+00   0.000000e+00
      352000   3.519990e-06   4.626421e-01   2.502903e+01   9.669752e+00   1.030233e+05   1.168135e+06  -1.107639e+05   0.000000e+00   0.000000e+00   0.000000e+00   1.177889e+06   0.000000e+00   0.000000e+00   0.000000e+00
      360000   3.599990e-06   4.708839e-01   2.512248e+01   9.660891e+00   1.030233e+05   1.168135e+06  -1.107639e+05   0.000000e+00   0.000000e+00   0.000000e+00   1.177889e+06   0.000000e+00   0.000000e+00   0.000000e+00
      368000   3.679990e-06   4.791258e-01   2.521593e+01   9.652030e+00   1.030233e+05   1.168135e+06  -1.107639e+05   0.000000e+00   0.000000e+00   0.000000e+00   1.177889e+06   0.000000e+00   0.000000e+00   0.000000e+00
      376000   3.759990e-06   4.873677e-01   2.530938e+01   9.643169e+00   1.030233e+05   1.168135e+06  -1.107639e+05   0.000000e+00   0.000000e+00   0.000000e+00   1.177889e+06   0.000000e+00   0.000000e+00   0.000000e+00
      384000   3.839990e-06   4.956095e-01   2.540283e+01   9.634308e+00   1.030233e+05   1.168135e+06  -1.107639e+05   0.000000e+00   0.000000e+00   0.000000e+00   1.177889e+06   0.000000e+00   0.000000e+00   0.000000e+00
      392000   3.919990e-06   5.038514e-01   2.549628e+01   9.625447e+00   1.030233e+05   1.168135e+06  -1.107639e+05   0.000000e+00   0.000000e+00   0.000000e+00   1.177889e+06   0.000000e+00   0.000000e+00   0.000000e+00
      400000   3.999990e-06   5.120932e-01   2.558973e+01   9.616585e+00   1.030233e+05   1.168135e+06  -1.107639e+05   0.000000e+00   0.000000e+00   0.000000e+00   1.177889e+06   0.000000e+00   0.000000e+00   0.000000e+00
      408000   4.079990e-06   5.203351e-01   2.568319e+01   9.607724e+00   1.030233e+05   1.168135e+06  -1.107639e+05   0.000000e+00   0.000000e+00   0.000000e+00   1.177889e+06   0.000000e+00   0.000000e+00   0.000000e+00
      416000   4.159990e-06   5.285770e-01   2.577664e+01   9.598863e+00   1.030233e+05   1.168135e+06  -1.107639e+05   0.000000e+00   0.000000e+00   0.000000e+00   1.177889e+06   0.000000e+00   0.000000e+00   0.000000e+00
      424000   4.239990e-06   5.368188e-01   2.587009e+01   9.590002e+00   1.030233e+05   1.168135e+06  -1.107639e+05   0.000000e+00   0.000000e+00   0.000000e+00   1.177889e+06   0.000000e+00   0.000000e+00   0.000000e+00
      432000   4.319990e-06   5.450607e-01   2.596354e+01   9.581141e+00   1.030233e+05   1.168135e+06  -1.107639e+05   0.000000e+00   0.000000e+00   0.000000e+00   1.177889e+06   0.000000e+00   0.000000e+00   0.000000e+00
      440000   4.399990e-06   5.533026e-01   2.605699e+01   9.572280e+00   1.030233e+05   1.168135e+06  -1.107639e+05   0.000000e+00   0.000000e+00   0.000000e+00   1.177889e+06   0.000000e+00   0.000000e+00   0.000000e+00
      448000   4.479990e-06   5.615444e-01   2.615044e+01   9.563419e+00   1.030233e+05   1.168135e+06  -1.107639e+05   0.000000e+00   0.000000e+00   0.000000e+00   1.177889e+06   0.000000e+00   0.000000e+00   0.000000e+00
      456000   4.559990e-06   5.697863e-01   2.624389e+01   9.554558e+00   1.030233e+05   1.168135e+06  -1.107639e+05   0.000000e+00   0.000000e+00   0.000000e+00   1.177889e+06   0.000000e+00   0.000000e+00   0.000000e+00
      464000   4.639990e-06   5.780282e-01   2.633734e+01   9.545697e+00   1.030233e+05   1.168135e+06  -1.107639e+05   0.000000e+00   0.000000e+00   0.000000e+00   1.177889e+06   0.000000e+00   0.000000e+00   0.000000e+00
      472000   4.719990e-06   5.862700e-01   2.643079e+01   9.536835e+00   1.030233e+05   1.168135e+06  -1.107639e+05   0.000000e+00   0.000000e+00   0.000000e+00   1.177889e+06   0.000000e+00   0.000000e+00   0.000000e+00
      480000   4.799990e-06   5.945119e-01   2.652424e+01   9.527974e+00   1.030233e+05   1.168135e+06  -1.107639e+05   0.000000e+00   0.000000e+00   0.000000e+00   1.177889e+06   0.000000e+00   0.000000e+00   0.000000e+00
      488000   4.879990e-06   6.027538e-01   2.661769e+01   9.519113e+00   1.030233e+05   1.168135e+06  -1.107639e+05   0.000000e+00   0.000000e+00   0.000000e+00   1.177889e+06   0.000000e+00   0.000000e+00   0.000000e+00
      496000   4.959990e-06   6.109956e-01   2.671114e+01   9.510252e+00   1.030233e+05   1.168135e+06  -1.107639e+05   0.000000e+00   0.000000e+00   0.000000e+00   1.177889e+06   0.000000e+00   0.000000e+00   0.000000e+00
      504000   5.039990e-06   6.192375e-01   2.680460e+01   9.501391e+00   1.030233e+05   1.168135e+06  -1.107639e+05   0.000000e+00   0.000000e+00   0.000000e+00   1.177889e+06   0.000000e+00   0.000000e+00   0.000000e+00
      512000   5.119990e-06   6.274794e-01   2.689805e+01   9.492530e+00   1.030233e+05   1.168135e+06  -1.107639e+05   0.000000e+00   0.000000e+00   0.000000e+00   1.177889e+06   0.000000e+00   0.000000e+00   0.000000e+00
      520000   5.199990e-06   6.357212e-01   2.699150e+01   9.483669e+00   1.030233e+05   1.168135e+06  -1.107639e+05   0.000000e+00   0.000000e+00   0.000000e+00   1.177889e+06   0.000000e+00   0.000000e+00   0.000000e+00
      528000   5.279990e-06   6.439631e-01   2.708495e+01   9.474808e+00   1.030233e+05   1.168135e+06  -1.107639e+05   0.000000e+00   0.000000e+00   0.000000e+00   1.177889e+06   0.000000e+00   0.000000e+00   0.000000e+00
      536000   5.359990e-06   6.522049e-01   2.717840e+01   9.465947e+00   1.030233e+05   1.168135e+06  -1.107639e+05   0.000000e+00   0.000000e+00   0.000000e+00   1.177889e+06   0.000000e+00   0.000000e+00   0.000000e+00
      544000   5.439990e-06   6.604468e-01   2.727185e+01   9.457085e+00   1.030233e+05   1.168135e+06  -1.107639e+05   0.000000e+00   0.000000e+00   0.000000e+00   1.177889e+06   0.000000e+00   0.000000e+00   0.000000e+00
      552000   5.519990e-06   6.686887e-01   2.736530e+01   9.448224e+00   1.030233e+05   1.168135e+06  -1.107639e+05   0.000000e+00   0.000000e+00   0.000000e+00   1.177889e+06   0.000000e+00   0.000000e+00   0.000000e+00
      560000   5.599990e-06   6.769305e-01   2.745875e+01   9.439363e+00   1.030233e+05   1.168135e+06  -1.107639e+05   0.000000e+00   0.000000e+00   0.000000e+00   1.177889e+06   0.000000e+00   0.000000e+00   0.000000e+00
      568000   5.679990e-06   6.851724e-01   2.755220e+01   9.430502e+00   1.030233e+05   1.168135e+06  -1.107639e+05   0.000000e+00   0.000000e+00   0.000000e+00   1.177889e+06   0.000000e+00   0.000000e+00   0.000000e+00
      576000   5.759990e-06   6.934143e-01   2.764565e+01   9.421641e+00   1.030233e+05   1.168135e+06  -1.107639e+05   0.000000e+00   0.000000e+00   0.000000e+00   1.177889e+06   0.000000e+00   0.000000e+00   0.000000e+00
      584000   5.839990e-06   7.016561e-01   2.773910e+01   9.412780e+00   1.030233e+05   1.168135e+06  -1.107639e+05   0.000000e+00   0.000000e+00   0.000000e+00   1.177889e+06   0.000000e+00   0.000000e+00   0.000000e+00
      592000   5.919990e-06   7.098980e-01   2.783256e+01   9.403919e+00   1.030233e+05   1.168135e+06  -1.107639e+05   0.000000e+00   0.000000e+00   0.000000e+00   1.177889e+06   0.000000e+00   0.000000e+00   0.000000e+00
      600000   5.999990e-06   7.181399e-01   2.792601e+01   9.395058e+00   1.030233e+05   1.168135e+06  -1.107639e+05   0.000000e+00   0.000000e+00   0.000000e+00   1.177889e+06   0.000000e+00   0.000000e+00   0.000000e+00
      608000   6.079990e-06   7.263817e-01   2.801946e+01   9.386196e+00   1.030233e+05   1.168135e+06  -1.107639e+05   0.000000e+00   0.000000e+00   0.000000e+00   1.177889e+06   0.000000e+00   0.000000e+00   0.000000e+00
      616000   6.159990e-06   7.346236e-01   2.811291e+01   9.377335e+00   1.030233e+05   1.168135e+06  -1.107639e+05   0.000000e+00   0.000000e+00   0.000000e+00   1.177889e+06   0.000000e+00   0.000000e+00   0.000000e+00
      624000   6.239990e-06   7.428655e-01   2.820636e+01   9.368474e+00   1.030233e+05   1.168135e+06  -1.107639e+05   0.000000e+00   0.000000e+00   0.000000e+00   1.177889e+06   0.000000e+00   0.000000e+00   0.000000e+00
      632000   6.319990e-06   7.511073e-01   2.829981e+01   9.359613e+00   1.030233e+05   1.168135e+06  -1.107639e+05   0.000000e+00   0.000000e+00   0.000000e+00   1.177889e+06   0.000000e+00   0.000000e+00   0.000000e+00
      640000   6.399990e-06   7.593492e-01   2.839326e+01   9.350752e+00   1.030233e+05   1.168135e+06  -1.107639e+05   0.000000e+00   0.000000e+00   0.000000e+00   1.177889e+06   0.000000e+00   0.000000e+00   0.000000e+00
      648000   6.479990e-06   7.675911e-01   2.848671e+01   9.341891e+00   1.030233e+05   1.168135e+06  -1.107639e+05   0.000000e+00   0.000000e+00   0.000000e+00   1.177889e+06   0.000000e+00   0.000000e+00   0.000000e+00
      656000   6.559990e-06   7.758329e-01   2.858016e+01   9.333030e+00   1.030233e+05   1.168135e+06  -1.107639e+05   0.000000e+00   0.000000e+00   0.000000e+00   1.177889e+06   0.000000e+00   0.000000e+00   0.000000e+00
      664000   6.639990e-06   7.840748e-01   2.867361e+01   9.324169e+00   1.030233e+05   1.168135e+06  -1.107639e+05   0.000000e+00   0.000000e+00   0.000000e+00   1.177889e+06   0.000000e+00   0.000000e+00   0.000000e+00
      672000   6.719990e-06   7.923167e-01   2.876706e+01   9.315308e+00   1.030233e+05   1.168135e+06  -1.107639e+05   0.000000e+00   0.000000e+00   0.000000e+00   1.177889e+06   0.000000e+00   0.000000e+00   0.000000e+00
      680000   6.799990e-06   8.005585e-01   2.886051e+01   9.306446e+00   1.030233e+05   1.168135e+06  -1.107639e+05   0.000000e+00   0.000000e+00   0.000000e+00   1.177889e+06   0.000000e+00   0.000000e+00   0.000000e+00
      688000   6.879990e-06   8.088004e-01   2.895397e+01   9.297585e+00   1.030233e+05   1.168135e+06  -1.107639e+05   0.000000e+00   0.000000e+00   0.000000e+00   1.177889e+06   0.000000e+00   0.000000e+00   0.000000e+00
      696000   6.959990e-06   8.170422e-01   2.904742e+01   9.288724e+00   1.030233e+05   1.168135e+06  -1.107639e+05   0.000000e+00   0.000000e+00   0.000000e+00   1.177889e+06   0.000000e+00   0.000000e+00   0.000000e+00
      704000   7.039990e-06   8.252841e-01   2.914087e+01   9.279863e+00   1.030233e+05   1.168135e+06  -1.107639e+05   0.000000e+00   0.000000e+00   0.000000e+00   1.177889e+06   0.000000e+00   0.000000e+00   0.000000e+00
      712000   7.119990e-06   8.335260e-01   2.923432e+01   9.271002e+00   1.030233e+05   1.168135e+06  -1.107639e+05   0.000000e+00   0.000000e+00   0.000000e+00   1.177889e+06   0.000000e+00   0.000000e+00   0.000000e+00
      720000   7.199990e-06   8.417678e-01   2.932777e+01   9.262141e+00   1.030233e+05   1.168135e+06  -1.107639e+05   0.000000e+00   0.000000e+00   0.000000e+00   1.177889e+06   0.000000e+00   0.000000e+00   0.000000e+00
      728000   7.279990e-06   8.500097e-01   2.942122e+01   9.253280e+00   1.030233e+05   1.168135e+06  -1.107639e+05   0.000000e+00   0.000000e+00   0.000000e+00   1.177889e+06   0.000000e+00   0.000000e+00   0.000000e+00
      736000   7.359990e-06   8.582516e-01   2.951467e+01   9.244419e+00   1.030233e+05   1.168135e+06  -1.107639e+05   0.000000e+00   0.000000e+00   0.000000e+00   1.177889e+06   0.000000e+00   0.000000e+00   0.000000e+00
      744000   7.439990e-06   8.664934e-01   2.960812e+01   9.235558e+00   1.030233e+05   1.168135e+06  -1.107639e+05   0.000000e+00   0.000000e+00   0.000000e+00   1.177889e+06   0.000000e+00   0.000000e+00   0.000000e+00
      752000   7.519990e-06   8.747353e-01   2.970157e+01   9.226696e+00   1.030233e+05   1.168135e+06  -1.107639e+05   0.000000e+00   0.000000e+00   0.000000e+00   1.177889e+06   0.000000e+00   0.000000e+00   0.000000e+00
      760000   7.599990e-06   8.829772e-01   2.979502e+01   9.217835e+00   1.030233e+05   1.168135e+06  -1.107639e+05   0.000000e+00   0.000000e+00   0.000000e+00   1.177889e+06   0.000000e+00   0.000000e+00   0.000000e+00
      768000   7.679990e-06   8.912190e-01   2.988847e+01   9.208974e+00   1.030233e+05   1.168135e+06  -1.107639e+05   0.000000e+00   0.000000e+00   0.000000e+00   1.177889e+06   0.000000e+00   0.000000e+00   0.000000e+00
      776000   7.759990e-06   8.994609e-01   2.998192e+01   9.200113e+00   1.030233e+05   1.168135e+06  -1.107639e+05   0.000000e+00   0.000000e+00   0.000000e+00   1.177889e+06   0.000000e+00   0.000000e+00   0.000000e+00
      784000   7.839990e-06   9.077028e-01   3.007538e+01   9.191252e+00   1.030233e+05   1.168135e+06  -1.107639e+05   0.000000e+00   0.000000e+00   0.000000e+00   1.177889e+06   0.000000e+00   0.000000e+00   0.000000e+00
      792000   7.919990e-06   9.159446e-01   3.016883e+01   9.182391e+00   1.030233e+05   1.168135e+06  -1.107639e+05   0.000000e+00   0.000000e+00   0.000000e+00   1.177889e+06   0.000000e+00   0.000000e+00   0.000000e+00
      800000   7.999990e-06   9.241865e-01   3.026228e+01   9.173530e+00   1.030233e+05   1.168135e+06  -1.107639e+05   0.000000e+00   0.000000e+00   0.000000e+00   1.177889e+06   0.000000e+00   0.000000e+00   0.000000e+00
      808000   8.079990e-06   9.324284e-01   3.035573e+01   9.164669e+00   1.030233e+05   1.168135e+06  -1.107639e+05   0.000000e+00   0.000000e+00   0.000000e+00   1.177889e+06   0.000000e+00   0.000000e+00   0.000000e+00
      816000   8.159990e-06   9.406702e-01   3.044918e+01   9.155808e+00   1.030233e+05   1.168135e+06  -1.107639e+05   0.000000e+00   0.000000e+00   0.000000e+00   1.177889e+06   0.000000e+00   0.000000e+00   0.000000e+00
      824000   8.239990e-06   9.489121e-01   3.054263e+01   9.146946e+00   1.030233e+05   1.168135e+06  -1.107639e+05   0.000000e+00   0.000000e+00   0.000000e+00   1.177889e+06   0.000000e+00   0.000000e+00   0.000000e+00
      832000   8.319990e-06   9.571539e-01   3.063608e+01   9.138085e+00   1.030233e+05   1.168135e+06  -1.107639e+05   0.000000e+00   0.000000e+00   0.000000e+00   1.177889e+06   0.000000e+00   0.000000e+00   0.000000e+00
      840000   8.399990e-06   9.653958e-01   3.072953e+01   9.129224e+00   1.030233e+05   1.168135e+06  -1.107639e+05   0.000000e+00   0.000000e+00   0.000000e+00   1.177889e+06   0.000000e+00   0.000000e+00   0.000000e+00
      848000   8.479990e-06   9.736377e-01   3.082298e+01   9.120363e+00   1.030233e+05   1.168135e+06  -1.107639e+05   0.000000e+00   0.000000e+00   0.000000e+00   1.177889e+06   0.000000e+00   0.000000e+00   0.000000e+00
      856000   8.559990e-06   9.818795e-01   3.091643e+01   9.111502e+00   1.030233e+05   1.168135e+06  -1.107639e+05   0.000000e+00   0.000000e+00   0.000000e+00   1.177889e+06   0.000000e+00   0.000000e+00   0.000000e+00
      864000   8.639990e-06   9.901214e-01   3.100988e+01   9.102641e+00   1.030233e+05   1.168135e+06  -1.107639e+05   0.000000e+00   0.000000e+00   0.000000e+00   1.177889e+06   0.000000e+00   0.000000e+00   0.000000e+00
      872000   8.719990e-06   9.983633e-01   3.110333e+01   9.093780e+00   1.030233e+05   1.168135e+06  -1.107639e+05   0.000000e+00   0.000000e+00   0.000000e+00   1.177889e+06   0.000000e+00   0.000000e+00   0.000000e+00
      880000   8.799990e-06   1.006605e+00   3.119679e+01   9.084919e+00   1.030233e+05   1.168135e+06  -1.107639e+05   0.000000e+00   0.000000e+00   0.000000e+00   1.177889e+06   0.000000e+00   0.000000e+00   0.000000e+00
      888000   8.879990e-06   1.014847e+00   3.129024e+01   9.076058e+00   1.030233e+05   1.168135e+06  -1.107639e+05   0.000000e+00   0.000000e+00   0.000000e+00   1.177889e+06   0.000000e+00   0.000000e+00   0.000000e+00
      896000   8.959990e-06   1.023089e+00   3.138369e+01   9.067196e+00   1.030233e+05   1.168135e+06  -1.107639e+05   0.000000e+00   0.000000e+00   0.000000e+00   1.177889e+06   0.000000e+00   0.000000e+00   0.000000e+00
      904000   9.039990e-06   1.031331e+00   3.147714e+01   9.058335e+00   1.030233e+05   1.168135e+06  -1.107639e+05   0.000000e+00   0.000000e+00   0.000000e+00   1.177889e+06   0.000000e+00   0.000000e+00   0.000000e+00
      912000   9.119990e-06   1.039573e+00   3.157059e+01   9.049474e+00   1.030233e+05   1.168135e+06  -1.107639e+05   0.000000e+00   0.000000e+00   0.000000e+00   1.177889e+06   0.000000e+00   0.000000e+00   0.000000e+00
      920000   9.199990e-06   1.047814e+00   3.166404e+01   9.040613e+00   1.030233e+05   1.168135e+06  -1.107639e+05   0.000000e+00   0.000000e+00   0.000000e+00   1.177889e+06   0.000000e+00   0.000000e+00   0.000000e+00
      928000   9.279990e-06   1.056056e+00   3.175749e+01   9.031752e+00   1.030233e+05   1.168135e+06  -1.107639e+05   0.000000e+00   0.000000e+00   0.000000e+00   1.177889e+06   0.000000e+00   0.000000e+00   0.000000e+00
      936000   9.359990e-06   1.064298e+00   3.185094e+01   9.022891e+00   1.030233e+05   1.168135e+06  -1.107639e+05   0.000000e+00   0.000000e+00   0.000000e+00   1.177889e+06   0.000000e+00   0.000000e+00   0.000000e+00
      944000   9.439990e-06   1.072540e+00   3.194439e+01   9.014030e+00   1.030233e+05   1.168135e+06  -1.107639e+05   0.000000e+00   0.000000e+00   0.000000e+00   1.177889e+06   0.000000e+00   0.000000e+00   0.000000e+00
      952000   9.519990e-06   1.080782e+00   3.203784e+01   9.005169e+00   1.030233e+05   1.168135e+06  -1.107639e+05   0.000000e+00   0.000000e+00   0.000000e+00   1.177889e+06   0.000000e+00   0.000000e+00   0.000000e+00
      960000   9.599990e-06   1.089024e+00   3.213129e+01   8.996308e+00   1.030233e+05   1.168135e+06  -1.107639e+05   0.000000e+00   0.000000e+00   0.000000e+00   1.177889e+06   0.000000e+00   0.000000e+00   0.000000e+00
      968000   9.679990e-06   1.097266e+00   3.222474e+01   8.987446e+00   1.030233e+05   1.168135e+06  -1.107639e+05   0.000000e+00   0.000000e+00   0.000000e+00   1.177889e+06   0.000000e+00   0.000000e+00   0.000000e+00
      976000   9.759990e-06   1.105508e+00   3.231820e+01   8.978585e+00   1.030233e+05   1.168135e+06  -1.107639e+05   0.000000e+00   0.000000e+00   0.000000e+00   1.177889e+06   0.000000e+00   0.000000e+00   0.000000e+00
      984000   9.839990e-06   1.113749e+00   3.241165e+01   8.969724e+00   1.030233e+05   1.168135e+06  -1.107639e+05   0.000000e+00   0.000000e+00   0.000000e+00   1.177889e+06   0.000000e+00   0.000000e+00   0.000000e+00
      992000   9.919990e-06   1.121991e+00   3.250510e+01   8.960863e+00   1.030233e+05   1.168135e+06  -1.107639e+05   0.000000e+00   0.000000e+00   0.000000e+00   1.177889e+06   0.000000e+00   0.000000e+00   0.000000e+00
     1000000   9.999990e-06   1.130233e+00   3.259855e+01   8.952002e+00   1.030233e+05   1.168135e+06  -1.107639e+05   0.000000e+00   0.000000e+00   0.000000e+00   1.177889e+06   0.000000e+00   0.000000e+00   0.000000e+00
     1008000   1.007999e-05   1.138475e+00   3.269200e+01   8.943141e+00   1.030233e+05   1.168135e+06  -1.107639e+05   0.000000e+00   0.000000e+00   0.000000e+00   1.177889e+06   0.000000e+00   0.000000e+00   0.000000e+00
     1016000   1.015999e-05   1.146717e+00   3.278545e+01   8.934280e+00   1.030233e+05   1.168135e+06  -1.107639e+05   0.000000e+00   0.000000e+00   0.000000e+00   1.177889e+06   0.000000e+00   0.000000e+00   0.000000e+00
     1024000   1.023999e-05   1.154959e+00   3.287890e+01   8.925419e+00   1.030233e+05   1.168135e+06  -1.107639e+05   0.000000e+00   0.000000e+00   0.000000e+00   1.177889e+06   0.000000e+00   0.000000e+00   0.000000e+00
     1032000   1.031999e-05   1.163201e+00   3.297235e+01   8.916558e+00   1.030233e+05   1.168135e+06  -1.107639e+05   0.000000e+00   0.000000e+00   0.000000e+00   1.177889e+06   0.000000e+00   0.000000e+00   0.000000e+00
     1040000   1.039999e-05   1.171442e+00   3.306580e+01   8.907696e+00   1.030233e+05   1.168135e+06  -1.107639e+05   0.000000e+00   0.000000e+00   0.000000e+00   1.177889e+06   0.000000e+00   0.000000e+00   0.000000e+00
     1048000   1.047999e-05   1.179684e+00   3.315925e+01   8.898835e+00   1.030233e+05   1.168135e+06  -1.107639e+05   0.000000e+00   0.000000e+00   0.000000e+00   1.177889e+06   0.000000e+00   0.000000e+00   0.000000e+00
     1056000   1.055999e-05   1.187926e+00   3.325270e+01   8.889974e+00   1.030233e+05   1.168135e+06  -1.107639e+05   0.000000e+00   0.000000e+00   0.000000e+00   1.177889e+06   0.000000e+00   0.000000e+00   0.000000e+00
     1064000   1.063999e-05   1.196168e+00   3.334615e+01   8.881113e+00   1.030233e+05   1.168135e+06  -1.107639e+05   0.000000e+00   0.000000e+00   0.000000e+00   1.177889e+06   0.000000e+00   0.000000e+00   0.000000e+00
     1072000   1.071999e-05   1.204410e+00   3.343961e+01   8.872252e+00   1.030233e+05   1.168135e+06  -1.107639e+05   0.000000e+00   0.000000e+00   0.000000e+00   1.177889e+06   0.000000e+00   0.000000e+00   0.000000e+00
     1080000   1.079999e-05   1.212652e+00   3.353306e+01   8.863391e+00   1.030233e+05   1.168135e+06  -1.107639e+05   0.000000e+00   0.000000e+00   0.000000e+00   1.177889e+06   0.000000e+00   0.000000e+00   0.000000e+00
     1088000   1.087999e-05   1.220894e+00   3.362651e+01   8.854530e+00   1.030233e+05   1.168135e+06  -1.107639e+05   0.000000e+00   0.000000e+00   0.000000e+00   1.177889e+06   0.000000e+00   0.000000e+00   0.000000e+00
     1096000   1.095999e-05   1.229135e+00   3.371996e+01   8.845669e+00   1.030233e+05   1.168135e+06  -1.107639e+05   0.000000e+00   0.000000e+00   0.000000e+00   1.177889e+06   0.000000e+00   0.000000e+00   0.000000e+00
     1104000   1.103999e-05   1.237377e+00   3.381341e+01   8.836808e+00   1.030233e+05   1.168135e+06  -1.107639e+05   0.000000e+00   0.000000e+00   0.000000e+00   1.177889e+06   0.000000e+00   0.000000e+00   0.000000e+00
     1112000   1.111999e-05   1.245619e+00   3.390686e+01   8.827946e+00   1.030233e+05   1.168135e+06  -1.107639e+05   0.000000e+00   0.000000e+00   0.000000e+00   1.177889e+06   0.000000e+00   0.000000e+00   0.000000e+00
     1120000   1.119999e-05   1.253861e+00   3.400031e+01   8.819085e+00   1.030233e+05   1.168135e+06  -1.107639e+05   0.000000e+00   0.000000e+00   0.000000e+00   1.177889e+06   0.000000e+00   0.000000e+00   0.000000e+00
     1128000   1.127999e-05   1.262103e+00   3.409376e+01   8.810224e+00   1.030233e+05   1.168135e+06  -1.107639e+05   0.000000e+00   0.000000e+00   0.000000e+00   1.177889e+06   0.000000e+00   0.000000e+00   0.000000e+00
     1136000   1.135999e-05   1.270345e+00   3.418721e+01   8.801363e+00   1.030233e+05   1.168135e+06  -1.107639e+05   0.000000e+00   0.000000e+00   0.000000e+00   1.177889e+06   0.000000e+00   0.000000e+00   0.000000e+00
     1144000   1.143999e-05   1.278587e+00   3.428066e+01   8.792502e+00   1.030233e+05   1.168135e+06  -1.107639e+05   0.000000e+00   0.000000e+00   0.000000e+00   1.177889e+06   0.000000e+00   0.000000e+00   0.000000e+00
     1152000   1.151999e-05   1.286829e+00   3.437411e+01   8.783641e+00   1.030233e+05   1.168135e+06  -1.107639e+05   0.000000e+00   0.000000e+00   0.000000e+00   1.177889e+06   0.000000e+00   0.000000e+00   0.000000e+00
     1160000   1.159999e-05   1.295070e+00   3.446756e+01   8.774780e+00   1.030233e+05   1.168135e+06  -1.107639e+05   0.000000e+00   0.000000e+00   0.000000e+00   1.177889e+06   0.000000e+00   0.000000e+00   0.000000e+00
     1168000   1.167999e-05   1.303312e+00   3.456102e+01   8.765919e+00   1.030233e+05   1.168135e+06  -1.107639e+05   0.000000e+00   0.000000e+00   0.000000e+00   1.177889e+06   0.000000e+00   0.000000e+00   0.000000e+00
     1176000   1.175999e-05   1.311554e+00   3.465447e+01   8.757058e+00   1.030233e+05   1.168135e+06  -1.107639e+05   0.000000e+00   0.000000e+00   0.000000e+00   1.177889e+06   0.000000e+00   0.000000e+00   0.000000e+00
     1184000   1.183999e-05   1.319796e+00   3.474792e+01   8.748196e+00   1.030233e+05   1.168135e+06  -1.107639e+05   0.000000e+00   0.000000e+00   0.000000e+00   1.177889e+06   0.000000e+00   0.000000e+00   0.000000e+00
     1192000   1.191999e-05   1.328038e+00   3.484137e+01   8.739335e+00   1.030233e+05   1.168135e+06  -1.107639e+05   0.000000e+00   0.000000e+00   0.000000e+00   1.177889e+06   0.000000e+00   0.000000e+00   0.000000e+00
     1200000   1.199999e-05   1.336280e+00   3.493482e+01   8.730474e+00   1.030233e+05   1.168135e+06  -1.107639e+05   0.000000e+00   0.000000e+00   0.000000e+00   1.177889e+06   0.000000e+00   0.000000e+00   0.000000e+00
     1208000   1.207999e-05   1.344522e+00   3.502827e+01   8.721613e+00   1.030233e+05   1.168135e+06  -1.107639e+05   0.000000e+00   0.000000e+00   0.000000e+00   1.177889e+06   0.000000e+00   0.000000e+00   0.000000e+00
     1216000   1.215999e-05   1.352763e+00   3.512172e+01   8.712752e+00   1.030233e+05   1.168135e+06  -1.107639e+05   0.000000e+00   0.000000e+00   0.000000e+00   1.177889e+06   0.000000e+00   0.000000e+00   0.000000e+00
     1224000   1.223999e-05   1.361005e+00   3.521517e+01   8.703891e+00   1.030233e+05   1.168135e+06  -1.107639e+05   0.000000e+00   0.000000e+00   0.000000e+00   1.177889e+06   0.000000e+00   0.000000e+00   0.000000e+00
     1232000   1.231999e-05   1.369247e+00   3.530862e+01   8.695030e+00   1.030233e+05   1.168135e+06  -1.107639e+05   0.000000e+00   0.000000e+00   0.000000e+00   1.177889e+06   0.000000e+00   0.000000e+00   0.000000e+00
     1240000   1.239999e-05   1.377489e+00   3.540207e+01   8.686169e+00   1.030233e+05   1.168135e+06  -1.107639e+05   0.000000e+00   0.000000e+00   0.000000e+00   1.177889e+06   0.000000e+00   0.000000e+00   0.000000e+00
     1248000   1.247999e-05   1.385731e+00   3.549552e+01   8.677308e+00   1.030233e+05   1.168135e+06  -1.107639e+05   0.000000e+00   0.000000e+00   0.000000e+00   1.177889e+06   0.000000e+00   0.000000e+00   0.000000e+00
     1256000   1.255999e-05   1.393973e+00   3.558897e+01   8.668446e+00   1.030233e+05   1.168135e+06  -1.107639e+05   0.000000e+00   0.000000e+00   0.000000e+00   1.177889e+06   0.000000e+00   0.000000e+00   0.000000e+00
     1264000   1.263999e-05   1.402215e+00   3.568243e+01   8.659585e+00   1.030233e+05   1.168135e+06  -1.107639e+05   0.000000e+00   0.000000e+00   0.000000e+00   1.177889e+06   0.000000e+00   0.000000e+00   0.000000e+00
     1272000   1.271999e-05   1.410457e+00   3.577588e+01   8.650724e+00   1.030233e+05   1.168135e+06  -1.107639e+05   0.000000e+00   0.000000e+00   0.000000e+00   1.177889e+06   0.000000e+00   0.000000e+00   0.000000e+00
     1280000   1.279999e-05   1.418698e+00   3.586933e+01   8.641863e+00   1.030233e+05   1.168135e+06  -1.107639e+05   0.000000e+00   0.000000e+00   0.000000e+00   1.177889e+06   0.000000e+00   0.000000e+00   0.000000e+00
     1288000   1.287999e-05   1.426940e+00   3.596278e+01   8.633002e+00   1.030233e+05   1.168135e+06  -1.107639e+05   0.000000e+00   0.000000e+00   0.000000e+00   1.177889e+06   0.000000e+00   0.000000e+00   0.000000e+00
     1296000   1.295999e-05   1.435182e+00   3.605623e+01   8.624141e+00   1.030233e+05   1.168135e+06  -1.107639e+05   0.000000e+00   0.000000e+00   0.000000e+00   1.177889e+06   0.000000e+00   0.000000e+00   0.000000e+00
     1304000   1.303999e-05   1.443424e+00   3.614968e+01   8.615280e+00   1.030233e+05   1.168135e+06  -1.107639e+05   0.000000e+00   0.000000e+00   0.000000e+00   1.177889e+06   0.000000e+00   0.000000e+00   0.000000e+00
     1312000   1.311999e-05   1.451666e+00   3.624313e+01   8.606419e+00   1.030233e+05   1.168135e+06  -1.107639e+05   0.000000e+00   0.000000e+00   0.000000e+00   1.177889e+06   0.000000e+00   0.000000e+00   0.000000e+00
     1320000   1.319999e-05   1.459908e+00   3.633658e+01   8.597558e+00   1.030233e+05   1.168135e+06  -1.107639e+05   0.000000e+00   0.000000e+00   0.000000e+00   1.177889e+06   0.000000e+00   0.000000e+00   0.000000e+00
     1328000   1.327999e-05   1.468150e+00   3.643003e+01   8.588696e+00   1.030233e+05   1.168135e+06  -1.107639e+05   0.000000e+00   0.000000e+00   0.000000e+00   1.177889e+06   0.000000e+00   0.000000e+00   0.000000e+00
     1336000   1.335999e-05   1.476391e+00   3.652348e+01   8.579835e+00   1.030233e+05   1.168135e+06  -1.107639e+05   0.000000e+00   0.000000e+00   0.000000e+00   1.177889e+06   0.000000e+00   0.000000e+00   0.000000e+00
     1344000   1.343999e-05   1.484633e+00   3.661693e+01   8.570974e+00   1.030233e+05   1.168135e+06  -1.107639e+05   0.000000e+00   0.000000e+00   0.000000e+00   1.177889e+06   0.000000e+00   0.000000e+00   0.000000e+00
     1352000   1.351999e-05   1.492875e+00   3.671038e+01   8.562113e+00   1.030233e+05   1.168135e+06  -1.107639e+05   0.000000e+00   0.000000e+00   0.000000e+00   1.177889e+06   0.000000e+00   0.000000e+00   0.000000e+00
     1360000   1.359999e-05   1.501117e+00   3.680384e+01   8.553252e+00   1.030233e+05   1.168135e+06  -1.107639e+05   0.000000e+00   0.000000e+00   0.000000e+00   1.177889e+06   0.000000e+00   0.000000e+00   0.000000e+00
     1368000   1.367999e-05   1.509359e+00   3.689729e+01   8.544391e+00   1.030233e+05   1.168135e+06  -1.107639e+05   0.000000e+00   0.000000e+00   0.000000e+00   1.177889e+06   0.000000e+00   0.000000e+00   0.000000e+00
     1376000   1.375999e-05   1.517601e+00   3.699074e+01   8.535530e+00   1.030233e+05   1.168135e+06  -1.107639e+05   0.000000e+00   0.000000e+00   0.000000e+00   1.177889e+06   0.000000e+00   0.000000e+00   0.000000e+00
     1384000   1.383999e-05   1.525843e+00   3.708419e+01   8.526669e+00   1.030233e+05   1.168135e+06  -1.107639e+05   0.000000e+00   0.000000e+00   0.000000e+00   1.177889e+06   0.000000e+00   0.000000e+00   0.000000e+00
     1392000   1.391999e-05   1.534084e+00   3.717764e+01   8.517808e+00   1.030233e+05   1.168135e+06  -1.107639e+05   0.000000e+00   0.000000e+00   0.000000e+00   1.177889e+06   0.000000e+00   0.000000e+00   0.000000e+00
     1400000   1.399999e-05   1.542326e+00   3.727109e+01   8.508946e+00   1.030233e+05   1.168135e+06  -1.107639e+05   0.000000e+00   0.000000e+00   0.000000e+00   1.177889e+06   0.000000e+00   0.000000e+00   0.000000e+00
     1408000   1.407999e-05   1.550568e+00   3.736454e+01   8.500085e+00   1.030233e+05   1.168135e+06  -1.107639e+05   0.000000e+00   0.000000e+00   0.000000e+00   1.177889e+06   0.000000e+00   0.000000e+00   0.000000e+00
     1416000   1.415999e-05   1.558810e+00   3.745799e+01   8.491224e+00   1.030233e+05   1.168135e+06  -1.107639e+05   0.000000e+00   0.000000e+00   0.000000e+00   1.177889e+06   0.000000e+00   0.000000e+00   0.000000e+00
     1424000   1.423999e-05   1.567052e+00   3.755144e+01   8.482363e+00   1.030233e+05   1.168135e+06  -1.107639e+05   0.000000e+00   0.000000e+00   0.000000e+00   1.177889e+06   0.000000e+00   0.000000e+00   0.000000e+00
     1432000   1.431999e-05   1.575294e+00   3.764489e+01   8.473502e+00   1.030233e+05   1.168135e+06  -1.107639e+05   0.000000e+00   0.000000e+00   0.000000e+00   1.177889e+06   0.000000e+00   0.000000e+00   0.000000e+00
     1440000   1.439999e-05   1.583536e+00   3.773834e+01   8.464641e+00   1.030233e+05   1.168135e+06  -1.107639e+05   0.000000e+00   0.000000e+00   0.000000e+00   1.177889e+06   0.000000e+00   0.000000e+00   0.000000e+00
     1448000   1.447999e-05   1.591778e+00   3.783179e+01   8.455780e+00   1.030233e+05   1.168135e+06  -1.107639e+05   0.000000e+00   0.000000e+00   0.000000e+00   1.177889e+06   0.000000e+00   0.000000e+00   0.000000e+00
     1456000   1.455999e-05   1.600019e+00   3.792525e+01   8.446919e+00   1.030233e+05   1.168135e+06  -1.107639e+05   0.000000e+00   0.000000e+00   0.000000e+00   1.177889e+06   0.000000e+00   0.000000e+00   0.000000e+00
     1464000   1.463999e-05   1.608261e+00   3.801870e+01   8.438058e+00   1.030233e+05   1.168135e+06  -1.107639e+05   0.000000e+00   0.000000e+00   0.000000e+00   1.177889e+06   0.000000e+00   0.000000e+00   0.000000e+00
     1472000   1.471999e-05   1.616503e+00   3.811215e+01   8.429196e+00   1.030233e+05   1.168135e+06  -1.107639e+05   0.000000e+00   0.000000e+00   0.000000e+00   1.177889e+06   0.000000e+00   0.000000e+00   0.000000e+00
     1480000   1.479999e-05   1.624745e+00   3.820560e+01   8.420335e+00   1.030233e+05   1.168135e+06  -1.107639e+05   0.000000e+00   0.000000e+00   0.000000e+00   1.177889e+06   0.000000e+00   0.000000e+00   0.000000e+00
     1488000   1.487999e-05   1.632987e+00   3.829905e+01   8.411474e+00   1.030233e+05   1.168135e+06  -1.107639e+05   0.000000e+00   0.000000e+00   0.000000e+00   1.177889e+06   0.000000e+00   0.000000e+00   0.000000e+00
     1496000   1.495999e-05   1.641229e+00   3.839250e+01   8.402613e+00   1.030233e+05   1.168135e+06  -1.107639e+05   0.000000e+00   0.000000e+00   0.000000e+00   1.177889e+06   0.000000e+00   0.000000e+00   0.000000e+00
     1504000   1.503999e-05   1.649471e+00   3.848595e+01   8.393752e+00   1.030233e+05   1.168135e+06  -1.107639e+05   0.000000e+00   0.000000e+00   0.000000e+00   1.177889e+06   0.000000e+00   0.000000e+00   0.000000e+00
     1512000   1.511999e-05   1.657712e+00   3.857940e+01   8.384891e+00   1.030233e+05   1.168135e+06  -1.107639e+05   0.000000e+00   0.000000e+00   0.000000e+00   1.177889e+06   0.000000e+00   0.000000e+00   0.000000e+00
     1520000   1.519999e-05   1.665954e+00   3.867285e+01   8.376030e+00   1.030233e+05   1.168135e+06  -1.107639e+05   0.000000e+00   0.000000e+00   0.000000e+00   1.177889e+06   0.000000e+00   0.000000e+00   0.000000e+00
     1528000   1.527999e-05   1.674196e+00   3.876630e+01   8.367169e+00   1.030233e+05   1.168135e+06  -1.107639e+05   0.000000e+00   0.000000e+00   0.000000e+00   1.177889e+06   0.000000e+00   0.000000e+00   0.000000e+00
     1536000   1.535999e-05   1.682438e+00   3.885975e+01   8.358308e+00   1.030233e+05   1.168135e+06  -1.107639e+05   0.000000e+00   0.000000e+00   0.000000e+00   1.177889e+06   0.000000e+00   0.000000e+00   0.000000e+00
     1544000   1.543999e-05   1.690680e+00   3.895320e+01   8.349446e+00   1.030233e+05   1.168135e+06  -1.107639e+05   0.000000e+00   0.000000e+00   0.000000e+00   1.177889e+06   0.000000e+00   0.000000e+00   0.000000e+00
     1552000   1.551999e-05   1.698922e+00   3.904666e+01   8.340585e+00   1.030233e+05   1.168135e+06  -1.107639e+05   0.000000e+00   0.000000e+00   0.000000e+00   1.177889e+06   0.000000e+00   0.000000e+00   0.000000e+00
     1560000   1.559999e-05   1.707164e+00   3.914011e+01   8.331724e+00   1.030233e+05   1.168135e+06  -1.107639e+05   0.000000e+00   0.000000e+00   0.000000e+00   1.177889e+06   0.000000e+00   0.000000e+00   0.000000e+00
     1568000   1.567999e-05   1.715406e+00   3.923356e+01   8.322863e+00   1.030233e+05   1.168135e+06  -1.107639e+05   0.000000e+00   0.000000e+00   0.000000e+00   1.177889e+06   0.000000e+00   0.000000e+00   0.000000e+00
     1576000   1.575999e-05   1.723647e+00   3.932701e+01   8.314002e+00   1.030233e+05   1.168135e+06  -1.107639e+05   0.000000e+00   0.000000e+00   0.000000e+00   1.177889e+06   0.000000e+00   0.000000e+00   0.000000e+00
     1584000   1.583999e-05   1.731889e+00   3.942046e+01   8.305141e+00   1.030233e+05   1.168135e+06  -1.107639e+05   0.000000e+00   0.000000e+00   0.000000e+00   1.177889e+06   0.000000e+00   0.000000e+00   0.000000e+00
     1592000   1.591999e-05   1.740131e+00   3.951391e+01   8.296280e+00   1.030233e+05   1.168135e+06  -1.107639e+05   0.000000e+00   0.000000e+00   0.000000e+00   1.177889e+06   0.000000e+00   0.000000e+00   0.000000e+00
     1600000   1.599999e-05   1.748373e+00   3.960736e+01   8.287419e+00   1.030233e+05   1.168135e+06  -1.107639e+05   0.000000e+00   0.000000e+00   0.000000e+00   1.177889e+06   0.000000e+00   0.000000e+00   0.000000e+00
     1608000   1.607999e-05   1.756615e+00   3.970081e+01   8.278558e+00   1.030233e+05   1.168135e+06  -1.107639e+05   0.000000e+00   0.000000e+00   0.000000e+00   1.177889e+06   0.000000e+00   0.000000e+00   0.000000e+00
     1616000   1.615999e-05   1.764857e+00   3.979426e+01   8.269696e+00   1.030233e+05   1.168135e+06  -1.107639e+05   0.000000e+00   0.000000e+00   0.000000e+00   1.177889e+06   0.000000e+00   0.000000e+00   0.000000e+00
     1624000   1.623999e-05   1.773099e+00   3.988771e+01   8.260835e+00   1.030233e+05   1.168135e+06  -1.107639e+05   0.000000e+00   0.000000e+00   0.000000e+00   1.177889e+06   0.000000e+00   0.000000e+00   0.000000e+00
     1632000   1.631999e-05   1.781340e+00   3.998116e+01   8.251974e+00   1.030233e+05   1.168135e+06  -1.107639e+05   0.000000e+00   0.000000e+00   0.000000e+00   1.177889e+06   0.000000e+00   0.000000e+00   0.000000e+00
     1640000   1.639999e-05   1.789582e+00   4.007461e+01   8.243113e+00   1.030233e+05   1.168135e+06  -1.107639e+05   0.000000e+00   0.000000e+00   0.000000e+00   1.177889e+06   0.000000e+00   0.000000e+00   0.000000e+00
     1648000   1.647999e-05   1.797824e+00   4.016807e+01   8.234252e+00   1.030233e+05   1.168135e+06  -1.107639e+05   0.000000e+00   0.000000e+00   0.000000e+00   1.177889e+06   0.000000e+00   0.000000e+00   0.000000e+00
     1656000   1.655999e-05   1.806066e+00   4.026152e+01   8.225391e+00   1.030233e+05   1.168135e+06  -1.107639e+05   0.000000e+00   0.000000e+00   0.000000e+00   1.177889e+06   0.000000e+00   0.000000e+00   0.000000e+00
     1664000   1.663999e-05   1.814308e+00   4.035497e+01   8.216530e+00   1.030233e+05   1.168135e+06  -1.107639e+05   0.000000e+00   0.000000e+00   0.000000e+00   1.177889e+06   0.000000e+00   0.000000e+00   0.000000e+00
     1672000   1.671999e-05   1.822550e+00   4.044842e+01   8.207669e+00   1.030233e+05   1.168135e+06  -1.107639e+05   0.000000e+00   0.000000e+00   0.000000e+00   1.177889e+06   0.000000e+00   0.000000e+00   0.000000e+00
     1680000   1.679999e-05   1.830792e+00   4.054187e+01   8.198808e+00   1.030233e+05   1.168135e+06  -1.107639e+05   0.000000e+00   0.000000e+00   0.000000e+00   1.177889e+06   0.000000e+00   0.000000e+00   0.000000e+00
     1688000   1.687999e-05   1.839033e+00   4.063532e+01   8.189946e+00   1.030233e+05   1.168135e+06  -1.107639e+05   0.000000e+00   0.000000e+00   0.000000e+00   1.177889e+06   0.000000e+00   0.000000e+00   0.000000e+00
     1696000   1.695999e-05   1.847275e+00   4.072877e+01   8.181085e+00   1.030233e+05   1.168135e+06  -1.107639e+05   0.000000e+00   0.000000e+00   0.000000e+00   1.177889e+06   0.000000e+00   0.000000e+00   0.000000e+00
     1704000   1.703999e-05   1.855517e+00   4.082222e+01   8.172224e+00   1.030233e+05   1.168135e+06  -1.107639e+05   0.000000e+00   0.000000e+00   0.000000e+00   1.177889e+06   0.000000e+00   0.000000e+00   0.000000e+00
     1712000   1.711999e-05   1.863759e+00   4.091567e+01   8.163363e+00   1.030233e+05   1.168135e+06  -1.107639e+05   0.000000e+00   0.000000e+00   0.000000e+00   1.177889e+06   0.000000e+00   0.000000e+00   0.000000e+00
     1720000   1.719999e-05   1.872001e+00   4.100912e+01   8.154502e+00   1.030233e+05   1.168135e+06  -1.107639e+05   0.000000e+00   0.000000e+00   0.000000e+00   1.177889e+06   0.000000e+00   0.000000e+00   0.000000e+00
     1728000   1.727999e-05   1.880243e+00   4.110257e+01   8.145641e+00   1.030233e+05   1.168135e+06  -1.107639e+05   0.000000e+00   0.000000e+00   0.000000e+00   1.177889e+06   0.000000e+00   0.000000e+00   0.000000e+00
     1736000   1.735999e-05   1.888485e+00   4.119602e+01   8.136780e+00   1.030233e+05   1.168135e+06  -1.107639e+05   0.000000e+00   0.000000e+00   0.000000e+00   1.177889e+06   0.000000e+00   0.000000e+00   0.000000e+00
     1744000   1.743999e-05   1.896727e+00   4.128948e+01   8.127919e+00   1.030233e+05   1.168135e+06  -1.107639e+05   0.000000e+00   0.000000e+00   0.000000e+00   1.177889e+06   0.000000e+00   0.000000e+00   0.000000e+00
     1752000   1.751999e-05   1.904968e+00   4.138293e+01   8.119057e+00   1.030233e+05   1.168135e+06  -1.107639e+05   0.000000e+00   0.000000e+00   0.000000e+00   1.177889e+06   0.000000e+00   0.000000e+00   0.000000e+00
     1760000   1.759999e-05   1.913210e+00   4.147638e+01   8.110196e+00   1.030233e+05   1.168135e+06  -1.107639e+05   0.000000e+00   0.000000e+00   0.000000e+00   1.177889e+06   0.000000e+00   0.000000e+00   0.000000e+00
     1768000   1.767999e-05   1.921452e+00   4.156983e+01   8.101335e+00   1.030233e+05   1.168135e+06  -1.107639e+05   0.000000e+00   0.000000e+00   0.000000e+00   1.177889e+06   0.000000e+00   0.000000e+00   0.000000e+00
     1776000   1.775999e-05   1.929694e+00   4.166328e+01   8.092474e+00   1.030233e+05   1.168135e+06  -1.107639e+05   0.000000e+00   0.000000e+00   0.000000e+00   1.177889e+06   0.000000e+00   0.000000e+00   0.000000e+00
     1784000   1.783999e-05   1.937936e+00   4.175673e+01   8.083613e+00   1.030233e+05   1.168135e+06  -1.107639e+05   0.000000e+00   0.000000e+00   0.000000e+00   1.177889e+06   0.000000e+00   0.000000e+00   0.000000e+00
     1792000   1.791999e-05   1.946178e+00   4.185018e+01   8.074752e+00   1.030233e+05   1.168135e+06  -1.107639e+05   0.000000e+00   0.000000e+00   0.000000e+00   1.177889e+06   0.000000e+00   0.000000e+00   0.000000e+00
     1800000   1.799999e-05   1.954420e+00   4.194363e+01   8.065891e+00   1.030233e+05   1.168135e+06  -1.107639e+05   0.000000e+00   0.000000e+00   0.000000e+00   1.177889e+06   0.000000e+00   0.000000e+00   0.000000e+00
     1808000   1.807999e-05   1.962661e+00   4.203708e+01   8.057030e+00   1.030233e+05   1.168135e+06  -1.107639e+05   0.000000e+00   0.000000e+00   0.000000e+00   1.177889e+06   0.000000e+00   0.000000e+00   0.000000e+00
     1816000   1.815999e-05   1.970903e+00   4.213053e+01   8.048169e+00   1.030233e+05   1.168135e+06  -1.107639e+05   0.000000e+00   0.000000e+00   0.000000e+00   1.177889e+06   0.000000e+00   0.000000e+00   0.000000e+00
     1824000   1.823999e-05   1.979145e+00   4.222398e+01   8.039307e+00   1.030233e+05   1.168135e+06  -1.107639e+05   0.000000e+00   0.000000e+00   0.000000e+00   1.177889e+06   0.000000e+00   0.000000e+00   0.000000e+00
     1832000   1.831999e-05   1.987387e+00   4.231744e+01   8.030446e+00   1.030233e+05   1.168135e+06  -1.107639e+05   0.000000e+00   0.000000e+00   0.000000e+00   1.177889e+06   0.000000e+00   0.000000e+00   0.000000e+00
     1840000   1.839999e-05   1.995629e+00   4.241089e+01   8.021585e+00   1.030233e+05   1.168135e+06  -1.107639e+05   0.000000e+00   0.000000e+00   0.000000e+00   1.177889e+06   0.000000e+00   0.000000e+00   0.000000e+00
     1848000   1.847999e-05   2.003871e+00   4.250434e+01   8.012724e+00   1.030233e+05   1.168135e+06  -1.107639e+05   0.000000e+00   0.000000e+00   0.000000e+00   1.177889e+06   0.000000e+00   0.000000e+00   0.000000e+00
     1856000   1.855999e-05   2.012113e+00   4.259779e+01   8.003863e+00   1.030233e+05   1.168135e+06  -1.107639e+05   0.000000e+00   0.000000e+00   0.000000e+00   1.177889e+06   0.000000e+00   0.000000e+00   0.000000e+00
     1864000   1.863999e-05   2.020355e+00   4.269124e+01   7.995002e+00   1.030233e+05   1.168135e+06  -1.107639e+05   0.000000e+00   0.000000e+00   0.000000e+00   1.177889e+06   0.000000e+00   0.000000e+00   0.000000e+00
     1872000   1.871999e-05   2.028596e+00   4.278469e+01   7.986141e+00   1.030233e+05   1.168135e+06  -1.107639e+05   0.000000e+00   0.000000e+00   0.000000e+00   1.177889e+06   0.000000e+00   0.000000e+00   0.000000e+00
     1880000   1.879999e-05   2.036838e+00   4.287814e+01   7.977280e+00   1.030233e+05   1.168135e+06  -1.107639e+05   0.000000e+00   0.000000e+00   0.000000e+00   1.177889e+06   0.000000e+00   0.000000e+00   0.000000e+00
     1888000   1.887999e-05   2.045080e+00   4.297159e+01   7.968419e+00   1.030233e+05   1.168135e+06  -1.107639e+05   0.000000e+00   0.000000e+00   0.000000e+00   1.177889e+06   0.000000e+00   0.000000e+00   0.000000e+00
     1896000   1.895999e-05   2.053322e+00   4.306504e+01   7.959557e+00   1.030233e+05   1.168135e+06  -1.107639e+05   0.000000e+00   0.000000e+00   0.000000e+00   1.177889e+06   0.000000e+00   0.000000e+00   0.000000e+00
     1904000   1.903999e-05   2.061564e+00   4.315849e+01   7.950696e+00   1.030233e+05   1.168135e+06  -1.107639e+05   0.000000e+00   0.000000e+00   0.000000e+00   1.177889e+06   0.000000e+00   0.000000e+00   0.000000e+00
     1912000   1.911999e-05   2.069806e+00   4.325194e+01   7.941835e+00   1.030233e+05   1.168135e+06  -1.107639e+05   0.000000e+00   0.000000e+00   0.000000e+00   1.177889e+06   0.000000e+00   0.000000e+00   0.000000e+00
     1920000   1.919999e-05   2.078048e+00   4.334539e+01   7.932974e+00   1.030233e+05   1.168135e+06  -1.107639e+05   0.000000e+00   0.000000e+00   0.000000e+00   1.177889e+06   0.000000e+00   0.000000e+00   0.000000e+00
     1928000   1.927999e-05   2.086289e+00   4.343885e+01   7.924113e+00   1.030233e+05   1.168135e+06  -1.107639e+05   0.000000e+00   0.000000e+00   0.000000e+00   1.177889e+06   0.000000e+00   0.000000e+00   0.000000e+00
     1936000   1.935999e-05   2.094531e+00   4.353230e+01   7.915252e+00   1.030233e+05   1.168135e+06  -1.107639e+05   0.000000e+00   0.000000e+00   0.000000e+00   1.177889e+06   0.000000e+00   0.000000e+00   0.000000e+00
     1944000   1.943999e-05   2.102773e+00   4.362575e+01   7.906391e+00   1.030233e+05   1.168135e+06  -1.107639e+05   0.000000e+00   0.000000e+00   0.000000e+00   1.177889e+06   0.000000e+00   0.000000e+00   0.000000e+00
     1952000   1.951999e-05   2.111015e+00   4.371920e+01   7.897530e+00   1.030233e+05   1.168135e+06  -1.107639e+05   0.000000e+00   0.000000e+00   0.000000e+00   1.177889e+06   0.000000e+00   0.000000e+00   0.000000e+00
     1960000   1.959999e-05   2.119257e+00   4.381265e+01   7.888669e+00   1.030233e+05   1.168135e+06  -1.107639e+05   0.000000e+00   0.000000e+00   0.000000e+00   1.177889e+06   0.000000e+00   0.000000e+00   0.000000e+00
     1968000   1.967999e-05   2.127499e+00   4.390610e+01   7.879807e+00   1.030233e+05   1.168135e+06  -1.107639e+05   0.000000e+00   0.000000e+00   0.000000e+00   1.177889e+06   0.000000e+00   0.000000e+00   0.000000e+00
     1976000   1.975999e-05   2.135741e+00   4.399955e+01   7.870946e+00   1.030233e+05   1.168135e+06  -1.107639e+05   0.000000e+00   0.000000e+00   0.000000e+00   1.177889e+06   0.000000e+00   0.000000e+00   0.000000e+00
     1984000   1.983999e-05   2.143982e+00   4.409300e+01   7.862085e+00   1.030233e+05   1.168135e+06  -1.107639e+05   0.000000e+00   0.000000e+00   0.000000e+00   1.177889e+06   0.000000e+00   0.000000e+00   0.000000e+00
     1992000   1.991999e-05   2.152224e+00   4.418645e+01   7.853224e+00   1.030233e+05   1.168135e+06  -1.107639e+05   0.000000e+00   0.000000e+00   0.000000e+00   1.177889e+06   0.000000e+00   0.000000e+00   0.000000e+00
     2000000   1.999999e-05   2.160466e+00   4.427990e+01   7.844363e+00   1.030233e+05   1.168135e+06  -1.107639e+05   0.000000e+00   0.000000e+00   0.000000e+00   1.177889e+06   0.000000e+00   0.000000e+00   0.000000e+00
     2008000   2.007999e-05   2.168708e+00   4.437335e+01   7.835502e+00   1.030233e+05   1.168135e+06  -1.107639e+05   0.000000e+00   0.000000e+00   0.000000e+00   1.177889e+06   0.000000e+00   0.000000e+00   0.000000e+00
     2016000   2.015999e-05   2.176950e+00   4.446680e+01   7.826641e+00   1.030233e+05   1.168135e+06  -1.107639e+05   0.000000e+00   0.000000e+00   0.000000e+00   1.177889e+06   0.000000e+00   0.000000e+00   0.000000e+00
     2024000   2.023999e-05   2.185192e+00   4.456026e+01   7.817780e+00   1.030233e+05   1.168135e+06  -1.107639e+05   0.000000e+00   0.000000e+00   0.000000e+00   1.177889e+06   0.000000e+00   0.000000e+00   0.000000e+00
     2032000   2.031999e-05   2.193434e+00   4.465371e+01   7.808919e+00   1.030233e+05   1.168135e+06  -1.107639e+05   0.000000e+00   0.000000e+00   0.000000e+00   1.177889e+06   0.000000e+00   0.000000e+00   0.000000e+00
     2040000   2.039999e-05   2.201676e+00   4.474716e+01   7.800057e+00   1.030233e+05   1.168135e+06  -1.107639e+05   0.000000e+00   0.000000e+00   0.000000e+00   1.177889e+06   0.000000e+00   0.000000e+00   0.000000e+00
     2048000   2.047999e-05   2.209917e+00   4.484061e+01   7.791196e+00   1.030233e+05   1.168135e+06  -1.107639e+05   0.000000e+00   0.000000e+00   0.000000e+00   1.177889e+06   0.000000e+00   0.000000e+00   0.000000e+00
     2056000   2.055999e-05   2.218159e+00   4.493406e+01   7.782335e+00   1.030233e+05   1.168135e+06  -1.107639e+05   0.000000e+00   0.000000e+00   0.000000e+00   1.177889e+06   0.000000e+00   0.000000e+00   0.000000e+00
     2064000   2.063999e-05   2.226401e+00   4.502751e+01   7.773474e+00   1.030233e+05   1.168135e+06  -1.107639e+05   0.000000e+00   0.000000e+00   0.000000e+00   1.177889e+06   0.000000e+00   0.000000e+00   0.000000e+00
     2072000   2.071999e-05   2.234643e+00   4.512096e+01   7.764613e+00   1.030233e+05   1.168135e+06  -1.107639e+05   0.000000e+00   0.000000e+00   0.000000e+00   1.177889e+06   0.000000e+00   0.000000e+00   0.000000e+00
     2080000   2.079999e-05   2.242885e+00   4.521441e+01   7.755752e+00   1.030233e+05   1.168135e+06  -1.107639e+05   0.000000e+00   0.000000e+00   0.000000e+00   1.177889e+06   0.000000e+00   0.000000e+00   0.000000e+00
     2088000   2.087999e-05   2.251127e+00   4.530786e+01   7.746891e+00   1.030233e+05   1.168135e+06  -1.107639e+05   0.000000e+00   0.000000e+00   0.000000e+00   1.177889e+06   0.000000e+00   0.000000e+00   0.000000e+00
     2096000   2.095999e-05   2.259369e+00   4.540131e+01   7.738030e+00   1.030233e+05   1.168135e+06  -1.107639e+05   0.000000e+00   0.000000e+00   0.000000e+00   1.177889e+06   0.000000e+00   0.000000e+00   0.000000e+00
     2104000   2.103999e-05   2.267610e+00   4.549476e+01   7.729169e+00   1.030233e+05   1.168135e+06  -1.107639e+05   0.000000e+00   0.000000e+00   0.000000e+00   1.177889e+06   0.000000e+00   0.000000e+00   0.000000e+00
     2112000   2.111999e-05   2.275852e+00   4.558821e+01   7.720307e+00   1.030233e+05   1.168135e+06  -1.107639e+05   0.000000e+00   0.000000e+00   0.000000e+00   1.177889e+06   0.000000e+00   0.000000e+00   0.000000e+00
     2120000   2.119999e-05   2.284094e+00   4.568167e+01   7.711446e+00   1.030233e+05   1.168135e+06  -1.107639e+05   0.000000e+00   0.000000e+00   0.000000e+00   1.177889e+06   0.000000e+00   0.000000e+00   0.000000e+00
     2128000   2.127999e-05   2.292336e+00   4.577512e+01   7.702585e+00   1.030233e+05   1.168135e+06  -1.107639e+05   0.000000e+00   0.000000e+00   0.000000e+00   1.177889e+06   0.000000e+00   0.000000e+00   0.000000e+00
     2136000   2.135999e-05   2.300578e+00   4.586857e+01   7.693724e+00   1.030233e+05   1.168135e+06  -1.107639e+05   0.000000e+00   0.000000e+00   0.000000e+00   1.177889e+06   0.000000e+00   0.000000e+00   0.000000e+00
     2144000   2.143999e-05   2.308820e+00   4.596202e+01   7.684863e+00   1.030233e+05   1.168135e+06  -1.107639e+05   0.000000e+00   0.000000e+00   0.000000e+00   1.177889e+06   0.000000e+00   0.000000e+00   0.000000e+00
     2152000   2.151999e-05   2.317062e+00   4.605547e+01   7.676002e+00   1.030233e+05   1.168135e+06  -1.107639e+05   0.000000e+00   0.000000e+00   0.000000e+00   1.177889e+06   0.000000e+00   0.000000e+00   0.000000e+00
     2160000   2.159999e-05   2.325304e+00   4.614892e+01   7.667141e+00   1.030233e+05   1.168135e+06  -1.107639e+05   0.000000e+00   0.000000e+00   0.000000e+00   1.177889e+06   0.000000e+00   0.000000e+00   0.000000e+00
     2168000   2.167999e-05   2.333545e+00   4.624237e+01   7.658280e+00   1.030233e+05   1.168135e+06  -1.107639e+05   0.000000e+00   0.000000e+00   0.000000e+00   1.177889e+06   0.000000e+00   0.000000e+00   0.000000e+00
     2176000   2.175999e-05   2.341787e+00   4.633582e+01   7.649419e+00   1.030233e+05   1.168135e+06  -1.107639e+05   0.000000e+00   0.000000e+00   0.000000e+00   1.177889e+06   0.000000e+00   0.000000e+00   0.000000e+00
     2184000   2.183999e-05   2.350029e+00   4.642927e+01   7.640557e+00   1.030233e+05   1.168135e+06  -1.107639e+05   0.000000e+00   0.000000e+00   0.000000e+00   1.177889e+06   0.000000e+00   0.000000e+00   0.000000e+00
     2192000   2.191999e-05   2.358271e+00   4.652272e+01   7.631696e+00   1.030233e+05   1.168135e+06  -1.107639e+05   0.000000e+00   0.000000e+00   0.000000e+00   1.177889e+06   0.000000e+00   0.000000e+00   0.000000e+00
     2200000   2.199999e-05   2.366513e+00   4.661617e+01   7.622835e+00   1.030233e+05   1.168135e+06  -1.107639e+05   0.000000e+00   0.000000e+00   0.000000e+00   1.177889e+06   0.000000e+00   0.000000e+00   0.000000e+00
     2208000   2.207999e-05   2.374755e+00   4.670962e+01   7.613974e+00   1.030233e+05   1.168135e+06  -1.107639e+05   0.000000e+00   0.000000e+00   0.000000e+00   1.177889e+06   0.000000e+00   0.000000e+00   0.000000e+00
     2216000   2.215999e-05   2.382997e+00   4.680308e+01   7.605113e+00   1.030233e+05   1.168135e+06  -1.107639e+05   0.000000e+00   0.000000e+00   0.000000e+00   1.177889e+06   0.000000e+00   0.000000e+00   0.000000e+00
     2224000   2.223999e-05   2.391238e+00   4.689653e+01   7.596252e+00   1.030233e+05   1.168135e+06  -1.107639e+05   0.000000e+00   0.000000e+00   0.000000e+00   1.177889e+06   0.000000e+00   0.000000e+00   0.000000e+00
     2232000   2.231999e-05   2.399480e+00   4.698998e+01   7.587391e+00   1.030233e+05   1.168135e+06  -1.107639e+05   0.000000e+00   0.000000e+00   0.000000e+00   1.177889e+06   0.000000e+00   0.000000e+00   0.000000e+00
     2240000   2.239999e-05   2.407722e+00   4.708343e+01   7.578530e+00   1.030233e+05   1.168135e+06  -1.107639e+05   0.000000e+00   0.000000e+00   0.000000e+00   1.177889e+06   0.000000e+00   0.000000e+00   0.000000e+00
     2248000   2.247999e-05   2.415964e+00   4.717688e+01   7.569669e+00   1.030233e+05   1.168135e+06  -1.107639e+05   0.000000e+00   0.000000e+00   0.000000e+00   1.177889e+06   0.000000e+00   0.000000e+00   0.000000e+00
     2256000   2.255999e-05   2.424206e+00   4.727033e+01   7.560807e+00   1.030233e+05   1.168135e+06  -1.107639e+05   0.000000e+00   0.000000e+00   0.000000e+00   1.177889e+06   0.000000e+00   0.000000e+00   0.000000e+00
     2264000   2.263999e-05   2.432448e+00   4.736378e+01   7.551946e+00   1.030233e+05   1.168135e+06  -1.107639e+05   0.000000e+00   0.000000e+00   0.000000e+00   1.177889e+06   0.000000e+00   0.000000e+00   0.000000e+00
     2272000   2.271999e-05   2.440690e+00   4.745723e+01   7.543085e+00   1.030233e+05   1.168135e+06  -1.107639e+05   0.000000e+00   0.000000e+00   0.000000e+00   1.177889e+06   0.000000e+00   0.000000e+00   0.000000e+00
     2280000   2.279999e-05   2.448931e+00   4.755068e+01   7.534224e+00   1.030233e+05   1.168135e+06  -1.107639e+05   0.000000e+00   0.000000e+00   0.000000e+00   1.177889e+06   0.000000e+00   0.000000e+00   0.000000e+00
     2288000   2.287999e-05   2.457173e+00   4.764413e+01   7.525363e+00   1.030233e+05   1.168135e+06  -1.107639e+05   0.000000e+00   0.000000e+00   0.000000e+00   1.177889e+06   0.000000e+00   0.000000e+00   0.000000e+00
     2296000   2.295999e-05   2.465415e+00   4.773758e+01   7.516502e+00   1.030233e+05   1.168135e+06  -1.107639e+05   0.000000e+00   0.000000e+00   0.000000e+00   1.177889e+06   0.000000e+00   0.000000e+00   0.000000e+00
     2304000   2.303999e-05   2.473657e+00   4.783103e+01   7.507641e+00   1.030233e+05   1.168135e+06  -1.107639e+05   0.000000e+00   0.000000e+00   0.000000e+00   1.177889e+06   0.000000e+00   0.000000e+00   0.000000e+00
     2312000   2.311999e-05   2.481899e+00   4.792449e+01   7.498780e+00   1.030233e+05   1.168135e+06  -1.107639e+05   0.000000e+00   0.000000e+00   0.000000e+00   1.177889e+06   0.000000e+00   0.000000e+00   0.000000e+00
     2320000   2.319999e-05   2.490141e+00   4.801794e+01   7.489919e+00   1.030233e+05   1.168135e+06  -1.107639e+05   0.000000e+00   0.000000e+00   0.000000e+00   1.177889e+06   0.000000e+00   0.000000e+00   0.000000e+00
     2328000   2.327999e-05   2.498383e+00   4.811139e+01   7.481057e+00   1.030233e+05   1.168135e+06  -1.107639e+05   0.000000e+00   0.000000e+00   0.000000e+00   1.177889e+06   0.000000e+00   0.000000e+00   0.000000e+00
     2336000   2.335999e-05   2.506625e+00   4.820484e+01   7.472196e+00   1.030233e+05   1.168135e+06  -1.107639e+05   0.000000e+00   0.000000e+00   0.000000e+00   1.177889e+06   0.000000e+00   0.000000e+00   0.000000e+00
     2344000   2.343999e-05   2.514866e+00   4.829829e+01   7.463335e+00   1.030233e+05   1.168135e+06  -1.107639e+05   0.000000e+00   0.000000e+00   0.000000e+00   1.177889e+06   0.000000e+00   0.000000e+00   0.000000e+00
     2352000   2.351999e-05   2.523108e+00   4.839174e+01   7.454474e+00   1.030233e+05   1.168135e+06  -1.107639e+05   0.000000e+00   0.000000e+00   0.000000e+00   1.177889e+06   0.000000e+00   0.000000e+00   0.000000e+00
     2360000   2.359999e-05   2.531350e+00   4.848519e+01   7.445613e+00   1.030233e+05   1.168135e+06  -1.107639e+05   0.000000e+00   0.000000e+00   0.000000e+00   1.177889e+06   0.000000e+00   0.000000e+00   0.000000e+00
     2368000   2.367999e-05   2.539592e+00   4.857864e+01   7.436752e+00   1.030233e+05   1.168135e+06  -1.107639e+05   0.000000e+00   0.000000e+00   0.000000e+00   1.177889e+06   0.000000e+00   0.000000e+00   0.000000e+00
     2376000   2.375999e-05   2.547834e+00   4.867209e+01   7.427891e+00   1.030233e+05   1.168135e+06  -1.107639e+05   0.000000e+00   0.000000e+00   0.000000e+00   1.177889e+06   0.000000e+00   0.000000e+00   0.000000e+00
     2384000   2.383999e-05   2.556076e+00   4.876554e+01   7.419030e+00   1.030233e+05   1.168135e+06  -1.107639e+05   0.000000e+00   0.000000e+00   0.000000e+00   1.177889e+06   0.000000e+00   0.000000e+00   0.000000e+00
     2392000   2.391999e-05   2.564318e+00   4.885899e+01   7.410169e+00   1.030233e+05   1.168135e+06  -1.107639e+05   0.000000e+00   0.000000e+00   0.000000e+00   1.177889e+06   0.000000e+00   0.000000e+00   0.000000e+00
     2400000   2.399999e-05   2.572559e+00   4.895244e+01   7.401307e+00   1.030233e+05   1.168135e+06  -1.107639e+05   0.000000e+00   0.000000e+00   0.000000e+00   1.177889e+06   0.000000e+00   0.000000e+00   0.000000e+00
     2408000   2.407999e-05   2.580801e+00   4.904590e+01   7.392446e+00   1.030233e+05   1.168135e+06  -1.107639e+05   0.000000e+00   0.000000e+00   0.000000e+00   1.177889e+06   0.000000e+00   0.000000e+00   0.000000e+00
     2416000   2.415999e-05   2.589043e+00   4.913935e+01   7.383585e+00   1.030233e+05   1.168135e+06  -1.107639e+05   0.000000e+00   0.000000e+00   0.000000e+00   1.177889e+06   0.000000e+00   0.000000e+00   0.000000e+00
     2424000   2.423999e-05   2.597285e+00   4.923280e+01   7.374724e+00   1.030233e+05   1.168135e+06  -1.107639e+05   0.000000e+00   0.000000e+00   0.000000e+00   1.177889e+06   0.000000e+00   0.000000e+00   0.000000e+00
     2432000   2.431999e-05   2.605527e+00   4.932625e+01   7.365863e+00   1.030233e+05   1.168135e+06  -1.107639e+05   0.000000e+00   0.000000e+00   0.000000e+00   1.177889e+06   0.000000e+00   0.000000e+00   0.000000e+00
     2440000   2.439999e-05   2.613769e+00   4.941970e+01   7.357002e+00   1.030233e+05   1.168135e+06  -1.107639e+05   0.000000e+00   0.000000e+00   0.000000e+00   1.177889e+06   0.000000e+00   0.000000e+00   0.000000e+00
     2448000   2.447999e-05   2.622011e+00   4.951315e+01   7.348141e+00   1.030233e+05   1.168135e+06  -1.107639e+05   0.000000e+00   0.000000e+00   0.000000e+00   1.177889e+06   0.000000e+00   0.000000e+00   0.000000e+00
     2456000   2.455999e-05   2.630253e+00   4.960660e+01   7.339280e+00   1.030233e+05   1.168135e+06  -1.107639e+05   0.000000e+00   0.000000e+00   0.000000e+00   1.177889e+06   0.000000e+00   0.000000e+00   0.000000e+00
     2464000   2.463999e-05   2.638494e+00   4.970005e+01   7.330419e+00   1.030233e+05   1.168135e+06  -1.107639e+05   0.000000e+00   0.000000e+00   0.000000e+00   1.177889e+06   0.000000e+00   0.000000e+00   0.000000e+00
     2472000   2.471999e-05   2.646736e+00   4.979350e+01   7.321557e+00   1.030233e+05   1.168135e+06  -1.107639e+05   0.000000e+00   0.000000e+00   0.000000e+00   1.177889e+06   0.000000e+00   0.000000e+00   0.000000e+00
     2480000   2.479999e-05   2.654978e+00   4.988695e+01   7.312696e+00   1.030233e+05   1.168135e+06  -1.107639e+05   0.000000e+00   0.000000e+00   0.000000e+00   1.177889e+06   0.000000e+00   0.000000e+00   0.000000e+00
     2488000   2.487999e-05   2.663220e+00   4.998040e+01   7.303835e+00   1.030233e+05   1.168135e+06  -1.107639e+05   0.000000e+00   0.000000e+00   0.000000e+00   1.177889e+06   0.000000e+00   0.000000e+00   0.000000e+00
