     timestep     time              x             y              z              vx             vy             vz             ax             ay             az         v_magnitude      ELoss        Electronic      Nuclear
           0   0.000000e+00   1.000000e-01   7.167608e+00   2.015619e+01   1.853506e+05  -5.844895e+05   1.396437e+06   0.000000e+00   0.000000e+00   0.000000e+00   1.525130e+06   0.000000e+00   0.000000e+00   0.000000e+00
        8000   7.999000e-08   1.148281e-01   7.120849e+00   2.026790e+01   1.853536e+05  -5.844885e+05   1.396437e+06   5.955976e+07   1.888765e+07   4.736308e-14   1.525130e+06   2.187245e-26   0.000000e+00   0.000000e+00
       16000   1.599900e-07   1.296566e-01   7.074090e+00   2.037962e+01   1.853590e+05  -5.844868e+05   1.396437e+06   8.121368e+07   2.575539e+07  -4.301181e-14   1.525130e+06   4.066898e-26   0.000000e+00   0.000000e+00
       24000   2.399900e-07   1.444855e-01   7.027331e+00   2.049133e+01   1.853606e+05  -5.844863e+05   1.396437e+06  -8.016186e+06  -2.542207e+06  -6.929971e-16   1.525130e+06   3.958249e-28   0.000000e+00   0.000000e+00
       32000   3.199900e-07   1.593143e-01   6.980572e+00   2.060305e+01   1.853609e+05  -5.844862e+05   1.396437e+06   4.886800e+07   1.549775e+07   1.002051e-15   1.525130e+06   1.472434e-26   0.000000e+00   0.000000e+00
       40000   3.999900e-07   1.741434e-01   6.933813e+00   2.071476e+01   1.853650e+05  -5.844849e+05   1.396437e+06  -1.171934e+06  -3.716700e+05  -3.077066e-16   1.525130e+06   8.407282e-30   0.000000e+00   0.000000e+00
       48000   4.799900e-07   1.889726e-01   6.887054e+00   2.082648e+01   1.853639e+05  -5.844852e+05   1.396437e+06  -3.526629e+07  -1.118437e+07   1.566976e-14   1.525130e+06   7.667439e-27   0.000000e+00   0.000000e+00
       56000   5.599900e-07   2.038016e-01   6.840296e+00   2.093819e+01   1.853617e+05  -5.844859e+05   1.396437e+06   1.662162e+06   5.271319e+05   1.777217e-16   1.525130e+06   1.705573e-29   0.000000e+00   0.000000e+00
       64000   6.399900e-07   2.186305e-01   6.793537e+00   2.104991e+01   1.853617e+05  -5.844859e+05   1.396437e+06  -5.800175e+06  -1.839446e+06   1.718608e-15   1.525130e+06   2.073851e-28   0.000000e+00   0.000000e+00
       72000   7.199900e-07   2.334594e-01   6.746778e+00   2.116162e+01   1.853618e+05  -5.844859e+05   1.396437e+06   1.014619e+07   3.217726e+06   1.234590e-15   1.525130e+06   6.347110e-28   0.000000e+00   0.000000e+00
       80000   7.999900e-07   2.482884e-01   6.700019e+00   2.127334e+01   1.853621e+05  -5.844858e+05   1.396437e+06  -2.021946e+06  -6.412341e+05  -1.640466e-15   1.525130e+06   2.518686e-29   0.000000e+00   0.000000e+00
       88000   8.799900e-07   2.631174e-01   6.653260e+00   2.138505e+01   1.853621e+05  -5.844858e+05   1.396437e+06  -9.441939e+06  -2.994388e+06  -4.568621e-16   1.525130e+06   5.496322e-28   0.000000e+00   0.000000e+00
       96000   9.599900e-07   2.779463e-01   6.606501e+00   2.149677e+01   1.853624e+05  -5.844857e+05   1.396437e+06   9.615577e+06   3.049462e+06  -2.678882e-15   1.525130e+06   5.700566e-28   0.000000e+00   0.000000e+00
      104000   1.039990e-06   2.927754e-01   6.559742e+00   2.160848e+01   1.853632e+05  -5.844854e+05   1.396437e+06  -5.656465e+06  -1.793887e+06  -1.107555e-15   1.525130e+06   1.972350e-28   0.000000e+00   0.000000e+00
      112000   1.119990e-06   3.076044e-01   6.512984e+00   2.172020e+01   1.853629e+05  -5.844855e+05   1.396437e+06  -1.190768e+01  -3.776386e+00  -8.896166e-21   1.525130e+06   8.742992e-40   0.000000e+00   0.000000e+00
      120000   1.199990e-06   3.224334e-01   6.466225e+00   2.183191e+01   1.853629e+05  -5.844855e+05   1.396437e+06  -1.264479e+01  -4.010150e+00   1.497607e-21   1.525130e+06   9.860409e-40   0.000000e+00   0.000000e+00
      128000   1.279990e-06   3.372625e-01   6.419466e+00   2.194363e+01   1.853629e+05  -5.844855e+05   1.396437e+06  -1.562504e+01  -4.955305e+00  -7.421129e-21   1.525130e+06   1.505265e-39   0.000000e+00   0.000000e+00
      136000   1.359990e-06   3.520915e-01   6.372707e+00   2.205534e+01   1.853629e+05  -5.844855e+05   1.396437e+06  -2.594066e+01  -8.226787e+00  -2.797313e-20   1.525130e+06   4.149600e-39   0.000000e+00   0.000000e+00
      144000   1.439990e-06   3.669206e-01   6.325948e+00   2.216706e+01   1.853629e+05  -5.844855e+05   1.396437e+06  -1.729522e+01  -5.484982e+00   3.896547e-21   1.525130e+06   1.844627e-39   0.000000e+00   0.000000e+00
      152000   1.519990e-06   3.817496e-01   6.279189e+00   2.227877e+01   1.853629e+05  -5.844855e+05   1.396437e+06  -7.078332e+00  -2.244812e+00  -8.881829e-22   1.525130e+06   3.090429e-40   0.000000e+00   0.000000e+00
      160000   1.599990e-06   3.965786e-01   6.232430e+00   2.239049e+01   1.853629e+05  -5.844855e+05   1.396437e+06  -2.696609e+01  -8.551988e+00  -1.440638e-21   1.525130e+06   4.483910e-39   0.000000e+00   0.000000e+00
      168000   1.679990e-06   4.114077e-01   6.185672e+00   2.250220e+01   1.853629e+05  -5.844855e+05   1.396437e+06  -1.852369e+01  -5.874577e+00   2.849353e-21   1.525130e+06   2.115860e-39   0.000000e+00   0.000000e+00
      176000   1.759990e-06   4.262367e-01   6.138913e+00   2.261392e+01   1.853629e+05  -5.844855e+05   1.396437e+06  -1.115842e+01  -3.538765e+00  -1.438611e-20   1.525130e+06   7.677946e-40   0.000000e+00   0.000000e+00
      184000   1.839990e-06   4.410657e-01   6.092154e+00   2.272563e+01   1.853629e+05  -5.844855e+05   1.396437e+06  -2.053706e+01  -6.513095e+00   5.833386e-21   1.525130e+06   2.600620e-39   0.000000e+00   0.000000e+00
      192000   1.919990e-06   4.558948e-01   6.045395e+00   2.283735e+01   1.853629e+05  -5.844855e+05   1.396437e+06  -7.823906e+00  -2.481263e+00   2.214187e-21   1.525130e+06   3.776212e-40   0.000000e+00   0.000000e+00
      200000   1.999990e-06   4.707238e-01   5.998636e+00   2.294906e+01   1.853629e+05  -5.844855e+05   1.396437e+06   8.113326e+00   2.573049e+00   3.626314e-22   1.525130e+06   4.060135e-40   0.000000e+00   0.000000e+00
      208000   2.079990e-06   4.855528e-01   5.951877e+00   2.306078e+01   1.853629e+05  -5.844855e+05   1.396437e+06  -3.720355e+00  -1.179868e+00   2.246980e-22   1.525130e+06   8.534837e-41   0.000000e+00   0.000000e+00
      216000   2.159990e-06   5.003819e-01   5.905119e+00   2.317249e+01   1.853629e+05  -5.844855e+05   1.396437e+06  -7.668361e+00  -2.431933e+00  -2.485125e-21   1.525130e+06   3.625781e-40   0.000000e+00   0.000000e+00
      224000   2.239990e-06   5.152109e-01   5.858360e+00   2.328421e+01   1.853629e+05  -5.844855e+05   1.396437e+06  -1.243694e+01  -3.944236e+00  -5.954511e-21   1.525130e+06   9.537037e-40   0.000000e+00   0.000000e+00
      232000   2.319990e-06   5.300400e-01   5.811601e+00   2.339592e+01   1.853629e+05  -5.844855e+05   1.396437e+06   2.349401e+00   7.450859e-01  -4.567807e-22   1.525130e+06   3.401020e-41   0.000000e+00   0.000000e+00
      240000   2.399990e-06   5.448690e-01   5.764842e+00   2.350764e+01   1.853629e+05  -5.844855e+05   1.396437e+06  -9.007102e+00  -2.856500e+00  -6.557148e-21   1.525130e+06   5.002502e-40   0.000000e+00   0.000000e+00
      248000   2.479990e-06   5.596980e-01   5.718083e+00   2.361935e+01   1.853629e+05  -5.844855e+05   1.396437e+06  -1.142221e+01  -3.622423e+00   5.947785e-21   1.525130e+06   8.043443e-40   0.000000e+00   0.000000e+00
      256000   2.559990e-06   5.745271e-01   5.671324e+00   2.373107e+01   1.853629e+05  -5.844855e+05   1.396437e+06  -1.981387e+01  -6.283744e+00  -8.257322e-21   1.525130e+06   2.421042e-39   0.000000e+00   0.000000e+00
      264000   2.639990e-06   5.893561e-01   5.624566e+00   2.384278e+01   1.853629e+05  -5.844855e+05   1.396437e+06  -5.930127e+00  -1.880672e+00  -3.683521e-21   1.525130e+06   2.168957e-40   0.000000e+00   0.000000e+00
      272000   2.719990e-06   6.041851e-01   5.577807e+00   2.395450e+01   1.853629e+05  -5.844855e+05   1.396437e+06  -1.372603e+01  -4.353053e+00   4.484496e-22   1.525130e+06   1.161752e-39   0.000000e+00   0.000000e+00
      280000   2.799990e-06   6.190142e-01   5.531048e+00   2.406621e+01   1.853629e+05  -5.844855e+05   1.396437e+06  -7.909862e+00  -2.508523e+00   1.115367e-21   1.525130e+06   3.857855e-40   0.000000e+00   0.000000e+00
      288000   2.879990e-06   6.338432e-01   5.484289e+00   2.417793e+01   1.853629e+05  -5.844855e+05   1.396437e+06  -1.468902e+01  -4.658456e+00  -6.908350e-22   1.525130e+06   1.330496e-39   0.000000e+00   0.000000e+00
      296000   2.959990e-06   6.486722e-01   5.437530e+00   2.428964e+01   1.853629e+05  -5.844855e+05   1.396437e+06  -1.161005e+01  -3.681996e+00   1.253951e-21   1.525130e+06   8.312457e-40   0.000000e+00   0.000000e+00
      304000   3.039990e-06   6.635013e-01   5.390771e+00   2.440136e+01   1.853629e+05  -5.844855e+05   1.396437e+06  -1.362866e+01  -4.322174e+00  -1.688896e-21   1.525130e+06   1.145375e-39   0.000000e+00   0.000000e+00
      312000   3.119990e-06   6.783303e-01   5.344012e+00   2.451307e+01   1.853629e+05  -5.844855e+05   1.396437e+06  -1.494431e+01  -4.739418e+00  -1.391804e-21   1.525130e+06   1.377169e-39   0.000000e+00   0.000000e+00
      320000   3.199990e-06   6.931593e-01   5.297254e+00   2.462479e+01   1.853629e+05  -5.844855e+05   1.396437e+06  -2.664642e+01  -8.450608e+00   1.449959e-20   1.525130e+06   4.378290e-39   0.000000e+00   0.000000e+00
      328000   3.279990e-06   7.079884e-01   5.250495e+00   2.473650e+01   1.853629e+05  -5.844855e+05   1.396437e+06  -1.620810e+01  -5.140215e+00  -9.813184e-21   1.525130e+06   1.619702e-39   0.000000e+00   0.000000e+00
      336000   3.359990e-06   7.228174e-01   5.203736e+00   2.484822e+01   1.853629e+05  -5.844855e+05   1.396437e+06  -1.108058e+01  -3.514081e+00  -6.187689e-21   1.525130e+06   7.572868e-40   0.000000e+00   0.000000e+00
      344000   3.439990e-06   7.376465e-01   5.156977e+00   2.495993e+01   1.853629e+05  -5.844855e+05   1.396437e+06  -4.561326e+00  -1.446573e+00   2.410614e-21   1.525130e+06   1.283178e-40   0.000000e+00   0.000000e+00
      352000   3.519990e-06   7.524755e-01   5.110218e+00   2.507165e+01   1.853629e+05  -5.844855e+05   1.396437e+06  -1.193112e+01  -3.783818e+00   6.549049e-21   1.525130e+06   8.777974e-40   0.000000e+00   0.000000e+00
      360000   3.599990e-06   7.673045e-01   5.063459e+00   2.518336e+01   1.853629e+05  -5.844855e+05   1.396437e+06  -2.410999e+01  -7.646211e+00  -1.570840e-21   1.525130e+06   3.584430e-39   0.000000e+00   0.000000e+00
      368000   3.679990e-06   7.821336e-01   5.016701e+00   2.529508e+01   1.853629e+05  -5.844855e+05   1.396437e+06  -1.692359e+01  -5.367125e+00  -6.547052e-21   1.525130e+06   1.766197e-39   0.000000e+00   0.000000e+00
      376000   3.759990e-06   7.969626e-01   4.969942e+00   2.540679e+01   1.853629e+05  -5.844855e+05   1.396437e+06  -1.608097e+01  -5.099898e+00  -1.213294e-20   1.525130e+06   1.594561e-39   0.000000e+00   0.000000e+00
      384000   3.839990e-06   8.117916e-01   4.923183e+00   2.551851e+01   1.853629e+05  -5.844855e+05   1.396437e+06  -1.549410e+01  -4.913779e+00  -7.735299e-21   1.525130e+06   1.480207e-39   0.000000e+00   0.000000e+00
      392000   3.919990e-06   8.266207e-01   4.876424e+00   2.563022e+01   1.853629e+05  -5.844855e+05   1.396437e+06  -2.258824e+01  -7.163603e+00  -1.108515e-20   1.525130e+06   3.146238e-39   0.000000e+00   0.000000e+00
      400000   3.999990e-06   8.414497e-01   4.829665e+00   2.574194e+01   1.853629e+05  -5.844855e+05   1.396437e+06  -1.443847e+01  -4.578998e+00   4.987095e-21   1.525130e+06   1.285516e-39   0.000000e+00   0.000000e+00
      408000   4.079990e-06   8.562787e-01   4.782906e+00   2.585365e+01   1.853629e+05  -5.844855e+05   1.396437e+06  -2.266314e+01  -7.187356e+00   4.377374e-21   1.525130e+06   3.167079e-39   0.000000e+00   0.000000e+00
      416000   4.159990e-06   8.711078e-01   4.736147e+00   2.596537e+01   1.853629e+05  -5.844855e+05   1.396437e+06  -1.209862e+01  -3.836939e+00  -1.135339e-21   1.525130e+06   9.028077e-40   0.000000e+00   0.000000e+00
      424000   4.239990e-06   8.859368e-01   4.689389e+00   2.607708e+01   1.853629e+05  -5.844855e+05   1.396437e+06  -8.549677e+00  -2.711433e+00  -5.653413e-21   1.525130e+06   4.506643e-40   0.000000e+00   0.000000e+00
      432000   4.319990e-06   9.007658e-01   4.642630e+00   2.618880e+01   1.853629e+05  -5.844855e+05   1.396437e+06  -1.522360e+01  -4.827991e+00   3.524400e-21   1.525130e+06   1.429111e-39   0.000000e+00   0.000000e+00
      440000   4.399990e-06   9.155949e-01   4.595871e+00   2.630051e+01   1.853629e+05  -5.844855e+05   1.396437e+06  -1.556422e+01  -4.936014e+00   4.850686e-21   1.525130e+06   1.493676e-39   0.000000e+00   0.000000e+00
      448000   4.479990e-06   9.304239e-01   4.549112e+00   2.641223e+01   1.853629e+05  -5.844855e+05   1.396437e+06  -1.379693e+01  -4.375540e+00   1.113496e-21   1.525130e+06   1.173986e-39   0.000000e+00   0.000000e+00
      456000   4.559990e-06   9.452530e-01   4.502353e+00   2.652394e+01   1.853629e+05  -5.844855e+05   1.396437e+06  -1.223546e+01  -3.880336e+00   2.015027e-21   1.525130e+06   9.230666e-40   0.000000e+00   0.000000e+00
      464000   4.639990e-06   9.600820e-01   4.455594e+00   2.663566e+01   1.853629e+05  -5.844855e+05   1.396437e+06  -1.986338e+01  -6.299445e+00   6.569361e-21   1.525130e+06   2.432632e-39   0.000000e+00   0.000000e+00
      472000   4.719990e-06   9.749110e-01   4.408836e+00   2.674737e+01   1.853629e+05  -5.844855e+05   1.396437e+06  -1.043073e+01  -3.307987e+00  -8.884764e-22   1.525130e+06   6.710033e-40   0.000000e+00   0.000000e+00
      480000   4.799990e-06   9.897401e-01   4.362077e+00   2.685909e+01   1.853629e+05  -5.844855e+05   1.396437e+06  -1.244633e+01  -3.947212e+00  -1.295267e-21   1.525130e+06   9.552974e-40   0.000000e+00   0.000000e+00
      488000   4.879990e-06   1.004569e+00   4.315318e+00   2.697080e+01   1.853629e+05  -5.844855e+05   1.396437e+06  -1.347038e+01  -4.271978e+00  -2.159631e-21   1.525130e+06   1.119074e-39   0.000000e+00   0.000000e+00
      496000   4.959990e-06   1.019398e+00   4.268559e+00   2.708252e+01   1.853629e+05  -5.844855e+05   1.396437e+06  -1.315000e+01  -4.170373e+00   3.734769e-21   1.525130e+06   1.066345e-39   0.000000e+00   0.000000e+00
      504000   5.039990e-06   1.034227e+00   4.221800e+00   2.719423e+01   1.853629e+05  -5.844855e+05   1.396437e+06  -1.129297e+01  -3.581436e+00   4.495205e-21   1.525130e+06   7.865502e-40   0.000000e+00   0.000000e+00
      512000   5.119990e-06   1.049056e+00   4.175041e+00   2.730595e+01   1.853629e+05  -5.844855e+05   1.396437e+06  -1.346754e+00  -4.271076e-01  -9.519742e-23   1.525130e+06   1.117171e-41   0.000000e+00   0.000000e+00
      520000   5.199990e-06   1.063885e+00   4.128283e+00   2.741766e+01   1.853629e+05  -5.844855e+05   1.396437e+06  -1.400219e+00  -4.440634e-01  -5.786102e-23   1.525130e+06   1.207819e-41   0.000000e+00   0.000000e+00
      528000   5.279990e-06   1.078714e+00   4.081524e+00   2.752938e+01   1.853629e+05  -5.844855e+05   1.396437e+06  -1.262300e+01  -4.003240e+00   1.152128e-21   1.525130e+06   9.825790e-40   0.000000e+00   0.000000e+00
      536000   5.359990e-06   1.093543e+00   4.034765e+00   2.764109e+01   1.853629e+05  -5.844855e+05   1.396437e+06  -1.103033e+01  -3.498143e+00   1.703181e-21   1.525130e+06   7.502305e-40   0.000000e+00   0.000000e+00
      544000   5.439990e-06   1.108372e+00   3.988006e+00   2.775281e+01   1.853629e+05  -5.844855e+05   1.396437e+06  -1.553195e+01  -4.925781e+00   5.052963e-21   1.525130e+06   1.487588e-39   0.000000e+00   0.000000e+00
      552000   5.519990e-06   1.123201e+00   3.941247e+00   2.786452e+01   1.853629e+05  -5.844855e+05   1.396437e+06  -1.034447e+01  -3.280632e+00   5.291527e-21   1.525130e+06   6.598643e-40   0.000000e+00   0.000000e+00
      560000   5.599990e-06   1.138030e+00   3.894488e+00   2.797624e+01   1.853629e+05  -5.844855e+05   1.396437e+06  -2.277216e+01  -7.221931e+00   1.728818e-23   1.525130e+06   3.197467e-39   0.000000e+00   0.000000e+00
      568000   5.679990e-06   1.152859e+00   3.847729e+00   2.808795e+01   1.853629e+05  -5.844855e+05   1.396437e+06  -8.338185e+00  -2.644361e+00   7.695961e-21   1.525130e+06   4.288332e-40   0.000000e+00   0.000000e+00
      576000   5.759990e-06   1.167688e+00   3.800971e+00   2.819967e+01   1.853629e+05  -5.844855e+05   1.396437e+06  -2.177918e+01  -6.907019e+00   5.816347e-21   1.525130e+06   2.924684e-39   0.000000e+00   0.000000e+00
      584000   5.839990e-06   1.182518e+00   3.754212e+00   2.831138e+01   1.853629e+05  -5.844855e+05   1.396437e+06  -3.622921e+00  -1.148968e+00  -7.366209e-22   1.525130e+06   8.102306e-41   0.000000e+00   0.000000e+00
      592000   5.919990e-06   1.197347e+00   3.707453e+00   2.842310e+01   1.853629e+05  -5.844855e+05   1.396437e+06  -2.687655e+01  -8.523591e+00   1.533485e-22   1.525130e+06   4.453699e-39   0.000000e+00   0.000000e+00
      600000   5.999990e-06   1.212176e+00   3.660694e+00   2.853481e+01   1.853629e+05  -5.844855e+05   1.396437e+06  -6.718034e+00  -2.130548e+00   3.325266e-22   1.525130e+06   2.784549e-40   0.000000e+00   0.000000e+00
      608000   6.079990e-06   1.227005e+00   3.613935e+00   2.864653e+01   1.853629e+05  -5.844855e+05   1.396437e+06  -1.478407e+01  -4.688601e+00  -9.739618e-21   1.525130e+06   1.347588e-39   0.000000e+00   0.000000e+00
      616000   6.159990e-06   1.241834e+00   3.567176e+00   2.875824e+01   1.853629e+05  -5.844855e+05   1.396437e+06  -4.415578e+00  -1.400350e+00  -1.430962e-21   1.525130e+06   1.202497e-40   0.000000e+00   0.000000e+00
      624000   6.239990e-06   1.256663e+00   3.520418e+00   2.886996e+01   1.853629e+05  -5.844855e+05   1.396437e+06  -6.857624e+00  -2.174817e+00   3.083716e-22   1.525130e+06   2.898789e-40   0.000000e+00   0.000000e+00
      632000   6.319990e-06   1.271492e+00   3.473659e+00   2.898167e+01   1.853629e+05  -5.844855e+05   1.396437e+06  -2.439673e+01  -7.737145e+00   1.585227e-20   1.525130e+06   3.670332e-39   0.000000e+00   0.000000e+00
      640000   6.399990e-06   1.286321e+00   3.426900e+00   2.909339e+01   1.853629e+05  -5.844855e+05   1.396437e+06  -1.028251e+01  -3.260981e+00  -2.184604e-21   1.525130e+06   6.520267e-40   0.000000e+00   0.000000e+00
      648000   6.479990e-06   1.301150e+00   3.380141e+00   2.920510e+01   1.853629e+05  -5.844855e+05   1.396437e+06  -1.181458e+01  -3.746860e+00  -5.452344e-21   1.525130e+06   8.607012e-40   0.000000e+00   0.000000e+00
      656000   6.559990e-06   1.315979e+00   3.333382e+00   2.931682e+01   1.853629e+05  -5.844855e+05   1.396437e+06  -1.970932e+01  -6.250587e+00  -5.539022e-21   1.525130e+06   2.395387e-39   0.000000e+00   0.000000e+00
      664000   6.639990e-06   1.330808e+00   3.286623e+00   2.942853e+01   1.853629e+05  -5.844855e+05   1.396437e+06  -2.460062e+01  -7.801807e+00   3.895320e-21   1.525130e+06   3.732352e-39   0.000000e+00   0.000000e+00
      672000   6.719990e-06   1.345637e+00   3.239864e+00   2.954025e+01   1.853629e+05  -5.844855e+05   1.396437e+06  -2.754483e+01  -8.735529e+00   1.611137e-20   1.525130e+06   4.678439e-39   0.000000e+00   0.000000e+00
      680000   6.799990e-06   1.360466e+00   3.193106e+00   2.965196e+01   1.853629e+05  -5.844855e+05   1.396437e+06  -3.781462e+00   3.558507e+00   1.991381e+00   1.525130e+06   1.732637e-40   0.000000e+00   0.000000e+00
      688000   6.879990e-06   1.375295e+00   3.146347e+00   2.976368e+01   1.853629e+05  -5.844855e+05   1.396437e+06  -1.781550e+01   4.139754e+00   4.097542e+00   1.525130e+06   1.967635e-39   0.000000e+00   0.000000e+00
      696000   6.959990e-06   1.390124e+00   3.099588e+00   2.987539e+01   1.853629e+05  -5.844855e+05   1.396437e+06  -4.108787e+00   1.865814e+01   8.354854e+00   1.525130e+06   2.436932e-39   0.000000e+00   0.000000e+00
      704000   7.039990e-06   1.404953e+00   3.052829e+00   2.998711e+01   1.853629e+05  -5.844855e+05   1.396437e+06   9.215140e+00  -2.217647e+01  -1.050528e+01   1.525130e+06   3.848331e-39   0.000000e+00   0.000000e+00
      712000   7.119990e-06   1.419782e+00   3.006070e+00   3.009882e+01   1.853629e+05  -5.844855e+05   1.396437e+06  -9.200205e+00   4.582727e-01   1.413046e+00   1.525130e+06   4.867269e-40   0.000000e+00   0.000000e+00
      720000   7.199990e-06   1.434611e+00   2.959311e+00   3.021054e+01   1.853629e+05  -5.844855e+05   1.396437e+06  -1.207163e+01  -3.828379e+00   9.004744e-22   1.525130e+06   8.984796e-40   0.000000e+00   0.000000e+00
      728000   7.279990e-06   1.449440e+00   2.912553e+00   3.032225e+01   1.853629e+05  -5.844855e+05   1.396437e+06  -2.015930e+01  -6.393293e+00   3.936390e-21   1.525130e+06   2.505769e-39   0.000000e+00   0.000000e+00
      736000   7.359990e-06   1.464269e+00   2.865794e+00   3.043397e+01   1.853629e+05  -5.844855e+05   1.396437e+06  -6.172270e+00  -1.957465e+00   1.596337e-21   1.525130e+06   2.351865e-40   0.000000e+00   0.000000e+00
      744000   7.439990e-06   1.479098e+00   2.819035e+00   3.054568e+01   1.853629e+05  -5.844855e+05   1.396437e+06  -2.241666e+01  -7.109189e+00  -9.701249e-21   1.525130e+06   3.098376e-39   0.000000e+00   0.000000e+00
      752000   7.519990e-06   1.493927e+00   2.772276e+00   3.065740e+01   1.853629e+05  -5.844855e+05   1.396437e+06  -1.926667e+01  -6.110206e+00   2.160612e-21   1.525130e+06   2.289124e-39   0.000000e+00   0.000000e+00
      760000   7.599990e-06   1.508756e+00   2.725517e+00   3.076911e+01   1.853629e+05  -5.844855e+05   1.396437e+06  -1.388095e+01  -4.402186e+00   5.778407e-21   1.525130e+06   1.187939e-39   0.000000e+00   0.000000e+00
      768000   7.679990e-06   1.523585e+00   2.678758e+00   3.088083e+01   1.853629e+05  -5.844855e+05   1.396437e+06  -1.277503e+01  -4.051457e+00   6.521064e-21   1.525130e+06   1.006447e-39   0.000000e+00   0.000000e+00
      776000   7.759990e-06   1.538414e+00   2.632000e+00   3.099254e+01   1.853629e+05  -5.844855e+05   1.396437e+06  -9.019487e+00  -2.860428e+00  -3.676932e-21   1.525130e+06   5.015826e-40   0.000000e+00   0.000000e+00
      784000   7.839990e-06   1.553243e+00   2.585241e+00   3.110426e+01   1.853629e+05  -5.844855e+05   1.396437e+06  -8.387341e+00  -2.659950e+00   9.010473e-22   1.525130e+06   4.338566e-40   0.000000e+00   0.000000e+00
      792000   7.919990e-06   1.568072e+00   2.538482e+00   3.121597e+01   1.853629e+05  -5.844855e+05   1.396437e+06  -1.478853e+01  -4.690013e+00  -2.160780e-22   1.525130e+06   1.348456e-39   0.000000e+00   0.000000e+00
      800000   7.999990e-06   1.582901e+00   2.491723e+00   3.132769e+01   1.853629e+05  -5.844855e+05   1.396437e+06  -1.586080e+01  -5.030071e+00   4.088828e-21   1.525130e+06   1.551418e-39   0.000000e+00   0.000000e+00
      808000   8.079990e-06   1.597731e+00   2.444964e+00   3.143940e+01   1.853629e+05  -5.844855e+05   1.396437e+06  -1.340572e+01  -4.251472e+00  -3.282954e-21   1.525130e+06   1.107989e-39   0.000000e+00   0.000000e+00
      816000   8.159990e-06   1.612560e+00   2.398205e+00   3.155112e+01   1.853629e+05  -5.844855e+05   1.396437e+06  -2.143643e+01  -6.798319e+00  -2.962640e-21   1.525130e+06   2.833816e-39   0.000000e+00   0.000000e+00
      824000   8.239990e-06   1.627389e+00   2.351446e+00   3.166283e+01   1.853629e+05  -5.844855e+05   1.396437e+06  -1.323169e+01  -4.196279e+00   5.400883e-22   1.525130e+06   1.079540e-39   0.000000e+00   0.000000e+00
      832000   8.319990e-06   1.642218e+00   2.304688e+00   3.177455e+01   1.853629e+05  -5.844855e+05   1.396437e+06  -1.474945e+01  -4.677620e+00   2.577812e-21   1.525130e+06   1.341630e-39   0.000000e+00   0.000000e+00
      840000   8.399990e-06   1.657047e+00   2.257929e+00   3.188626e+01   1.853629e+05  -5.844855e+05   1.396437e+06  -1.395530e+01  -4.425765e+00   4.284929e-22   1.525130e+06   1.200941e-39   0.000000e+00   0.000000e+00
      848000   8.479990e-06   1.671876e+00   2.211170e+00   3.199798e+01   1.853629e+05  -5.844855e+05   1.396437e+06  -8.662128e+00  -2.747096e+00   8.594909e-21   1.525130e+06   4.627620e-40   0.000000e+00   0.000000e+00
      856000   8.559990e-06   1.686705e+00   2.164411e+00   3.210969e+01   1.853629e+05  -5.844855e+05   1.396437e+06  -4.988834e+00  -1.582152e+00   3.050857e-21   1.525130e+06   1.533805e-40   0.000000e+00   0.000000e+00
      864000   8.639990e-06   1.701534e+00   2.117652e+00   3.222141e+01   1.853629e+05  -5.844855e+05   1.396437e+06  -5.934578e+00  -1.882084e+00   3.649864e-22   1.525130e+06   2.171221e-40   0.000000e+00   0.000000e+00
      872000   8.719990e-06   1.716363e+00   2.070893e+00   3.233312e+01   1.853629e+05  -5.844855e+05   1.396437e+06  -1.625048e+01  -5.153656e+00  -5.242297e-21   1.525130e+06   1.628029e-39   0.000000e+00   0.000000e+00
      880000   8.799990e-06   1.731192e+00   2.024135e+00   3.244484e+01   1.853629e+05  -5.844855e+05   1.396437e+06  -1.235287e+01  -3.917573e+00   1.012466e-20   1.525130e+06   9.410486e-40   0.000000e+00   0.000000e+00
      888000   8.879990e-06   1.746021e+00   1.977376e+00   3.255655e+01   1.853629e+05  -5.844855e+05   1.396437e+06  -1.395919e+01  -4.427000e+00   1.868994e-21   1.525130e+06   1.201592e-39   0.000000e+00   0.000000e+00
      896000   8.959990e-06   1.760850e+00   1.930617e+00   3.266827e+01   1.853629e+05  -5.844855e+05   1.396437e+06  -1.420164e+01  -4.503888e+00  -6.392390e-22   1.525130e+06   1.243906e-39   0.000000e+00   0.000000e+00
      904000   9.039990e-06   1.775679e+00   1.883858e+00   3.277998e+01   1.853629e+05  -5.844855e+05   1.396437e+06  -1.772430e+01  -5.621060e+00  -5.495299e-21   1.525130e+06   1.937228e-39   0.000000e+00   0.000000e+00
      912000   9.119990e-06   1.790508e+00   1.837099e+00   3.289170e+01   1.853629e+05  -5.844855e+05   1.396437e+06  -2.182315e+01  -6.920964e+00   1.379467e-20   1.525130e+06   2.936903e-39   0.000000e+00   0.000000e+00
      920000   9.199990e-06   1.805337e+00   1.790340e+00   3.300341e+01   1.853629e+05  -5.844855e+05   1.396437e+06  -2.058569e+01  -6.528517e+00   2.230909e-21   1.525130e+06   2.613422e-39   0.000000e+00   0.000000e+00
      928000   9.279990e-06   1.820166e+00   1.743582e+00   3.311513e+01   1.853629e+05  -5.844855e+05   1.396437e+06  -8.807650e+00  -2.793246e+00   2.747486e-21   1.525130e+06   4.783566e-40   0.000000e+00   0.000000e+00
      936000   9.359990e-06   1.834995e+00   1.696823e+00   3.322684e+01   1.853629e+05  -5.844855e+05   1.396437e+06  -1.069128e+00  -3.390617e-01   5.113388e-22   1.525130e+06   7.052944e-42   0.000000e+00   0.000000e+00
      944000   9.439990e-06   1.849824e+00   1.650064e+00   3.333856e+01   1.853629e+05  -5.844855e+05   1.396437e+06  -5.969234e+00  -1.893075e+00   2.268569e-22   1.525130e+06   2.196658e-40   0.000000e+00   0.000000e+00
      952000   9.519990e-06   1.864653e+00   1.603305e+00   3.345027e+01   1.853629e+05  -5.844855e+05   1.396437e+06  -3.404756e+00  -1.079780e+00  -1.370038e-21   1.525130e+06   7.149806e-41   0.000000e+00   0.000000e+00
      960000   9.599990e-06   1.879482e+00   1.556546e+00   3.356199e+01   1.853629e+05  -5.844855e+05   1.396437e+06  -2.004457e+01  -6.356906e+00   6.350104e-21   1.525130e+06   2.477330e-39   0.000000e+00   0.000000e+00
      968000   9.679990e-06   1.894311e+00   1.509787e+00   3.367370e+01   1.853629e+05  -5.844855e+05   1.396437e+06  -1.692898e+01  -5.368835e+00   9.232595e-21   1.525130e+06   1.767365e-39   0.000000e+00   0.000000e+00
      976000   9.759990e-06   1.909140e+00   1.463028e+00   3.378542e+01   1.853629e+05  -5.844855e+05   1.396437e+06  -1.845703e+01  -5.853438e+00  -4.093517e-21   1.525130e+06   2.100667e-39   0.000000e+00   0.000000e+00
      984000   9.839990e-06   1.923969e+00   1.416270e+00   3.389713e+01   1.853629e+05  -5.844855e+05   1.396437e+06  -1.544397e+01  -4.897881e+00   7.267120e-21   1.525130e+06   1.470907e-39   0.000000e+00   0.000000e+00
      992000   9.919990e-06   1.938798e+00   1.369511e+00   3.400885e+01   1.853629e+05  -5.844855e+05   1.396437e+06  -1.190131e+01  -3.774364e+00   8.399660e-21   1.525130e+06   8.736653e-40   0.000000e+00   0.000000e+00
     1000000   9.999990e-06   1.953627e+00   1.322752e+00   3.412056e+01   1.853629e+05  -5.844855e+05   1.396437e+06  -1.373181e+01  -4.354887e+00   4.547377e-21   1.525130e+06   1.162534e-39   0.000000e+00   0.000000e+00
     1008000   1.007999e-05   1.968456e+00   1.275993e+00   3.423228e+01   1.853629e+05  -5.844855e+05   1.396437e+06  -1.836625e+01  -5.824647e+00   6.461950e-21   1.525130e+06   2.079765e-39   0.000000e+00   0.000000e+00
     1016000   1.015999e-05   1.983285e+00   1.229234e+00   3.434399e+01   1.853629e+05  -5.844855e+05   1.396437e+06   2.065695e+00   6.551116e-01  -9.759192e-22   1.525130e+06   2.629118e-41   0.000000e+00   0.000000e+00
     1024000   1.023999e-05   1.998114e+00   1.182475e+00   3.445571e+01   1.853629e+05  -5.844855e+05   1.396437e+06  -1.628399e+01  -5.164281e+00   6.570826e-21   1.525130e+06   1.634985e-39   0.000000e+00   0.000000e+00
     1032000   1.031999e-05   2.012944e+00   1.135717e+00   3.456742e+01   1.853629e+05  -5.844855e+05   1.396437e+06  -5.427929e+00  -1.721406e+00  -1.804723e-21   1.525130e+06   1.817377e-40   0.000000e+00   0.000000e+00
     1040000   1.039999e-05   2.027773e+00   1.088958e+00   3.467914e+01   1.853629e+05  -5.844855e+05   1.396437e+06   9.561477e-01   3.032314e-01   2.235356e-22   1.525130e+06   5.625570e-42   0.000000e+00   0.000000e+00
     1048000   1.047999e-05   2.042602e+00   1.042199e+00   3.479085e+01   1.853629e+05  -5.844855e+05   1.396437e+06  -1.743115e+01  -5.528091e+00  -5.758350e-21   1.525130e+06   1.873616e-39   0.000000e+00   0.000000e+00
     1056000   1.055999e-05   2.057431e+00   9.954400e-01   3.490257e+01   1.853629e+05  -5.844855e+05   1.396437e+06   1.836204e-01   5.823313e-02   5.290693e-23   1.525130e+06   2.116714e-43   0.000000e+00   0.000000e+00
     1064000   1.063999e-05   2.072260e+00   9.486812e-01   3.501428e+01   1.853629e+05  -5.844855e+05   1.396437e+06  -9.288131e+00  -2.945625e+00  -4.616400e-21   1.525130e+06   5.320079e-40   0.000000e+00   0.000000e+00
     1072000   1.071999e-05   2.087089e+00   9.019223e-01   3.512600e+01   1.853629e+05  -5.844855e+05   1.396437e+06  -1.279785e+01  -4.058692e+00  -1.005514e-20   1.525130e+06   1.009712e-39   0.000000e+00   0.000000e+00
     1080000   1.079999e-05   2.101918e+00   8.551635e-01   3.523771e+01   1.853629e+05  -5.844855e+05   1.396437e+06  -1.200584e+01  -3.807515e+00  -3.744062e-22   1.525130e+06   8.889132e-40   0.000000e+00   0.000000e+00
     1088000   1.087999e-05   2.116747e+00   8.084046e-01   3.534943e+01   1.853629e+05  -5.844855e+05   1.396437e+06  -8.715042e+00  -2.763877e+00  -7.292090e-21   1.525130e+06   4.683501e-40   0.000000e+00   0.000000e+00
     1096000   1.095999e-05   2.131576e+00   7.616458e-01   3.546114e+01   1.853629e+05  -5.844855e+05   1.396437e+06  -1.513876e+01  -4.801084e+00   2.510097e-21   1.525130e+06   1.412985e-39   0.000000e+00   0.000000e+00
     1104000   1.103999e-05   2.146405e+00   7.148870e-01   3.557286e+01   1.853629e+05  -5.844855e+05   1.396437e+06  -2.282961e+00  -7.240150e-01   4.591975e-22   1.525130e+06   3.217077e-41   0.000000e+00   0.000000e+00
     1112000   1.111999e-05   2.161234e+00   6.681281e-01   3.568457e+01   1.853629e+05  -5.844855e+05   1.396437e+06  -9.884463e-01  -3.134745e-01  -8.852446e-23   1.525130e+06   6.032004e-42   0.000000e+00   0.000000e+00
     1120000   1.119999e-05   2.176063e+00   6.213693e-01   3.579629e+01   1.853629e+05  -5.844855e+05   1.396437e+06  -3.105767e+01  -9.849587e+00  -1.024604e-20   1.525130e+06   5.947692e-39   0.000000e+00   0.000000e+00
     1128000   1.127999e-05   2.190892e+00   5.746104e-01   3.590800e+01   1.853629e+05  -5.844855e+05   1.396437e+06  -9.308345e+00  -2.952036e+00   2.379691e-21   1.525130e+06   5.342147e-40   0.000000e+00   0.000000e+00
     1136000   1.135999e-05   2.205721e+00   5.278516e-01   3.601972e+01   1.853629e+05  -5.844855e+05   1.396437e+06  -9.986787e+00  -3.167196e+00   4.253058e-21   1.525130e+06   6.150857e-40   0.000000e+00   0.000000e+00
     1144000   1.143999e-05   2.220550e+00   4.810927e-01   3.613143e+01   1.853629e+05  -5.844855e+05   1.396437e+06  -1.001013e+01  -3.174597e+00   3.601412e-21   1.525130e+06   6.177189e-40   0.000000e+00   0.000000e+00
     1152000   1.151999e-05   2.235379e+00   4.343339e-01   3.624315e+01   1.853629e+05  -5.844855e+05   1.396437e+06  -1.093082e+01  -3.466585e+00   1.954208e-21   1.525130e+06   7.368526e-40   0.000000e+00   0.000000e+00
     1160000   1.159999e-05   2.250208e+00   3.875750e-01   3.635486e+01   1.853629e+05  -5.844855e+05   1.396437e+06  -9.944552e+00  -3.153802e+00   3.530715e-21   1.525130e+06   6.099149e-40   0.000000e+00   0.000000e+00
     1168000   1.167999e-05   2.265037e+00   3.408162e-01   3.646658e+01   1.853629e+05  -5.844855e+05   1.396437e+06  -2.288598e+01  -7.258027e+00   1.991240e-20   1.525130e+06   3.229820e-39   0.000000e+00   0.000000e+00
     1176000   1.175999e-05   2.279866e+00   2.940574e-01   3.657829e+01   1.853628e+05  -5.844856e+05   1.396437e+06  -1.192802e+07  -3.782834e+06   2.570313e-15   1.525130e+06   8.772339e-28   0.000000e+00   0.000000e+00
     1184000   1.183999e-05   2.294695e+00   2.472985e-01   3.669001e+01   1.853633e+05  -5.844854e+05   1.396437e+06   1.450306e+07   4.599490e+06   1.157566e-16   1.525130e+06   1.296823e-27   0.000000e+00   0.000000e+00
     1192000   1.191999e-05   2.309524e+00   2.005397e-01   3.680172e+01   1.853636e+05  -5.844853e+05   1.396437e+06   6.941486e+06   2.201422e+06   1.429904e-15   1.525130e+06   2.971933e-28   0.000000e+00   0.000000e+00
     1200000   1.199999e-05   2.324353e+00   1.537809e-01   3.691344e+01   1.853660e+05  -5.844846e+05   1.396437e+06   1.365671e+07   4.331151e+06  -1.304110e-15   1.525130e+06   1.150379e-27   0.000000e+00   0.000000e+00
     1208000   1.207999e-05   2.339183e+00   1.070221e-01   3.702515e+01   1.853672e+05  -5.844842e+05   1.396437e+06   4.297019e+07   1.362785e+07  -2.274208e-15   1.525130e+06   1.138289e-26   0.000000e+00   0.000000e+00
     1216000   1.215999e-05   2.354012e+00   6.026344e-02   3.713687e+01   1.853708e+05  -5.844831e+05   1.396437e+06   5.479976e+07   1.737993e+07  -2.073186e-14   1.525130e+06   1.851829e-26   0.000000e+00   0.000000e+00
     1224000   1.223999e-05   2.368842e+00   1.350485e-02   3.724858e+01   1.853754e+05  -5.844816e+05   1.396437e+06   6.787126e+07   2.152619e+07   7.668301e-15   1.525130e+06   2.840321e-26   0.000000e+00   0.000000e+00
