     timestep     time              x             y              z              vx             vy             vz             ax             ay             az         v_magnitude      ELoss        Electronic      Nuclear
           0   0.000000e+00   1.000000e-01   1.016272e+01   2.092128e+01   1.096854e+05  -9.862294e+04   1.168617e+06   0.000000e+00   0.000000e+00   0.000000e+00   1.177889e+06   0.000000e+00   0.000000e+00   0.000000e+00
        8000   7.999000e-08   1.087748e-01   1.015483e+01   2.101477e+01   1.096858e+05  -9.862254e+04   1.168617e+06   1.007827e+07   1.120883e+07  -2.648101e-15   1.177889e+06   7.592164e-28   0.000000e+00   0.000000e+00
       16000   1.599900e-07   1.175498e-01   1.014694e+01   2.110826e+01   1.096868e+05  -9.862146e+04   1.168617e+06   6.406026e+06   7.124781e+06  -6.679421e-16   1.177889e+06   3.068776e-28   0.000000e+00   0.000000e+00
       24000   2.399900e-07   1.263247e-01   1.013905e+01   2.120175e+01   1.096870e+05  -9.862120e+04   1.168617e+06   7.378173e+06   8.206043e+06  -1.698157e-15   1.177889e+06   4.068928e-28   0.000000e+00   0.000000e+00
       32000   3.199900e-07   1.350997e-01   1.013116e+01   2.129524e+01   1.096878e+05  -9.862028e+04   1.168617e+06   1.318071e+07   1.465990e+07  -7.856891e-16   1.177889e+06   1.298689e-27   0.000000e+00   0.000000e+00
       40000   3.999900e-07   1.438747e-01   1.012327e+01   2.138873e+01   1.096881e+05  -9.862001e+04   1.168617e+06  -9.637972e+05  -1.071964e+06  -5.267880e-16   1.177889e+06   6.931626e-30   0.000000e+00   0.000000e+00
       48000   4.799900e-07   1.526498e-01   1.011538e+01   2.148222e+01   1.096886e+05  -9.861941e+04   1.168617e+06   1.048069e+07   1.165706e+07  -5.247517e-15   1.177889e+06   8.211128e-28   0.000000e+00   0.000000e+00
       56000   5.599900e-07   1.614249e-01   1.010749e+01   2.157571e+01   1.096889e+05  -9.861909e+04   1.168617e+06  -1.108611e+06  -1.233050e+06   1.135978e-16   1.177889e+06   9.173528e-30   0.000000e+00   0.000000e+00
       64000   6.399900e-07   1.702000e-01   1.009960e+01   2.166920e+01   1.096891e+05  -9.861884e+04   1.168617e+06  -8.285258e+06  -9.215306e+06   1.402727e-16   1.177889e+06   5.131049e-28   0.000000e+00   0.000000e+00
       72000   7.199900e-07   1.789752e-01   1.009171e+01   2.176269e+01   1.096895e+05  -9.861842e+04   1.168617e+06   1.357952e+07   1.510398e+07  -2.587232e-15   1.177889e+06   1.378525e-27   0.000000e+00   0.000000e+00
       80000   7.999900e-07   1.877503e-01   1.008382e+01   2.185617e+01   1.096897e+05  -9.861823e+04   1.168617e+06  -8.429568e+06  -9.375919e+06  -2.430571e-15   1.177889e+06   5.311433e-28   0.000000e+00   0.000000e+00
       88000   8.799900e-07   1.965255e-01   1.007593e+01   2.194966e+01   1.096897e+05  -9.861821e+04   1.168617e+06   1.088910e+07   1.211157e+07  -7.822408e-16   1.177889e+06   8.863799e-28   0.000000e+00   0.000000e+00
       96000   9.599900e-07   2.053007e-01   1.006804e+01   2.204315e+01   1.096901e+05  -9.861774e+04   1.168617e+06   1.983435e+06   2.206126e+06  -2.490815e-16   1.177889e+06   2.940699e-29   0.000000e+00   0.000000e+00
      104000   1.039990e-06   2.140759e-01   1.006015e+01   2.213664e+01   1.096902e+05  -9.861760e+04   1.168617e+06  -1.932715e+05  -2.149718e+05  -6.767780e-17   1.177889e+06   2.786704e-31   0.000000e+00   0.000000e+00
      112000   1.119990e-06   2.228511e-01   1.005226e+01   2.223013e+01   1.096902e+05  -9.861761e+04   1.168617e+06   1.469770e+06   1.634794e+06   2.939031e-16   1.177889e+06   1.614677e-29   0.000000e+00   0.000000e+00
      120000   1.199990e-06   2.316264e-01   1.004437e+01   2.232362e+01   1.096904e+05  -9.861747e+04   1.168617e+06   6.984685e+03   7.768934e+03   9.793437e-20   1.177889e+06   3.870114e-34   0.000000e+00   0.000000e+00
      128000   1.279990e-06   2.404016e-01   1.003648e+01   2.241711e+01   1.096903e+05  -9.861751e+04   1.168617e+06   9.561080e+05   1.063460e+06  -1.055148e-16   1.177889e+06   6.831894e-30   0.000000e+00   0.000000e+00
      136000   1.359990e-06   2.491768e-01   1.002859e+01   2.251060e+01   1.096904e+05  -9.861738e+04   1.168617e+06   2.072399e+05   2.305094e+05   2.111958e-17   1.177889e+06   3.217567e-31   0.000000e+00   0.000000e+00
      144000   1.439990e-06   2.579520e-01   1.002070e+01   2.260409e+01   1.096904e+05  -9.861742e+04   1.168617e+06   4.424471e+05   4.921260e+05   1.976447e-16   1.177889e+06   1.462344e-30   0.000000e+00   0.000000e+00
      152000   1.519990e-06   2.667273e-01   1.001281e+01   2.269758e+01   1.096905e+05  -9.861732e+04   1.168617e+06   1.965721e+06   2.186440e+06  -3.041509e-16   1.177889e+06   2.888426e-29   0.000000e+00   0.000000e+00
      160000   1.599990e-06   2.755025e-01   1.000492e+01   2.279107e+01   1.096905e+05  -9.861735e+04   1.168617e+06  -1.272483e+06  -1.415362e+06   2.077508e-16   1.177889e+06   1.210213e-29   0.000000e+00   0.000000e+00
      168000   1.679990e-06   2.842778e-01   9.997035e+00   2.288456e+01   1.096904e+05  -9.861743e+04   1.168617e+06  -2.942080e+06  -3.272423e+06   1.046980e-15   1.177889e+06   6.470653e-29   0.000000e+00   0.000000e+00
      176000   1.759990e-06   2.930530e-01   9.989146e+00   2.297805e+01   1.096905e+05  -9.861730e+04   1.168617e+06   2.971124e+06   3.304735e+06   4.972164e-16   1.177889e+06   6.599149e-29   0.000000e+00   0.000000e+00
      184000   1.839990e-06   3.018282e-01   9.981257e+00   2.307154e+01   1.096905e+05  -9.861733e+04   1.168617e+06  -4.452266e-01  -4.952185e-01   1.503400e-22   1.177889e+06   1.481767e-42   0.000000e+00   0.000000e+00
      192000   1.919990e-06   3.106035e-01   9.973367e+00   2.316503e+01   1.096905e+05  -9.861733e+04   1.168617e+06   1.323332e-01   1.471921e-01   2.042057e-23   1.177889e+06   1.308533e-43   0.000000e+00   0.000000e+00
      200000   1.999990e-06   3.193787e-01   9.965478e+00   2.325851e+01   1.096905e+05  -9.861733e+04   1.168617e+06  -4.645767e-01  -5.167413e-01  -6.886677e-23   1.177889e+06   1.613378e-42   0.000000e+00   0.000000e+00
      208000   2.079990e-06   3.281539e-01   9.957588e+00   2.335200e+01   1.096905e+05  -9.861733e+04   1.168617e+06   8.356355e-02   9.294640e-02  -2.448486e-25   1.177889e+06   5.215935e-44   0.000000e+00   0.000000e+00
      216000   2.159990e-06   3.369292e-01   9.949699e+00   2.344549e+01   1.096905e+05  -9.861733e+04   1.168617e+06  -4.839268e-01  -5.382641e-01  -7.271729e-23   1.177889e+06   1.750587e-42   0.000000e+00   0.000000e+00
      224000   2.239990e-06   3.457044e-01   9.941810e+00   2.353898e+01   1.096905e+05  -9.861733e+04   1.168617e+06   3.479391e-02   3.870071e-02  -1.193797e-23   1.177889e+06   9.031071e-45   0.000000e+00   0.000000e+00
      232000   2.319990e-06   3.544797e-01   9.933920e+00   2.363247e+01   1.096905e+05  -9.861733e+04   1.168617e+06  -5.032769e-01  -5.597869e-01  -7.655773e-23   1.177889e+06   1.893396e-42   0.000000e+00   0.000000e+00
      240000   2.399990e-06   3.632549e-01   9.926031e+00   2.372596e+01   1.096905e+05  -9.861733e+04   1.168617e+06  -1.397573e-02  -1.554498e-02  -1.194013e-24   1.177889e+06   1.468446e-45   0.000000e+00   0.000000e+00
      248000   2.479990e-06   3.720301e-01   9.918142e+00   2.381945e+01   1.096905e+05  -9.861733e+04   1.168617e+06  -5.226270e-01  -5.813096e-01  -8.039701e-23   1.177889e+06   2.041803e-42   0.000000e+00   0.000000e+00
      256000   2.559990e-06   3.808054e-01   9.910252e+00   2.391294e+01   1.096905e+05  -9.861733e+04   1.168617e+06  -6.274536e-02  -6.979067e-02  -2.634741e-23   1.177889e+06   2.947147e-44   0.000000e+00   0.000000e+00
      264000   2.639990e-06   3.895806e-01   9.902363e+00   2.400643e+01   1.096905e+05  -9.861733e+04   1.168617e+06  -5.419771e-01  -6.028324e-01   5.929336e-23   1.177889e+06   2.195809e-42   0.000000e+00   0.000000e+00
      272000   2.719990e-06   3.983559e-01   9.894473e+00   2.409992e+01   1.096905e+05  -9.861733e+04   1.168617e+06  -4.263403e+00  -4.742115e+00  -1.231875e-21   1.177889e+06   1.359001e-40   0.000000e+00   0.000000e+00
      280000   2.799990e-06   4.071311e-01   9.886584e+00   2.419341e+01   1.096905e+05  -9.861733e+04   1.168617e+06   4.973990e-01   5.532490e-01   2.160006e-23   1.177889e+06   1.849188e-42   0.000000e+00   0.000000e+00
      288000   2.879990e-06   4.159063e-01   9.878695e+00   2.428690e+01   1.096905e+05  -9.861733e+04   1.168617e+06  -1.116064e+00  -1.241380e+00   1.020044e-22   1.177889e+06   9.311471e-42   0.000000e+00   0.000000e+00
      296000   2.959990e-06   4.246816e-01   9.870805e+00   2.438039e+01   1.096905e+05  -9.861733e+04   1.168617e+06   4.073231e-01   4.530590e-01  -4.989080e-23   1.177889e+06   1.239997e-42   0.000000e+00   0.000000e+00
      304000   3.039990e-06   4.334568e-01   9.862916e+00   2.447388e+01   1.096905e+05  -9.861733e+04   1.168617e+06  -1.089885e+00  -1.212262e+00   1.114088e-23   1.177889e+06   8.879742e-42   0.000000e+00   0.000000e+00
      312000   3.119990e-06   4.422321e-01   9.855026e+00   2.456737e+01   1.096905e+05  -9.861733e+04   1.168617e+06   3.172472e-01   3.528690e-01   2.215214e-23   1.177889e+06   7.521297e-43   0.000000e+00   0.000000e+00
      320000   3.199990e-06   4.510073e-01   9.847137e+00   2.466086e+01   1.096905e+05  -9.861733e+04   1.168617e+06  -1.063706e+00  -1.183144e+00   2.073892e-22   1.177889e+06   8.458260e-42   0.000000e+00   0.000000e+00
      328000   3.279990e-06   4.597825e-01   9.839248e+00   2.475434e+01   1.096905e+05  -9.861733e+04   1.168617e+06   2.271713e-01   2.526790e-01   9.415358e-23   1.177889e+06   3.855874e-43   0.000000e+00   0.000000e+00
      336000   3.359990e-06   4.685578e-01   9.831358e+00   2.484783e+01   1.096905e+05  -9.861733e+04   1.168617e+06  -1.037528e+00  -1.154026e+00   4.035910e-22   1.177889e+06   8.047025e-42   0.000000e+00   0.000000e+00
      344000   3.439990e-06   4.773330e-01   9.823469e+00   2.494132e+01   1.096905e+05  -9.861733e+04   1.168617e+06   1.370954e-01   1.524890e-01   2.252861e-23   1.177889e+06   1.403699e-43   0.000000e+00   0.000000e+00
      352000   3.519990e-06   4.861082e-01   9.815579e+00   2.503481e+01   1.096905e+05  -9.861733e+04   1.168617e+06  -1.011349e+00  -1.124908e+00  -2.616170e-22   1.177889e+06   7.646038e-42   0.000000e+00   0.000000e+00
      360000   3.599990e-06   4.948835e-01   9.807690e+00   2.512830e+01   1.096905e+05  -9.861733e+04   1.168617e+06   4.701946e-02   5.229899e-02   1.364418e-23   1.177889e+06   1.647692e-44   0.000000e+00   0.000000e+00
      368000   3.679990e-06   5.036587e-01   9.799801e+00   2.522179e+01   1.096905e+05  -9.861733e+04   1.168617e+06  -1.327469e+00  -1.476523e+00   9.412694e-23   1.177889e+06   1.317096e-41   0.000000e+00   0.000000e+00
      376000   3.759990e-06   5.124340e-01   9.791911e+00   2.531528e+01   1.096905e+05  -9.861733e+04   1.168617e+06  -2.836620e-02  -3.155128e-02  -3.321292e-24   1.177889e+06   6.094155e-45   0.000000e+00   0.000000e+00
      384000   3.839990e-06   5.212092e-01   9.784022e+00   2.540877e+01   1.096905e+05  -9.861733e+04   1.168617e+06  -1.313188e+00  -1.460638e+00  -4.636484e-22   1.177889e+06   1.288906e-41   0.000000e+00   0.000000e+00
      392000   3.919990e-06   5.299844e-01   9.776133e+00   2.550226e+01   1.096905e+05  -9.861733e+04   1.168617e+06  -3.537700e-01  -3.934927e-01  -1.836888e-22   1.177889e+06   9.366875e-43   0.000000e+00   0.000000e+00
      400000   3.999990e-06   5.387597e-01   9.768243e+00   2.559575e+01   1.096905e+05  -9.861733e+04   1.168617e+06   1.116488e+00   1.241851e+00  -6.163241e-23   1.177889e+06   9.316797e-42   0.000000e+00   0.000000e+00
      408000   4.079990e-06   5.475349e-01   9.760354e+00   2.568924e+01   1.096905e+05  -9.861733e+04   1.168617e+06  -2.924726e+00  -3.253126e+00  -6.838631e-22   1.177889e+06   6.394576e-41   0.000000e+00   0.000000e+00
      416000   4.159990e-06   5.563102e-01   9.752464e+00   2.578273e+01   1.096905e+05  -9.861733e+04   1.168617e+06   7.910840e-01   8.799101e-01   1.264030e-22   1.177889e+06   4.676760e-42   0.000000e+00   0.000000e+00
      424000   4.239990e-06   5.650854e-01   9.744575e+00   2.587622e+01   1.096905e+05  -9.861733e+04   1.168617e+06  -2.910445e+00  -3.237242e+00  -9.401769e-23   1.177889e+06   6.332277e-41   0.000000e+00   0.000000e+00
      432000   4.319990e-06   5.738606e-01   9.736686e+00   2.596971e+01   1.096905e+05  -9.861733e+04   1.168617e+06   4.656802e-01   5.179687e-01   1.704814e-22   1.177889e+06   1.620072e-42   0.000000e+00   0.000000e+00
      440000   4.399990e-06   5.826359e-01   9.728796e+00   2.606320e+01   1.096905e+05  -9.861733e+04   1.168617e+06  -2.896164e+00  -3.221357e+00  -6.529277e-22   1.177889e+06   6.270282e-41   0.000000e+00   0.000000e+00
      448000   4.479990e-06   5.914111e-01   9.720907e+00   2.615668e+01   1.096905e+05  -9.861733e+04   1.168617e+06   1.402765e-01   1.560273e-01   3.473376e-23   1.177889e+06   1.467346e-43   0.000000e+00   0.000000e+00
      456000   4.559990e-06   6.001863e-01   9.713017e+00   2.625017e+01   1.096905e+05  -9.861733e+04   1.168617e+06  -1.506058e+00  -1.675164e+00  -4.958000e-22   1.177889e+06   1.696056e-41   0.000000e+00   0.000000e+00
      464000   4.639990e-06   6.089616e-01   9.705128e+00   2.634366e+01   1.096905e+05  -9.861733e+04   1.168617e+06  -1.541295e+00  -1.714358e+00   3.026590e-22   1.177889e+06   1.775881e-41   0.000000e+00   0.000000e+00
      472000   4.719990e-06   6.177368e-01   9.697239e+00   2.643715e+01   1.096905e+05  -9.861733e+04   1.168617e+06  -2.968766e+00  -3.302111e+00  -3.816841e-22   1.177889e+06   6.588480e-41   0.000000e+00   0.000000e+00
      480000   4.799990e-06   6.265121e-01   9.689349e+00   2.653064e+01   1.096905e+05  -9.861733e+04   1.168617e+06  -3.719816e-01  -4.137492e-01   4.585779e-23   1.177889e+06   1.035894e-42   0.000000e+00   0.000000e+00
      488000   4.879990e-06   6.352873e-01   9.681460e+00   2.662413e+01   1.096905e+05  -9.861733e+04   1.168617e+06  -2.541355e+00  -2.826709e+00  -1.272341e-21   1.177889e+06   4.827837e-41   0.000000e+00   0.000000e+00
      496000   4.959990e-06   6.440625e-01   9.673571e+00   2.671762e+01   1.096905e+05  -9.861733e+04   1.168617e+06  -6.223969e-01  -6.922821e-01  -3.236930e-23   1.177889e+06   2.898529e-42   0.000000e+00   0.000000e+00
      504000   5.039990e-06   6.528378e-01   9.665681e+00   2.681111e+01   1.096905e+05  -9.861733e+04   1.168617e+06  -2.113945e+00  -2.351307e+00  -4.393977e-22   1.177889e+06   3.340358e-41   0.000000e+00   0.000000e+00
      512000   5.119990e-06   6.616130e-01   9.657792e+00   2.690460e+01   1.096905e+05  -9.861733e+04   1.168617e+06  -8.728121e-01  -9.708150e-01  -2.544869e-22   1.177889e+06   5.698841e-42   0.000000e+00   0.000000e+00
      520000   5.199990e-06   6.703883e-01   9.649902e+00   2.699809e+01   1.096905e+05  -9.861733e+04   1.168617e+06   1.083310e+00   1.204949e+00  -2.039143e-22   1.177889e+06   8.770240e-42   0.000000e+00   0.000000e+00
      528000   5.279990e-06   6.791635e-01   9.642013e+00   2.709158e+01   1.096905e+05  -9.861733e+04   1.168617e+06  -3.554159e+00  -3.953234e+00   2.025420e-24   1.177889e+06   9.443182e-41   0.000000e+00   0.000000e+00
      536000   5.359990e-06   6.879387e-01   9.634124e+00   2.718507e+01   1.096905e+05  -9.861733e+04   1.168617e+06   8.328952e-01   9.264160e-01   2.928277e-22   1.177889e+06   5.183551e-42   0.000000e+00   0.000000e+00
      544000   5.439990e-06   6.967140e-01   9.626234e+00   2.727856e+01   1.096905e+05  -9.861733e+04   1.168617e+06  -3.126749e+00  -3.477833e+00  -3.130000e-22   1.177889e+06   7.308408e-41   0.000000e+00   0.000000e+00
      552000   5.519990e-06   7.054892e-01   9.618345e+00   2.737205e+01   1.096905e+05  -9.861733e+04   1.168617e+06  -1.014048e+00  -1.127910e+00   2.339109e-22   1.177889e+06   7.688268e-42   0.000000e+00   0.000000e+00
      560000   5.599990e-06   7.142645e-01   9.610455e+00   2.746554e+01   1.096905e+05  -9.861733e+04   1.168617e+06  -1.480732e+00  -1.646994e+00  -4.502285e-22   1.177889e+06   1.639230e-41   0.000000e+00   0.000000e+00
      568000   5.679990e-06   7.230397e-01   9.602566e+00   2.755903e+01   1.096905e+05  -9.861733e+04   1.168617e+06  -1.151216e+00  -1.280479e+00  -8.375004e-23   1.177889e+06   9.908864e-42   0.000000e+00   0.000000e+00
      576000   5.759990e-06   7.318149e-01   9.594677e+00   2.765251e+01   1.096905e+05  -9.861733e+04   1.168617e+06  -1.559351e+00  -1.734441e+00  -3.733505e-22   1.177889e+06   1.817585e-41   0.000000e+00   0.000000e+00
      584000   5.839990e-06   7.405902e-01   9.586787e+00   2.774600e+01   1.096905e+05  -9.861733e+04   1.168617e+06  -1.096286e-01  -1.219381e-01  -2.295093e-23   1.177889e+06   9.014046e-44   0.000000e+00   0.000000e+00
      592000   5.919990e-06   7.493654e-01   9.578898e+00   2.783949e+01   1.096905e+05  -9.861733e+04   1.168617e+06  -1.295592e+00  -1.441066e+00  -3.015643e-22   1.177889e+06   1.254654e-41   0.000000e+00   0.000000e+00
      600000   5.999990e-06   7.581406e-01   9.571009e+00   2.793298e+01   1.096905e+05  -9.861733e+04   1.168617e+06  -3.232863e-01  -3.595862e-01  -2.964441e-23   1.177889e+06   7.822422e-43   0.000000e+00   0.000000e+00
      608000   6.079990e-06   7.669159e-01   9.563119e+00   2.802647e+01   1.096905e+05  -9.861733e+04   1.168617e+06  -1.031833e+00  -1.147691e+00  -2.295461e-22   1.177889e+06   7.957507e-42   0.000000e+00   0.000000e+00
      616000   6.159990e-06   7.756911e-01   9.555230e+00   2.811996e+01   1.096905e+05  -9.861733e+04   1.168617e+06  -5.369440e-01  -5.972342e-01  -1.621176e-22   1.177889e+06   2.156948e-42   0.000000e+00   0.000000e+00
      624000   6.239990e-06   7.844664e-01   9.547340e+00   2.821345e+01   1.096905e+05  -9.861733e+04   1.168617e+06  -7.680733e-01  -8.543157e-01  -3.009453e-22   1.177889e+06   4.408743e-42   0.000000e+00   0.000000e+00
      632000   6.319990e-06   7.932416e-01   9.539451e+00   2.830694e+01   1.096905e+05  -9.861733e+04   1.168617e+06  -7.506017e-01  -8.348823e-01  -2.229647e-22   1.177889e+06   4.214257e-42   0.000000e+00   0.000000e+00
      640000   6.399990e-06   8.020168e-01   9.531562e+00   2.840043e+01   1.096905e+05  -9.861733e+04   1.168617e+06  -1.330153e+00  -1.479508e+00   1.166070e-22   1.177889e+06   1.322657e-41   0.000000e+00   0.000000e+00
      648000   6.479990e-06   8.107921e-01   9.523672e+00   2.849392e+01   1.096905e+05  -9.861733e+04   1.168617e+06  -2.035362e+00  -2.263900e+00   6.906423e-23   1.177889e+06   3.097043e-41   0.000000e+00   0.000000e+00
      656000   6.559990e-06   8.195673e-01   9.515783e+00   2.858741e+01   1.096905e+05  -9.861733e+04   1.168617e+06  -9.666017e-01  -1.075136e+00  -1.092279e-22   1.177889e+06   6.986694e-42   0.000000e+00   0.000000e+00
      664000   6.639990e-06   8.283426e-01   9.507893e+00   2.868090e+01   1.096905e+05  -9.861733e+04   1.168617e+06  -1.845378e+00  -2.052585e+00   1.752461e-22   1.177889e+06   2.545839e-41   0.000000e+00   0.000000e+00
      672000   6.719990e-06   8.371178e-01   9.500004e+00   2.877439e+01   1.096905e+05  -9.861733e+04   1.168617e+06  -1.232327e+00  -1.370698e+00   1.094904e-22   1.177889e+06   1.135566e-41   0.000000e+00   0.000000e+00
      680000   6.799990e-06   8.458930e-01   9.492115e+00   2.886788e+01   1.096905e+05  -9.861733e+04   1.168617e+06  -1.338896e+00  -1.489232e+00   7.119359e-23   1.177889e+06   1.340147e-41   0.000000e+00   0.000000e+00
      688000   6.879990e-06   8.546683e-01   9.484225e+00   2.896137e+01   1.096905e+05  -9.861733e+04   1.168617e+06  -1.555815e+00  -1.730508e+00  -4.525477e-22   1.177889e+06   1.809817e-41   0.000000e+00   0.000000e+00
      696000   6.959990e-06   8.634435e-01   9.476336e+00   2.905485e+01   1.096905e+05  -9.861733e+04   1.168617e+06  -1.636183e+00  -1.819901e+00  -1.969237e-22   1.177889e+06   2.001384e-41   0.000000e+00   0.000000e+00
      704000   7.039990e-06   8.722188e-01   9.468446e+00   2.914834e+01   1.096905e+05  -9.861733e+04   1.168617e+06  -1.822444e+00  -2.027076e+00   4.610249e-22   1.177889e+06   2.483275e-41   0.000000e+00   0.000000e+00
      712000   7.119990e-06   8.809940e-01   9.460557e+00   2.924183e+01   1.096905e+05  -9.861733e+04   1.168617e+06  -1.933471e+00  -2.150569e+00   3.959174e-22   1.177889e+06   2.794777e-41   0.000000e+00   0.000000e+00
      720000   7.199990e-06   8.897692e-01   9.452668e+00   2.933532e+01   1.096905e+05  -9.861733e+04   1.168617e+06  -2.089074e+00  -2.323643e+00  -3.483899e-22   1.177889e+06   3.263038e-41   0.000000e+00   0.000000e+00
      728000   7.279990e-06   8.985445e-01   9.444778e+00   2.942881e+01   1.096905e+05  -9.861733e+04   1.168617e+06  -2.230758e+00  -2.481237e+00  -7.339666e-22   1.177889e+06   3.720325e-41   0.000000e+00   0.000000e+00
      736000   7.359990e-06   9.073197e-01   9.436889e+00   2.952230e+01   1.096905e+05  -9.861733e+04   1.168617e+06  -2.645350e+00  -2.942381e+00  -2.445836e-21   1.177889e+06   5.232012e-41   0.000000e+00   0.000000e+00
      744000   7.439990e-06   9.160949e-01   9.429000e+00   2.961579e+01   1.096905e+05  -9.861733e+04   1.168617e+06  -2.496798e+00  -2.777148e+00   2.468213e-22   1.177889e+06   4.660863e-41   0.000000e+00   0.000000e+00
      752000   7.519990e-06   9.248702e-01   9.421110e+00   2.970928e+01   1.096905e+05  -9.861733e+04   1.168617e+06  -2.713794e+00  -2.508253e+00   4.305962e-02   1.177889e+06   4.564011e-41   0.000000e+00   0.000000e+00
      760000   7.599990e-06   9.336454e-01   9.413221e+00   2.980277e+01   1.096905e+05  -9.861733e+04   1.168617e+06  -3.550136e+00  -3.437502e-01   3.042198e-01   1.177889e+06   4.280382e-41   0.000000e+00   0.000000e+00
      768000   7.679990e-06   9.424207e-01   9.405331e+00   2.989626e+01   1.096905e+05  -9.861733e+04   1.168617e+06  -1.165548e+01   1.295435e+01   2.187217e+00   1.177889e+06   1.030600e-39   0.000000e+00   0.000000e+00
      776000   7.759990e-06   9.511959e-01   9.397442e+00   2.998975e+01   1.096905e+05  -9.861733e+04   1.168617e+06  -8.364219e-01   6.410505e+00   6.194796e-01   1.177889e+06   1.409141e-40   0.000000e+00   0.000000e+00
      784000   7.839990e-06   9.599711e-01   9.389553e+00   3.008324e+01   1.096905e+05  -9.861733e+04   1.168617e+06  -1.448479e+01   1.783644e+01   2.864776e+00   1.177889e+06   1.791845e-39   0.000000e+00   0.000000e+00
      792000   7.919990e-06   9.687464e-01   9.381663e+00   3.017673e+01   1.096905e+05  -9.861733e+04   1.168617e+06  -3.240360e+00  -7.048828e+00  -2.906854e-01   1.177889e+06   2.014062e-40   0.000000e+00   0.000000e+00
      800000   7.999990e-06   9.775216e-01   9.373774e+00   3.027022e+01   1.096905e+05  -9.861733e+04   1.168617e+06  -2.621841e+00  -2.916232e+00   7.209362e-24   1.177889e+06   5.139673e-41   0.000000e+00   0.000000e+00
      808000   8.079990e-06   9.862969e-01   9.365884e+00   3.036371e+01   1.096905e+05  -9.861733e+04   1.168617e+06  -3.937208e+00  -4.379294e+00   7.309770e-23   1.177889e+06   1.158947e-40   0.000000e+00   0.000000e+00
      816000   8.159990e-06   9.950721e-01   9.357995e+00   3.045720e+01   1.096905e+05  -9.861733e+04   1.168617e+06  -2.693666e+00  -2.996121e+00   1.573417e-22   1.177889e+06   5.425121e-41   0.000000e+00   0.000000e+00
      824000   8.239990e-06   1.003847e+00   9.350106e+00   3.055068e+01   1.096905e+05  -9.861733e+04   1.168617e+06  -2.550975e+00  -2.837409e+00  -3.286119e-22   1.177889e+06   4.865550e-41   0.000000e+00   0.000000e+00
      832000   8.319990e-06   1.012623e+00   9.342216e+00   3.064417e+01   1.096905e+05  -9.861733e+04   1.168617e+06  -2.631078e+00  -2.926506e+00  -9.942410e-22   1.177889e+06   5.175571e-41   0.000000e+00   0.000000e+00
      840000   8.399990e-06   1.021398e+00   9.334327e+00   3.073766e+01   1.096905e+05  -9.861733e+04   1.168617e+06  -2.395472e+00  -2.664445e+00  -1.540680e-22   1.177889e+06   4.290450e-41   0.000000e+00   0.000000e+00
      848000   8.479990e-06   1.030173e+00   9.326438e+00   3.083115e+01   1.096905e+05  -9.861733e+04   1.168617e+06  -2.472473e+00  -2.750092e+00  -1.067195e-22   1.177889e+06   4.570390e-41   0.000000e+00   0.000000e+00
      856000   8.559990e-06   1.038948e+00   9.318548e+00   3.092464e+01   1.096905e+05  -9.861733e+04   1.168617e+06  -2.239969e+00  -2.491482e+00   2.116771e-23   1.177889e+06   3.751509e-41   0.000000e+00   0.000000e+00
      864000   8.639990e-06   1.047724e+00   9.310659e+00   3.101813e+01   1.096905e+05  -9.861733e+04   1.168617e+06  -2.313868e+00  -2.573678e+00  -3.666568e-22   1.177889e+06   4.002824e-41   0.000000e+00   0.000000e+00
      872000   8.719990e-06   1.056499e+00   9.302769e+00   3.111162e+01   1.096905e+05  -9.861733e+04   1.168617e+06  -2.084466e+00  -2.318518e+00  -9.509705e-22   1.177889e+06   3.248726e-41   0.000000e+00   0.000000e+00
      880000   8.799990e-06   1.065274e+00   9.294880e+00   3.120511e+01   1.096905e+05  -9.861733e+04   1.168617e+06  -1.892997e+00  -2.105551e+00   4.526687e-22   1.177889e+06   2.679212e-41   0.000000e+00   0.000000e+00
      888000   8.879990e-06   1.074049e+00   9.286991e+00   3.129860e+01   1.096905e+05  -9.861733e+04   1.168617e+06  -1.800565e+00  -2.002740e+00   7.642155e-22   1.177889e+06   2.423958e-41   0.000000e+00   0.000000e+00
      896000   8.959990e-06   1.082824e+00   9.279101e+00   3.139209e+01   1.096905e+05  -9.861733e+04   1.168617e+06  -2.970865e+00  -3.304446e+00  -4.196121e-22   1.177889e+06   6.598842e-41   0.000000e+00   0.000000e+00
      904000   9.039990e-06   1.091600e+00   9.271212e+00   3.148558e+01   1.096905e+05  -9.861733e+04   1.168617e+06  -1.626704e+00  -1.809357e+00  -7.382049e-22   1.177889e+06   1.978449e-41   0.000000e+00   0.000000e+00
      912000   9.119990e-06   1.100375e+00   9.263322e+00   3.157907e+01   1.096905e+05  -9.861733e+04   1.168617e+06  -1.044430e+00  -1.161703e+00   3.020231e-23   1.177889e+06   8.157942e-42   0.000000e+00   0.000000e+00
      920000   9.199990e-06   1.109150e+00   9.255433e+00   3.167256e+01   1.096905e+05  -9.861733e+04   1.168617e+06  -2.508004e+00  -2.789613e+00   2.533048e-22   1.177889e+06   4.702361e-41   0.000000e+00   0.000000e+00
      928000   9.279990e-06   1.117925e+00   9.247544e+00   3.176605e+01   1.096905e+05  -9.861733e+04   1.168617e+06  -1.082051e+00  -1.203549e+00  -3.022398e-22   1.177889e+06   8.756157e-42   0.000000e+00   0.000000e+00
      936000   9.359990e-06   1.126701e+00   9.239654e+00   3.185954e+01   1.096905e+05  -9.861733e+04   1.168617e+06  -2.100596e+00  -2.336459e+00   5.798898e-22   1.177889e+06   3.298651e-41   0.000000e+00   0.000000e+00
      944000   9.439990e-06   1.135476e+00   9.231765e+00   3.195302e+01   1.096905e+05  -9.861733e+04   1.168617e+06  -1.119673e+00  -1.245394e+00  -6.032580e-23   1.177889e+06   9.375536e-42   0.000000e+00   0.000000e+00
      952000   9.519990e-06   1.144251e+00   9.223875e+00   3.204651e+01   1.096905e+05  -9.861733e+04   1.168617e+06  -1.693187e+00  -1.883305e+00  -8.473997e-22   1.177889e+06   2.143135e-41   0.000000e+00   0.000000e+00
      960000   9.599990e-06   1.153026e+00   9.215986e+00   3.214000e+01   1.096905e+05  -9.861733e+04   1.168617e+06  -1.157294e+00  -1.287240e+00  -2.970901e-22   1.177889e+06   1.001608e-41   0.000000e+00   0.000000e+00
      968000   9.679990e-06   1.161802e+00   9.208097e+00   3.223349e+01   1.096905e+05  -9.861733e+04   1.168617e+06  -1.285779e+00  -1.430152e+00  -7.252430e-23   1.177889e+06   1.235812e-41   0.000000e+00   0.000000e+00
      976000   9.759990e-06   1.170577e+00   9.200207e+00   3.232698e+01   1.096905e+05  -9.861733e+04   1.168617e+06  -1.194916e+00  -1.329086e+00   3.595945e-22   1.177889e+06   1.067779e-41   0.000000e+00   0.000000e+00
      984000   9.839990e-06   1.179352e+00   9.192318e+00   3.242047e+01   1.096905e+05  -9.861733e+04   1.168617e+06  -1.928019e+00  -2.144505e+00  -4.908701e-22   1.177889e+06   2.779051e-41   0.000000e+00   0.000000e+00
      992000   9.919990e-06   1.188127e+00   9.184429e+00   3.251396e+01   1.096905e+05  -9.861733e+04   1.168617e+06  -3.249608e+00  -3.614487e+00  -3.262081e-22   1.177889e+06   7.895431e-41   0.000000e+00   0.000000e+00
     1000000   9.999990e-06   1.196903e+00   9.176539e+00   3.260745e+01   1.096905e+05  -9.861733e+04   1.168617e+06  -2.023497e+00  -2.250703e+00  -2.957823e-22   1.177889e+06   3.061119e-41   0.000000e+00   0.000000e+00
     1008000   1.007999e-05   1.205678e+00   9.168650e+00   3.270094e+01   1.096905e+05  -9.861733e+04   1.168617e+06  -1.609291e+00  -1.789989e+00   3.795299e-23   1.177889e+06   1.936525e-41   0.000000e+00   0.000000e+00
     1016000   1.015999e-05   1.214453e+00   9.160760e+00   3.279443e+01   1.096905e+05  -9.861733e+04   1.168617e+06  -8.360891e-01  -9.299686e-01   3.732871e-23   1.177889e+06   5.227659e-42   0.000000e+00   0.000000e+00
     1024000   1.023999e-05   1.223228e+00   9.152871e+00   3.288792e+01   1.096905e+05  -9.861733e+04   1.168617e+06  -1.480001e+00  -1.646182e+00   2.568890e-22   1.177889e+06   1.637477e-41   0.000000e+00   0.000000e+00
     1032000   1.031999e-05   1.232004e+00   9.144982e+00   3.298141e+01   1.096905e+05  -9.861733e+04   1.168617e+06  -9.478874e-01  -1.054320e+00  -4.323904e-22   1.177889e+06   6.718987e-42   0.000000e+00   0.000000e+00
     1040000   1.039999e-05   1.240779e+00   9.137092e+00   3.307490e+01   1.096905e+05  -9.861733e+04   1.168617e+06  -1.202326e+00  -1.337328e+00  -2.222221e-24   1.177889e+06   1.080646e-41   0.000000e+00   0.000000e+00
     1048000   1.047999e-05   1.249554e+00   9.129203e+00   3.316839e+01   1.096905e+05  -9.861733e+04   1.168617e+06  -1.059686e+00  -1.178672e+00   1.027873e-22   1.177889e+06   8.397212e-42   0.000000e+00   0.000000e+00
     1056000   1.055999e-05   1.258329e+00   9.121313e+00   3.326188e+01   1.096905e+05  -9.861733e+04   1.168617e+06  -9.246501e-01  -1.028474e+00   3.312145e-23   1.177889e+06   6.391099e-42   0.000000e+00   0.000000e+00
     1064000   1.063999e-05   1.267104e+00   9.113424e+00   3.335537e+01   1.096905e+05  -9.861733e+04   1.168617e+06  -1.171484e+00  -1.303023e+00   7.496757e-23   1.177889e+06   1.026233e-41   0.000000e+00   0.000000e+00
     1072000   1.071999e-05   1.275880e+00   9.105535e+00   3.344885e+01   1.096905e+05  -9.861733e+04   1.168617e+06  -6.469747e-01  -7.196196e-01  -2.071567e-22   1.177889e+06   3.128675e-42   0.000000e+00   0.000000e+00
     1080000   1.079999e-05   1.284655e+00   9.097645e+00   3.354234e+01   1.096905e+05  -9.861733e+04   1.168617e+06  -3.033579e+00  -3.374201e+00  -2.045291e-21   1.177889e+06   6.881165e-41   0.000000e+00   0.000000e+00
     1088000   1.087999e-05   1.293430e+00   9.089756e+00   3.363583e+01   1.096905e+05  -9.861733e+04   1.168617e+06  -4.711979e+00  -5.241059e+00   4.981814e-23   1.177889e+06   1.659855e-40   0.000000e+00   0.000000e+00
     1096000   1.095999e-05   1.302205e+00   9.081867e+00   3.372932e+01   1.096905e+05  -9.861733e+04   1.168617e+06  -1.749359e+00  -1.945785e+00  -5.817674e-22   1.177889e+06   2.288073e-41   0.000000e+00   0.000000e+00
     1104000   1.103999e-05   1.310981e+00   9.073977e+00   3.382281e+01   1.096905e+05  -9.861733e+04   1.168617e+06  -5.947771e-01  -6.615610e-01  -1.265088e-23   1.177889e+06   2.644517e-42   0.000000e+00   0.000000e+00
     1112000   1.111999e-05   1.319756e+00   9.066088e+00   3.391630e+01   1.096905e+05  -9.861733e+04   1.168617e+06  -2.002545e+00  -2.227399e+00  -6.191400e-22   1.177889e+06   2.998301e-41   0.000000e+00   0.000000e+00
     1120000   1.119999e-05   1.328531e+00   9.058198e+00   3.400979e+01   1.096905e+05  -9.861733e+04   1.168617e+06  -7.171183e-01  -7.976392e-01   2.611600e-22   1.177889e+06   3.844416e-42   0.000000e+00   0.000000e+00
     1128000   1.127999e-05   1.337306e+00   9.050309e+00   3.410328e+01   1.096905e+05  -9.861733e+04   1.168617e+06  -2.255731e+00  -2.509014e+00  -3.700461e-22   1.177889e+06   3.804383e-41   0.000000e+00   0.000000e+00
     1136000   1.135999e-05   1.346082e+00   9.042420e+00   3.419677e+01   1.096905e+05  -9.861733e+04   1.168617e+06  -2.094319e+00  -2.329477e+00  -5.130412e-22   1.177889e+06   3.279410e-41   0.000000e+00   0.000000e+00
     1144000   1.143999e-05   1.354857e+00   9.034530e+00   3.429026e+01   1.096905e+05  -9.861733e+04   1.168617e+06  -1.188636e+00  -1.322101e+00   5.018571e-24   1.177889e+06   1.056252e-41   0.000000e+00   0.000000e+00
     1152000   1.151999e-05   1.363632e+00   9.026641e+00   3.438375e+01   1.096905e+05  -9.861733e+04   1.168617e+06  -2.347505e+00  -2.611092e+00  -8.396331e-22   1.177889e+06   4.120237e-41   0.000000e+00   0.000000e+00
     1160000   1.159999e-05   1.372407e+00   9.018751e+00   3.447724e+01   1.096905e+05  -9.861733e+04   1.168617e+06  -1.310977e+00  -1.458179e+00  -4.404556e-22   1.177889e+06   1.284881e-41   0.000000e+00   0.000000e+00
     1168000   1.167999e-05   1.381183e+00   9.010862e+00   3.457073e+01   1.096905e+05  -9.861733e+04   1.168617e+06  -2.600691e+00  -2.892707e+00  -5.925637e-22   1.177889e+06   5.056918e-41   0.000000e+00   0.000000e+00
     1176000   1.175999e-05   1.389958e+00   9.002973e+00   3.466422e+01   1.096905e+05  -9.861733e+04   1.168617e+06  -1.433318e+00  -1.594257e+00   2.623337e-22   1.177889e+06   1.535891e-41   0.000000e+00   0.000000e+00
     1184000   1.183999e-05   1.398733e+00   8.995083e+00   3.475771e+01   1.096905e+05  -9.861733e+04   1.168617e+06  -7.254064e+00  -8.068580e+00  -7.109868e-22   1.177889e+06   3.934216e-40   0.000000e+00   0.000000e+00
     1192000   1.191999e-05   1.407508e+00   8.987194e+00   3.485120e+01   1.096905e+05  -9.861733e+04   1.168617e+06  -2.017245e+00  -2.243750e+00  -8.210476e-23   1.177889e+06   3.041879e-41   0.000000e+00   0.000000e+00
     1200000   1.199999e-05   1.416284e+00   8.979305e+00   3.494468e+01   1.096905e+05  -9.861733e+04   1.168617e+06  -2.397457e+00  -2.666653e+00  -5.396469e-22   1.177889e+06   4.297929e-41   0.000000e+00   0.000000e+00
     1208000   1.207999e-05   1.425059e+00   8.971415e+00   3.503817e+01   1.096905e+05  -9.861733e+04   1.168617e+06  -2.154796e+00  -2.396745e+00  -7.883867e-22   1.177889e+06   3.470896e-41   0.000000e+00   0.000000e+00
     1216000   1.215999e-05   1.433834e+00   8.963526e+00   3.513166e+01   1.096905e+05  -9.861733e+04   1.168617e+06  -2.657495e+00  -2.955889e+00  -6.639756e-22   1.177889e+06   5.280768e-41   0.000000e+00   0.000000e+00
     1224000   1.223999e-05   1.442609e+00   8.955636e+00   3.522515e+01   1.096905e+05  -9.861733e+04   1.168617e+06  -2.292346e+00  -2.549740e+00  -9.210798e-22   1.177889e+06   3.928204e-41   0.000000e+00   0.000000e+00
     1232000   1.231999e-05   1.451385e+00   8.947747e+00   3.531864e+01   1.096905e+05  -9.861733e+04   1.168617e+06  -2.917533e+00  -3.245125e+00  -7.891559e-22   1.177889e+06   6.364718e-41   0.000000e+00   0.000000e+00
     1240000   1.239999e-05   1.460160e+00   8.939858e+00   3.541213e+01   1.096905e+05  -9.861733e+04   1.168617e+06  -2.429896e+00  -2.702735e+00  -4.801098e-22   1.177889e+06   4.413804e-41   0.000000e+00   0.000000e+00
     1248000   1.247999e-05   1.468935e+00   8.931968e+00   3.550562e+01   1.096905e+05  -9.861733e+04   1.168617e+06  -3.177571e+00  -3.534361e+00  -1.489720e-21   1.177889e+06   7.549782e-41   0.000000e+00   0.000000e+00
     1256000   1.255999e-05   1.477710e+00   8.924079e+00   3.559911e+01   1.096905e+05  -9.861733e+04   1.168617e+06  -1.940279e+00  -2.158142e+00   5.284590e-22   1.177889e+06   2.815137e-41   0.000000e+00   0.000000e+00
     1264000   1.263999e-05   1.486485e+00   8.916189e+00   3.569260e+01   1.096905e+05  -9.861733e+04   1.168617e+06  -4.003532e+00  -4.453065e+00   3.947351e-22   1.177889e+06   1.198255e-40   0.000000e+00   0.000000e+00
     1272000   1.271999e-05   1.495261e+00   8.908300e+00   3.578609e+01   1.096905e+05  -9.861733e+04   1.168617e+06  -2.200317e+00  -2.447378e+00  -7.460378e-22   1.177889e+06   3.620207e-41   0.000000e+00   0.000000e+00
     1280000   1.279999e-05   1.504036e+00   8.900411e+00   3.587958e+01   1.096905e+05  -9.861733e+04   1.168617e+06  -3.544226e+00  -3.942186e+00   9.854929e-22   1.177889e+06   9.391238e-41   0.000000e+00   0.000000e+00
     1288000   1.287999e-05   1.512811e+00   8.892521e+00   3.597307e+01   1.096905e+05  -9.861733e+04   1.168617e+06  -4.798663e-02  -5.337476e-02  -1.602323e-24   1.177889e+06   1.759908e-44   0.000000e+00   0.000000e+00
     1296000   1.295999e-05   1.521586e+00   8.884632e+00   3.606656e+01   1.096905e+05  -9.861733e+04   1.168617e+06  -5.928061e+00  -6.593688e+00  -3.769444e-22   1.177889e+06   2.626969e-40   0.000000e+00   0.000000e+00
     1304000   1.303999e-05   1.530362e+00   8.876742e+00   3.616005e+01   1.096905e+05  -9.861733e+04   1.168617e+06  -1.667297e-01  -1.854508e-01   2.815409e-23   1.177889e+06   2.091638e-43   0.000000e+00   0.000000e+00
     1312000   1.311999e-05   1.539137e+00   8.868853e+00   3.625354e+01   1.096905e+05  -9.861733e+04   1.168617e+06  -5.202157e+00  -5.786276e+00  -1.802023e-22   1.177889e+06   2.022955e-40   0.000000e+00   0.000000e+00
     1320000   1.319999e-05   1.547912e+00   8.860964e+00   3.634702e+01   1.096905e+05  -9.861733e+04   1.168617e+06  -2.854728e-01  -3.175269e-01  -1.420112e-23   1.177889e+06   6.115663e-43   0.000000e+00   0.000000e+00
     1328000   1.327999e-05   1.556687e+00   8.853074e+00   3.644051e+01   1.096905e+05  -9.861733e+04   1.168617e+06  -4.476252e+00  -4.978864e+00   2.315927e-21   1.177889e+06   1.497736e-40   0.000000e+00   0.000000e+00
     1336000   1.335999e-05   1.565463e+00   8.845185e+00   3.653400e+01   1.096905e+05  -9.861733e+04   1.168617e+06  -4.042159e-01  -4.496029e-01   8.667499e-23   1.177889e+06   1.224807e-42   0.000000e+00   0.000000e+00
     1344000   1.343999e-05   1.574238e+00   8.837296e+00   3.662749e+01   1.096905e+05  -9.861733e+04   1.168617e+06  -3.750347e+00  -4.171451e+00   2.517404e-21   1.177889e+06   1.051310e-40   0.000000e+00   0.000000e+00
     1352000   1.351999e-05   1.583013e+00   8.829406e+00   3.672098e+01   1.096905e+05  -9.861733e+04   1.168617e+06  -5.229590e-01  -5.816790e-01  -9.974248e-23   1.177889e+06   2.048885e-42   0.000000e+00   0.000000e+00
     1360000   1.359999e-05   1.591788e+00   8.821517e+00   3.681447e+01   1.096905e+05  -9.861733e+04   1.168617e+06  -3.024443e+00  -3.364039e+00   1.572107e-21   1.177889e+06   6.836770e-41   0.000000e+00   0.000000e+00
     1368000   1.367999e-05   1.600564e+00   8.813627e+00   3.690796e+01   1.096905e+05  -9.861733e+04   1.168617e+06  -1.304816e+00  -1.451326e+00  -4.474907e-22   1.177889e+06   1.272710e-41   0.000000e+00   0.000000e+00
     1376000   1.375999e-05   1.609339e+00   8.805738e+00   3.700145e+01   1.096905e+05  -9.861733e+04   1.168617e+06  -2.397920e+00  -2.667168e+00   1.237891e-21   1.177889e+06   4.299345e-41   0.000000e+00   0.000000e+00
     1384000   1.383999e-05   1.618114e+00   8.797849e+00   3.709494e+01   1.096905e+05  -9.861733e+04   1.168617e+06  -1.952039e+00  -2.171222e+00  -5.002044e-24   1.177889e+06   2.848761e-41   0.000000e+00   0.000000e+00
     1392000   1.391999e-05   1.626889e+00   8.789959e+00   3.718843e+01   1.096905e+05  -9.861733e+04   1.168617e+06  -5.001396e-01  -5.562973e-01   2.237290e-22   1.177889e+06   1.870493e-42   0.000000e+00   0.000000e+00
     1400000   1.399999e-05   1.635665e+00   8.782070e+00   3.728192e+01   1.096905e+05  -9.861733e+04   1.168617e+06  -1.853928e+00  -2.062094e+00   1.836186e-22   1.177889e+06   2.569587e-41   0.000000e+00   0.000000e+00
     1408000   1.407999e-05   1.644440e+00   8.774180e+00   3.737541e+01   1.096905e+05  -9.861733e+04   1.168617e+06  -7.535956e-01  -8.382124e-01   2.286916e-22   1.177889e+06   4.246451e-42   0.000000e+00   0.000000e+00
     1416000   1.415999e-05   1.653215e+00   8.766291e+00   3.746890e+01   1.096905e+05  -9.861733e+04   1.168617e+06  -1.755816e+00  -1.952966e+00  -4.895399e-22   1.177889e+06   2.304807e-41   0.000000e+00   0.000000e+00
     1424000   1.423999e-05   1.661990e+00   8.758402e+00   3.756239e+01   1.096905e+05  -9.861733e+04   1.168617e+06  -1.007052e+00  -1.120127e+00   2.333493e-22   1.177889e+06   7.582996e-42   0.000000e+00   0.000000e+00
     1432000   1.431999e-05   1.670765e+00   8.750512e+00   3.765588e+01   1.096905e+05  -9.861733e+04   1.168617e+06  -1.657705e+00  -1.843838e+00   2.729306e-22   1.177889e+06   2.054420e-41   0.000000e+00   0.000000e+00
     1440000   1.439999e-05   1.679541e+00   8.742623e+00   3.774937e+01   1.096905e+05  -9.861733e+04   1.168617e+06  -1.260508e+00  -1.402042e+00   2.375409e-22   1.177889e+06   1.188013e-41   0.000000e+00   0.000000e+00
     1448000   1.447999e-05   1.688316e+00   8.734734e+00   3.784285e+01   1.096905e+05  -9.861733e+04   1.168617e+06  -1.559593e+00  -1.734711e+00   4.612741e-22   1.177889e+06   1.818427e-41   0.000000e+00   0.000000e+00
     1456000   1.455999e-05   1.697091e+00   8.726844e+00   3.793634e+01   1.096905e+05  -9.861733e+04   1.168617e+06  -1.513964e+00  -1.683958e+00   2.413384e-22   1.177889e+06   1.713785e-41   0.000000e+00   0.000000e+00
     1464000   1.463999e-05   1.705866e+00   8.718955e+00   3.802983e+01   1.096905e+05  -9.861733e+04   1.168617e+06  -2.725486e+00  -3.031515e+00   1.845652e-21   1.177889e+06   5.553637e-41   0.000000e+00   0.000000e+00
     1472000   1.471999e-05   1.714642e+00   8.711065e+00   3.812332e+01   1.096905e+05  -9.861733e+04   1.168617e+06  -2.385523e+00  -2.653379e+00   8.833827e-22   1.177889e+06   4.255038e-41   0.000000e+00   0.000000e+00
     1480000   1.479999e-05   1.723417e+00   8.703176e+00   3.821681e+01   1.096905e+05  -9.861733e+04   1.168617e+06  -1.985409e+00  -2.208339e+00   4.519022e-22   1.177889e+06   2.947035e-41   0.000000e+00   0.000000e+00
     1488000   1.487999e-05   1.732192e+00   8.695287e+00   3.831030e+01   1.096905e+05  -9.861733e+04   1.168617e+06  -2.161119e+00  -2.403778e+00   6.480032e-23   1.177889e+06   3.491243e-41   0.000000e+00   0.000000e+00
     1496000   1.495999e-05   1.740967e+00   8.687397e+00   3.840379e+01   1.096905e+05  -9.861733e+04   1.168617e+06  -1.518369e+00  -1.688858e+00   1.002980e-21   1.177889e+06   1.724071e-41   0.000000e+00   0.000000e+00
     1504000   1.503999e-05   1.749743e+00   8.679508e+00   3.849728e+01   1.096905e+05  -9.861733e+04   1.168617e+06  -1.391864e-01  -1.548148e-01   5.219432e-24   1.177889e+06   1.452012e-43   0.000000e+00   0.000000e+00
     1512000   1.511999e-05   1.758518e+00   8.671618e+00   3.859077e+01   1.096905e+05  -9.861733e+04   1.168617e+06  -3.524911e+00  -3.920702e+00   3.450944e-22   1.177889e+06   9.288586e-41   0.000000e+00   0.000000e+00
     1520000   1.519999e-05   1.767293e+00   8.663729e+00   3.868426e+01   1.096905e+05  -9.861733e+04   1.168617e+06  -7.238180e-01  -8.050912e-01   2.127816e-22   1.177889e+06   3.918928e-42   0.000000e+00   0.000000e+00
     1528000   1.527999e-05   1.776068e+00   8.655840e+00   3.877775e+01   1.096905e+05  -9.861733e+04   1.168617e+06  -3.319773e+00  -3.692531e+00   3.653584e-23   1.177889e+06   8.238860e-41   0.000000e+00   0.000000e+00
     1536000   1.535999e-05   1.784844e+00   8.647950e+00   3.887124e+01   1.096905e+05  -9.861733e+04   1.168617e+06  -1.308450e+00  -1.455368e+00   4.191947e-22   1.177889e+06   1.280354e-41   0.000000e+00   0.000000e+00
     1544000   1.543999e-05   1.793619e+00   8.640061e+00   3.896473e+01   1.096905e+05  -9.861733e+04   1.168617e+06  -3.114635e+00  -3.464359e+00  -2.718675e-22   1.177889e+06   7.252060e-41   0.000000e+00   0.000000e+00
     1552000   1.551999e-05   1.802394e+00   8.632172e+00   3.905822e+01   1.096905e+05  -9.861733e+04   1.168617e+06  -2.447873e+00  -2.722730e+00   1.947916e-22   1.177889e+06   4.480729e-41   0.000000e+00   0.000000e+00
     1560000   1.559999e-05   1.811169e+00   8.624282e+00   3.915171e+01   1.096905e+05  -9.861733e+04   1.168617e+06  -3.174198e+00  -3.530610e+00   9.660378e-23   1.177889e+06   7.532229e-41   0.000000e+00   0.000000e+00
     1568000   1.567999e-05   1.819945e+00   8.616393e+00   3.924519e+01   1.096905e+05  -9.861733e+04   1.168617e+06  -2.486195e+00  -2.765355e+00   4.857736e-22   1.177889e+06   4.622112e-41   0.000000e+00   0.000000e+00
     1576000   1.575999e-05   1.828720e+00   8.608503e+00   3.933868e+01   1.096905e+05  -9.861733e+04   1.168617e+06  -2.715933e+00  -3.020889e+00   6.644847e-24   1.177889e+06   5.514241e-41   0.000000e+00   0.000000e+00
     1584000   1.583999e-05   1.837495e+00   8.600614e+00   3.943217e+01   1.096905e+05  -9.861733e+04   1.168617e+06  -2.524518e+00  -2.807981e+00   1.351221e-21   1.177889e+06   4.765690e-41   0.000000e+00   0.000000e+00
     1592000   1.591999e-05   1.846270e+00   8.592725e+00   3.952566e+01   1.096905e+05  -9.861733e+04   1.168617e+06  -2.069288e+00  -2.301636e+00  -3.644909e-24   1.177889e+06   3.201739e-41   0.000000e+00   0.000000e+00
     1600000   1.599999e-05   1.855045e+00   8.584835e+00   3.961915e+01   1.096905e+05  -9.861733e+04   1.168617e+06  -5.259406e+00  -5.849954e+00   8.242096e-22   1.177889e+06   2.068030e-40   0.000000e+00   0.000000e+00
     1608000   1.607999e-05   1.863821e+00   8.576946e+00   3.971264e+01   1.096905e+05  -9.861733e+04   1.168617e+06  -2.204691e+00  -2.452243e+00   2.585025e-22   1.177889e+06   3.634434e-41   0.000000e+00   0.000000e+00
     1616000   1.615999e-05   1.872596e+00   8.569056e+00   3.980613e+01   1.096905e+05  -9.861733e+04   1.168617e+06  -5.282674e+00  -5.875835e+00  -6.986206e-22   1.177889e+06   2.086369e-40   0.000000e+00   0.000000e+00
     1624000   1.623999e-05   1.881371e+00   8.561167e+00   3.989962e+01   1.096905e+05  -9.861733e+04   1.168617e+06  -6.167668e+00  -6.860199e+00   1.998037e-21   1.177889e+06   2.843991e-40   0.000000e+00   0.000000e+00
     1632000   1.631999e-05   1.890146e+00   8.553278e+00   3.999311e+01   1.096905e+05  -9.861733e+04   1.168617e+06  -1.534435e+00  -1.706727e+00   3.501920e-22   1.177889e+06   1.760579e-41   0.000000e+00   0.000000e+00
     1640000   1.639999e-05   1.898922e+00   8.545388e+00   4.008660e+01   1.096905e+05  -9.861733e+04   1.168617e+06  -6.190936e+00  -6.886080e+00   1.622264e-21   1.177889e+06   2.865490e-40   0.000000e+00   0.000000e+00
     1648000   1.647999e-05   1.907697e+00   8.537499e+00   4.018009e+01   1.096905e+05  -9.861733e+04   1.168617e+06  -3.641596e+00  -4.050489e+00   1.981234e-22   1.177889e+06   9.913519e-41   0.000000e+00   0.000000e+00
     1656000   1.655999e-05   1.916472e+00   8.529609e+00   4.027358e+01   1.096905e+05  -9.861733e+04   1.168617e+06  -1.708549e+00  -1.900392e+00  -8.017879e-23   1.177889e+06   2.183111e-41   0.000000e+00   0.000000e+00
     1664000   1.663999e-05   1.925247e+00   8.521720e+00   4.036707e+01   1.096905e+05  -9.861733e+04   1.168617e+06  -3.504618e+00  -3.898131e+00   4.821525e-23   1.177889e+06   9.181709e-41   0.000000e+00   0.000000e+00
     1672000   1.671999e-05   1.934023e+00   8.513831e+00   4.046056e+01   1.096905e+05  -9.861733e+04   1.168617e+06  -1.947197e+00  -2.165836e+00   7.399110e-22   1.177889e+06   2.835475e-41   0.000000e+00   0.000000e+00
     1680000   1.679999e-05   1.942798e+00   8.505941e+00   4.055405e+01   1.096905e+05  -9.861733e+04   1.168617e+06  -3.367640e+00  -3.745773e+00   4.728387e-22   1.177889e+06   8.477955e-41   0.000000e+00   0.000000e+00
     1688000   1.687999e-05   1.951573e+00   8.498052e+00   4.064754e+01   1.096905e+05  -9.861733e+04   1.168617e+06  -1.975503e+00  -2.197320e+00  -5.884692e-22   1.177889e+06   2.918484e-41   0.000000e+00   0.000000e+00
     1696000   1.695999e-05   1.960348e+00   8.490163e+00   4.074102e+01   1.096905e+05  -9.861733e+04   1.168617e+06  -1.137522e+00  -1.265248e+00   3.490210e-22   1.177889e+06   9.671103e-42   0.000000e+00   0.000000e+00
     1704000   1.703999e-05   1.969124e+00   8.482273e+00   4.083451e+01   1.096905e+05  -9.861733e+04   1.168617e+06  -1.943238e+00  -2.161432e+00  -8.200401e-22   1.177889e+06   2.823941e-41   0.000000e+00   0.000000e+00
     1712000   1.711999e-05   1.977899e+00   8.474384e+00   4.092800e+01   1.096905e+05  -9.861733e+04   1.168617e+06  -5.668382e-01  -6.304851e-01   3.229955e-22   1.177889e+06   2.400646e-42   0.000000e+00   0.000000e+00
     1720000   1.719999e-05   1.986674e+00   8.466494e+00   4.102149e+01   1.096905e+05  -9.861733e+04   1.168617e+06  -1.910973e+00  -2.125545e+00   6.715287e-22   1.177889e+06   2.730954e-41   0.000000e+00   0.000000e+00
     1728000   1.727999e-05   1.995449e+00   8.458605e+00   4.111498e+01   1.096905e+05  -9.861733e+04   1.168617e+06   3.845742e-03   4.277558e-03   1.650792e-24   1.177889e+06   1.217979e-46   0.000000e+00   0.000000e+00
     1736000   1.735999e-05   2.004225e+00   8.450716e+00   4.120847e+01   1.096905e+05  -9.861733e+04   1.168617e+06  -2.221928e+00  -2.471416e+00  -5.624264e-22   1.177889e+06   3.692040e-41   0.000000e+00   0.000000e+00
     1744000   1.743999e-05   2.013000e+00   8.442826e+00   4.130196e+01   1.096905e+05  -9.861733e+04   1.168617e+06  -1.732230e+00  -1.926731e+00   1.294014e-22   1.177889e+06   2.242687e-41   0.000000e+00   0.000000e+00
     1752000   1.751999e-05   2.021775e+00   8.434937e+00   4.139545e+01   1.096905e+05  -9.861733e+04   1.168617e+06  -4.028273e+00  -4.480584e+00   1.704356e-21   1.177889e+06   1.213047e-40   0.000000e+00   0.000000e+00
     1760000   1.759999e-05   2.030550e+00   8.427047e+00   4.148894e+01   1.096905e+05  -9.861733e+04   1.168617e+06  -5.150326e-01  -5.728625e-01  -5.536192e-23   1.177889e+06   1.985282e-42   0.000000e+00   0.000000e+00
     1768000   1.767999e-05   2.039326e+00   8.419158e+00   4.158243e+01   1.096905e+05  -9.861733e+04   1.168617e+06  -3.905059e+00  -4.343535e+00   5.135958e-22   1.177889e+06   1.139969e-40   0.000000e+00   0.000000e+00
     1776000   1.775999e-05   2.048101e+00   8.411269e+00   4.167592e+01   1.096905e+05  -9.861733e+04   1.168617e+06  -9.488690e-01  -1.055412e+00   1.021218e-22   1.177889e+06   6.735334e-42   0.000000e+00   0.000000e+00
     1784000   1.783999e-05   2.056876e+00   8.403379e+00   4.176941e+01   1.096905e+05  -9.861733e+04   1.168617e+06  -3.781845e+00  -4.206486e+00   1.619693e-21   1.177889e+06   1.069162e-40   0.000000e+00   0.000000e+00
     1792000   1.791999e-05   2.065651e+00   8.395490e+00   4.186290e+01   1.096905e+05  -9.861733e+04   1.168617e+06  -2.447064e+00  -2.721830e+00   1.107029e-21   1.177889e+06   4.476931e-41   0.000000e+00   0.000000e+00
     1800000   1.799999e-05   2.074426e+00   8.387601e+00   4.195639e+01   1.096905e+05  -9.861733e+04   1.168617e+06   1.713912e+00   1.906357e+00  -8.240765e-22   1.177889e+06   2.196087e-41   0.000000e+00   0.000000e+00
     1808000   1.807999e-05   2.083202e+00   8.379711e+00   4.204988e+01   1.096905e+05  -9.861733e+04   1.168617e+06  -2.164184e+00  -2.407187e+00   1.000550e-21   1.177889e+06   3.501682e-41   0.000000e+00   0.000000e+00
     1816000   1.815999e-05   2.091977e+00   8.371822e+00   4.214336e+01   1.096905e+05  -9.861733e+04   1.168617e+06   1.818039e+00   2.022175e+00  -5.341603e-22   1.177889e+06   2.471044e-41   0.000000e+00   0.000000e+00
     1824000   1.823999e-05   2.100752e+00   8.363932e+00   4.223685e+01   1.096905e+05  -9.861733e+04   1.168617e+06  -1.750267e+00  -1.946794e+00   2.897120e-22   1.177889e+06   2.290855e-41   0.000000e+00   0.000000e+00
     1832000   1.831999e-05   2.109527e+00   8.356043e+00   4.233034e+01   1.096905e+05  -9.861733e+04   1.168617e+06  -2.594560e+00  -2.885887e+00   1.048974e-21   1.177889e+06   5.032258e-41   0.000000e+00   0.000000e+00
     1840000   1.839999e-05   2.118303e+00   8.348154e+00   4.242383e+01   1.096905e+05  -9.861733e+04   1.168617e+06  -2.262761e+00  -2.516833e+00   1.674495e-22   1.177889e+06   3.828659e-41   0.000000e+00   0.000000e+00
     1848000   1.847999e-05   2.127078e+00   8.340264e+00   4.251732e+01   1.096905e+05  -9.861733e+04   1.168617e+06  -2.422950e+00  -2.695008e+00  -4.344413e-22   1.177889e+06   4.388536e-41   0.000000e+00   0.000000e+00
     1856000   1.855999e-05   2.135853e+00   8.332375e+00   4.261081e+01   1.096905e+05  -9.861733e+04   1.168617e+06  -2.775255e+00  -3.086872e+00  -2.431165e-22   1.177889e+06   5.759206e-41   0.000000e+00   0.000000e+00
     1864000   1.863999e-05   2.144628e+00   8.324485e+00   4.270430e+01   1.096905e+05  -9.861733e+04   1.168617e+06  -2.251340e+00  -2.504129e+00  -1.343464e-21   1.177889e+06   3.788852e-41   0.000000e+00   0.000000e+00
     1872000   1.871999e-05   2.153404e+00   8.316596e+00   4.279779e+01   1.096905e+05  -9.861733e+04   1.168617e+06  -3.831729e+00  -4.261972e+00  -1.028076e-21   1.177889e+06   1.097606e-40   0.000000e+00   0.000000e+00
     1880000   1.879999e-05   2.162179e+00   8.308707e+00   4.289128e+01   1.096905e+05  -9.861733e+04   1.168617e+06  -1.877802e+00  -2.088649e+00   3.792582e-22   1.177889e+06   2.636833e-41   0.000000e+00   0.000000e+00
     1888000   1.887999e-05   2.170954e+00   8.300817e+00   4.298477e+01   1.096905e+05  -9.861733e+04   1.168617e+06  -3.660120e+00  -4.071093e+00  -2.159317e-22   1.177889e+06   1.001487e-40   0.000000e+00   0.000000e+00
     1896000   1.895999e-05   2.179729e+00   8.292928e+00   4.307826e+01   1.096905e+05  -9.861733e+04   1.168617e+06   2.473794e+00   2.751561e+00   1.329235e-21   1.177889e+06   4.574553e-41   0.000000e+00   0.000000e+00
     1904000   1.903999e-05   2.188505e+00   8.285039e+00   4.317175e+01   1.096905e+05  -9.861733e+04   1.168617e+06  -1.126090e+00  -1.252532e+00   6.839250e-22   1.177889e+06   9.476890e-42   0.000000e+00   0.000000e+00
     1912000   1.911999e-05   2.197280e+00   8.277149e+00   4.326524e+01   1.096905e+05  -9.861733e+04   1.168617e+06   2.406665e+00   2.676895e+00  -3.209928e-22   1.177889e+06   4.329631e-41   0.000000e+00   0.000000e+00
     1920000   1.919999e-05   2.206055e+00   8.269260e+00   4.335873e+01   1.096905e+05  -9.861733e+04   1.168617e+06  -2.216390e+00  -2.465255e+00  -1.866619e-22   1.177889e+06   3.673196e-41   0.000000e+00   0.000000e+00
     1928000   1.927999e-05   2.214830e+00   8.261370e+00   4.345222e+01   1.096905e+05  -9.861733e+04   1.168617e+06  -3.989817e+00  -4.437809e+00   1.591571e-21   1.177889e+06   1.190092e-40   0.000000e+00   0.000000e+00
     1936000   1.935999e-05   2.223606e+00   8.253481e+00   4.354571e+01   1.096905e+05  -9.861733e+04   1.168617e+06  -2.339164e+00  -2.601814e+00  -6.093760e-22   1.177889e+06   4.091385e-41   0.000000e+00   0.000000e+00
     1944000   1.943999e-05   2.232381e+00   8.245592e+00   4.363919e+01   1.096905e+05  -9.861733e+04   1.168617e+06  -3.807382e+00  -4.234890e+00   1.521451e-21   1.177889e+06   1.083743e-40   0.000000e+00   0.000000e+00
     1952000   1.951999e-05   2.241156e+00   8.237702e+00   4.373268e+01   1.096905e+05  -9.861733e+04   1.168617e+06  -2.461937e+00  -2.738374e+00  -1.032386e-21   1.177889e+06   4.532113e-41   0.000000e+00   0.000000e+00
     1960000   1.959999e-05   2.249931e+00   8.229813e+00   4.382617e+01   1.096905e+05  -9.861733e+04   1.168617e+06  -3.624946e+00  -4.031970e+00   3.034139e-22   1.177889e+06   9.823703e-41   0.000000e+00   0.000000e+00
     1968000   1.967999e-05   2.258706e+00   8.221923e+00   4.391966e+01   1.096905e+05  -9.861733e+04   1.168617e+06  -2.584711e+00  -2.874933e+00  -8.814165e-22   1.177889e+06   4.995380e-41   0.000000e+00   0.000000e+00
     1976000   1.975999e-05   2.267482e+00   8.214034e+00   4.401315e+01   1.096905e+05  -9.861733e+04   1.168617e+06  -3.442511e+00  -3.829051e+00  -3.400244e-22   1.177889e+06   8.859745e-41   0.000000e+00   0.000000e+00
     1984000   1.983999e-05   2.276257e+00   8.206145e+00   4.410664e+01   1.096905e+05  -9.861733e+04   1.168617e+06  -2.707485e+00  -3.011492e+00  -1.564693e-22   1.177889e+06   5.481187e-41   0.000000e+00   0.000000e+00
     1992000   1.991999e-05   2.285032e+00   8.198255e+00   4.420013e+01   1.096905e+05  -9.861733e+04   1.168617e+06   7.884198e-01   8.769468e-01  -3.873668e-23   1.177889e+06   4.644988e-42   0.000000e+00   0.000000e+00
     2000000   1.999999e-05   2.293807e+00   8.190366e+00   4.429362e+01   1.096905e+05  -9.861733e+04   1.168617e+06   2.473828e+00   2.751599e+00   2.964091e-22   1.177889e+06   4.574742e-41   0.000000e+00   0.000000e+00
     2008000   2.007999e-05   2.302583e+00   8.182476e+00   4.438711e+01   1.096905e+05  -9.861733e+04   1.168617e+06  -1.210518e+00  -1.346440e+00   1.392587e-22   1.177889e+06   1.096035e-41   0.000000e+00   0.000000e+00
     2016000   2.015999e-05   2.311358e+00   8.174587e+00   4.448060e+01   1.096905e+05  -9.861733e+04   1.168617e+06  -5.638956e+00  -6.272121e+00   2.323558e-22   1.177889e+06   2.377134e-40   0.000000e+00   0.000000e+00
     2024000   2.023999e-05   2.320133e+00   8.166698e+00   4.457409e+01   1.096905e+05  -9.861733e+04   1.168617e+06  -1.799469e+00  -2.001521e+00  -5.463184e-24   1.177889e+06   2.421651e-41   0.000000e+00   0.000000e+00
     2032000   2.031999e-05   2.328908e+00   8.158808e+00   4.466758e+01   1.096905e+05  -9.861733e+04   1.168617e+06  -5.756226e+00  -6.402559e+00   6.043465e-22   1.177889e+06   2.477039e-40   0.000000e+00   0.000000e+00
     2040000   2.039999e-05   2.337684e+00   8.150919e+00   4.476107e+01   1.096905e+05  -9.861733e+04   1.168617e+06  -2.388420e+00  -2.656601e+00   4.217524e-22   1.177889e+06   4.265936e-41   0.000000e+00   0.000000e+00
     2048000   2.047999e-05   2.346459e+00   8.143030e+00   4.485456e+01   1.096905e+05  -9.861733e+04   1.168617e+06  -5.873497e+00  -6.532997e+00  -1.321690e-21   1.177889e+06   2.579001e-40   0.000000e+00   0.000000e+00
     2056000   2.055999e-05   2.355234e+00   8.135140e+00   4.494805e+01   1.096905e+05  -9.861733e+04   1.168617e+06  -2.977370e+00  -3.311682e+00  -3.023574e-22   1.177889e+06   6.628889e-41   0.000000e+00   0.000000e+00
     2064000   2.063999e-05   2.364009e+00   8.127251e+00   4.504153e+01   1.096905e+05  -9.861733e+04   1.168617e+06  -5.990767e+00  -6.663435e+00   1.958116e-22   1.177889e+06   2.683019e-40   0.000000e+00   0.000000e+00
     2072000   2.071999e-05   2.372785e+00   8.119361e+00   4.513502e+01   1.096905e+05  -9.861733e+04   1.168617e+06  -3.566321e+00  -3.966762e+00   6.927750e-22   1.177889e+06   9.510510e-41   0.000000e+00   0.000000e+00
     2080000   2.079999e-05   2.381560e+00   8.111472e+00   4.522851e+01   1.096905e+05  -9.861733e+04   1.168617e+06  -6.108038e+00  -6.793873e+00  -5.857042e-22   1.177889e+06   2.789094e-40   0.000000e+00   0.000000e+00
     2088000   2.087999e-05   2.390335e+00   8.103583e+00   4.532200e+01   1.096905e+05  -9.861733e+04   1.168617e+06  -4.155272e+00  -4.621843e+00   5.362167e-22   1.177889e+06   1.291080e-40   0.000000e+00   0.000000e+00
     2096000   2.095999e-05   2.399110e+00   8.095693e+00   4.541549e+01   1.096905e+05  -9.861733e+04   1.168617e+06  -4.056135e+00  -4.511575e+00   6.235937e-22   1.177889e+06   1.229957e-40   0.000000e+00   0.000000e+00
     2104000   2.103999e-05   2.407886e+00   8.087804e+00   4.550898e+01   1.096905e+05  -9.861733e+04   1.168617e+06  -4.604061e+00  -5.121023e+00  -2.015637e-21   1.177889e+06   1.585011e-40   0.000000e+00   0.000000e+00
     2112000   2.111999e-05   2.416661e+00   8.079914e+00   4.560247e+01   1.096905e+05  -9.861733e+04   1.168617e+06  -5.630838e+00  -6.263091e+00   9.009109e-22   1.177889e+06   2.370332e-40   0.000000e+00   0.000000e+00
     2120000   2.119999e-05   2.425436e+00   8.072025e+00   4.569596e+01   1.096905e+05  -9.861733e+04   1.168617e+06  -7.628466e+00  -8.485021e+00   2.222341e-21   1.177889e+06   4.350585e-40   0.000000e+00   0.000000e+00
     2128000   2.127999e-05   2.434211e+00   8.064136e+00   4.578945e+01   1.096905e+05  -9.861733e+04   1.168617e+06  -2.955473e+00  -3.287326e+00   9.960683e-22   1.177889e+06   6.531779e-41   0.000000e+00   0.000000e+00
     2136000   2.135999e-05   2.442986e+00   8.056246e+00   4.588294e+01   1.096905e+05  -9.861733e+04   1.168617e+06  -7.091840e+00  -7.888140e+00  -2.635467e-21   1.177889e+06   3.760010e-40   0.000000e+00   0.000000e+00
     2144000   2.143999e-05   2.451762e+00   8.048357e+00   4.597643e+01   1.096905e+05  -9.861733e+04   1.168617e+06  -3.367042e+00  -3.745108e+00  -2.378531e-22   1.177889e+06   8.477452e-41   0.000000e+00   0.000000e+00
     2152000   2.151999e-05   2.460537e+00   8.040468e+00   4.606992e+01   1.096905e+05  -9.861733e+04   1.168617e+06  -6.555214e+00  -7.291260e+00   5.497119e-22   1.177889e+06   3.212494e-40   0.000000e+00   0.000000e+00
     2160000   2.159999e-05   2.469312e+00   8.032578e+00   4.616341e+01   1.096905e+05  -9.861733e+04   1.168617e+06  -3.778612e+00  -4.202889e+00   1.397454e-21   1.177889e+06   1.067641e-40   0.000000e+00   0.000000e+00
     2168000   2.167999e-05   2.478087e+00   8.024689e+00   4.625690e+01   1.096905e+05  -9.861733e+04   1.168617e+06  -6.018588e+00  -6.694379e+00  -3.154504e-21   1.177889e+06   2.708039e-40   0.000000e+00   0.000000e+00
     2176000   2.175999e-05   2.486863e+00   8.016799e+00   4.635039e+01   1.096905e+05  -9.861733e+04   1.168617e+06  -4.190181e+00  -4.660671e+00   1.599435e-22   1.177889e+06   1.312867e-40   0.000000e+00   0.000000e+00
     2184000   2.183999e-05   2.495638e+00   8.008910e+00   4.644388e+01   1.096905e+05  -9.861733e+04   1.168617e+06  -5.481962e+00  -6.097499e+00   3.591955e-23   1.177889e+06   2.246643e-40   0.000000e+00   0.000000e+00
     2192000   2.191999e-05   2.504413e+00   8.001021e+00   4.653736e+01   1.096905e+05  -9.861733e+04   1.168617e+06  -4.786453e+00  -5.323895e+00   5.885668e-22   1.177889e+06   1.712973e-40   0.000000e+00   0.000000e+00
     2200000   2.199999e-05   2.513188e+00   7.993131e+00   4.663085e+01   1.096905e+05  -9.861733e+04   1.168617e+06  -4.805567e+00  -5.345156e+00  -1.342612e-21   1.177889e+06   1.726545e-40   0.000000e+00   0.000000e+00
     2208000   2.207999e-05   2.521964e+00   7.985242e+00   4.672434e+01   1.096905e+05  -9.861733e+04   1.168617e+06  -5.543018e+00  -6.165410e+00  -7.406175e-22   1.177889e+06   2.297212e-40   0.000000e+00   0.000000e+00
     2216000   2.215999e-05   2.530739e+00   7.977352e+00   4.681783e+01   1.096905e+05  -9.861733e+04   1.168617e+06  -5.159222e+00  -5.738520e+00  -2.054113e-21   1.177889e+06   1.990022e-40   0.000000e+00   0.000000e+00
     2224000   2.223999e-05   2.539514e+00   7.969463e+00   4.691132e+01   1.096905e+05  -9.861733e+04   1.168617e+06  -5.643087e+00  -6.276716e+00   4.394039e-22   1.177889e+06   2.380904e-40   0.000000e+00   0.000000e+00
     2232000   2.231999e-05   2.548289e+00   7.961574e+00   4.700481e+01   1.096905e+05  -9.861733e+04   1.168617e+06  -5.512876e+00  -6.131884e+00   6.762125e-22   1.177889e+06   2.272201e-40   0.000000e+00   0.000000e+00
     2240000   2.239999e-05   2.557065e+00   7.953684e+00   4.709830e+01   1.096905e+05  -9.861733e+04   1.168617e+06  -6.090104e+00  -6.773926e+00  -2.831104e-21   1.177889e+06   2.772943e-40   0.000000e+00   0.000000e+00
     2248000   2.247999e-05   2.565840e+00   7.945795e+00   4.719179e+01   1.096905e+05  -9.861733e+04   1.168617e+06  -5.392790e+00  -5.998314e+00   1.338334e-21   1.177889e+06   2.174382e-40   0.000000e+00   0.000000e+00
     2256000   2.255999e-05   2.574615e+00   7.937906e+00   4.728528e+01   1.096905e+05  -9.861733e+04   1.168617e+06  -6.443759e+00  -7.167290e+00  -2.419270e-21   1.177889e+06   3.104349e-40   0.000000e+00   0.000000e+00
     2264000   2.263999e-05   2.583390e+00   7.930016e+00   4.737877e+01   1.096905e+05  -9.861733e+04   1.168617e+06  -5.492859e+00  -6.109620e+00   1.337413e-21   1.177889e+06   2.255826e-40   0.000000e+00   0.000000e+00
     2272000   2.271999e-05   2.592166e+00   7.922127e+00   4.747226e+01   1.096905e+05  -9.861733e+04   1.168617e+06  -6.797413e+00  -7.560654e+00   2.447815e-22   1.177889e+06   3.454457e-40   0.000000e+00   0.000000e+00
     2280000   2.279999e-05   2.600941e+00   7.914237e+00   4.756575e+01   1.096905e+05  -9.861733e+04   1.168617e+06  -5.513477e+00  -6.132552e+00  -4.492161e-22   1.177889e+06   2.272666e-40   0.000000e+00   0.000000e+00
     2288000   2.287999e-05   2.609716e+00   7.906348e+00   4.765924e+01   1.096905e+05  -9.861733e+04   1.168617e+06  -5.096240e+00  -5.668466e+00  -5.872326e-22   1.177889e+06   1.941864e-40   0.000000e+00   0.000000e+00
     2296000   2.295999e-05   2.618491e+00   7.898459e+00   4.775273e+01   1.096905e+05  -9.861733e+04   1.168617e+06  -4.782679e+00  -5.319697e+00  -1.839980e-23   1.177889e+06   1.710296e-40   0.000000e+00   0.000000e+00
     2304000   2.303999e-05   2.627266e+00   7.890569e+00   4.784622e+01   1.096905e+05  -9.861733e+04   1.168617e+06  -6.891200e+00  -7.664972e+00   1.330519e-21   1.177889e+06   3.550391e-40   0.000000e+00   0.000000e+00
     2312000   2.311999e-05   2.636042e+00   7.882680e+00   4.793970e+01   1.096905e+05  -9.861733e+04   1.168617e+06  -4.799077e+00  -5.337937e+00  -1.536616e-21   1.177889e+06   1.722044e-40   0.000000e+00   0.000000e+00
     2320000   2.319999e-05   2.644817e+00   7.874790e+00   4.803319e+01   1.096905e+05  -9.861733e+04   1.168617e+06  -6.409680e+00  -7.129385e+00   1.687801e-21   1.177889e+06   3.071553e-40   0.000000e+00   0.000000e+00
     2328000   2.327999e-05   2.653592e+00   7.866901e+00   4.812668e+01   1.096905e+05  -9.861733e+04   1.168617e+06  -4.815475e+00  -5.356177e+00  -7.568290e-22   1.177889e+06   1.733832e-40   0.000000e+00   0.000000e+00
     2336000   2.335999e-05   2.662367e+00   7.859012e+00   4.822017e+01   1.096905e+05  -9.861733e+04   1.168617e+06  -5.928160e+00  -6.593798e+00  -2.497134e-22   1.177889e+06   2.627386e-40   0.000000e+00   0.000000e+00
     2344000   2.343999e-05   2.671143e+00   7.851122e+00   4.831366e+01   1.096905e+05  -9.861733e+04   1.168617e+06  -4.831874e+00  -5.374416e+00   2.377681e-23   1.177889e+06   1.745660e-40   0.000000e+00   0.000000e+00
     2352000   2.351999e-05   2.679918e+00   7.843233e+00   4.840715e+01   1.096905e+05  -9.861733e+04   1.168617e+06  -5.446640e+00  -6.058211e+00  -1.034688e-21   1.177889e+06   2.217889e-40   0.000000e+00   0.000000e+00
     2360000   2.359999e-05   2.688693e+00   7.835343e+00   4.850064e+01   1.096905e+05  -9.861733e+04   1.168617e+06  -4.848272e+00  -5.392656e+00   1.952922e-21   1.177889e+06   1.757529e-40   0.000000e+00   0.000000e+00
     2368000   2.367999e-05   2.697468e+00   7.827454e+00   4.859413e+01   1.096905e+05  -9.861733e+04   1.168617e+06  -3.653814e+00  -4.064079e+00  -1.598979e-21   1.177889e+06   9.982286e-41   0.000000e+00   0.000000e+00
     2376000   2.375999e-05   2.706244e+00   7.819565e+00   4.868762e+01   1.096905e+05  -9.861733e+04   1.168617e+06  -4.029247e+00  -4.481667e+00  -1.530269e-21   1.177889e+06   1.213786e-40   0.000000e+00   0.000000e+00
     2384000   2.383999e-05   2.715019e+00   7.811675e+00   4.878111e+01   1.096905e+05  -9.861733e+04   1.168617e+06  -3.334126e+00  -3.708495e+00  -1.860670e-22   1.177889e+06   8.311538e-41   0.000000e+00   0.000000e+00
     2392000   2.391999e-05   2.723794e+00   7.803786e+00   4.887460e+01   1.096905e+05  -9.861733e+04   1.168617e+06  -3.932315e+00  -4.373851e+00  -2.780992e-22   1.177889e+06   1.156088e-40   0.000000e+00   0.000000e+00
     2400000   2.399999e-05   2.732569e+00   7.795897e+00   4.896809e+01   1.096905e+05  -9.861733e+04   1.168617e+06  -4.098437e+00  -4.558626e+00  -5.441987e-23   1.177889e+06   1.255890e-40   0.000000e+00   0.000000e+00
     2408000   2.407999e-05   2.741345e+00   7.788007e+00   4.906158e+01   1.096905e+05  -9.861733e+04   1.168617e+06  -3.847748e+00  -4.279789e+00  -1.265620e-21   1.177889e+06   1.106892e-40   0.000000e+00   0.000000e+00
     2416000   2.415999e-05   2.750120e+00   7.780118e+00   4.915507e+01   1.096905e+05  -9.861733e+04   1.168617e+06  -4.144919e+00  -4.610328e+00  -3.977709e-22   1.177889e+06   1.284538e-40   0.000000e+00   0.000000e+00
     2424000   2.423999e-05   2.758895e+00   7.772228e+00   4.924856e+01   1.096905e+05  -9.861733e+04   1.168617e+06  -3.479538e+00  -3.870235e+00   7.017570e-22   1.177889e+06   9.051785e-41   0.000000e+00   0.000000e+00
     2432000   2.431999e-05   2.767670e+00   7.764339e+00   4.934205e+01   1.096905e+05  -9.861733e+04   1.168617e+06  -4.191402e+00  -4.662029e+00  -7.389339e-22   1.177889e+06   1.313510e-40   0.000000e+00   0.000000e+00
     2440000   2.439999e-05   2.776446e+00   7.756450e+00   4.943553e+01   1.096905e+05  -9.861733e+04   1.168617e+06  -3.111328e+00  -3.460681e+00  -2.004466e-22   1.177889e+06   7.237382e-41   0.000000e+00   0.000000e+00
     2448000   2.447999e-05   2.785221e+00   7.748560e+00   4.952902e+01   1.096905e+05  -9.861733e+04   1.168617e+06  -4.237884e+00  -4.713731e+00  -2.229402e-21   1.177889e+06   1.342804e-40   0.000000e+00   0.000000e+00
     2456000   2.455999e-05   2.793996e+00   7.740671e+00   4.962251e+01   1.096911e+05  -9.861816e+04   1.168617e+06   4.567955e+07  -5.892061e+07  -9.259907e+06   1.177889e+06   1.885148e-26   0.000000e+00   0.000000e+00
     2464000   2.463999e-05   2.802772e+00   7.732781e+00   4.971600e+01   1.096970e+05  -9.862579e+04   1.168616e+06   8.234745e+07  -1.060597e+08  -1.668084e+07   1.177889e+06   6.117074e-26   0.000000e+00   0.000000e+00
     2472000   2.471999e-05   2.811548e+00   7.724891e+00   4.980949e+01   1.097064e+05  -9.863786e+04   1.168614e+06   1.208829e+08  -1.554908e+08  -2.447251e+07   1.177889e+06   1.316688e-25   0.000000e+00   0.000000e+00
     2480000   2.479999e-05   2.820324e+00   7.716999e+00   4.990298e+01   1.097113e+05  -9.864418e+04   1.168613e+06   0.000000e+00   0.000000e+00   0.000000e+00   1.177889e+06   0.000000e+00   0.000000e+00   0.000000e+00
     2488000   2.487999e-05   2.829101e+00   7.709108e+00   4.999647e+01   1.097113e+05  -9.864418e+04   1.168613e+06   0.000000e+00   0.000000e+00   0.000000e+00   1.177889e+06   0.000000e+00   0.000000e+00   0.000000e+00
