     timestep     time              x             y              z              vx             vy             vz             ax             ay             az         v_magnitude      ELoss        Electronic      Nuclear
           0   0.000000e+00   1.000000e-01   2.051749e+01   1.312970e+01   4.050257e+05   1.744682e+06   3.904020e+05   0.000000e+00   0.000000e+00   0.000000e+00   1.833133e+06   0.000000e+00   0.000000e+00   0.000000e+00
        8000   7.999000e-08   1.324021e-01   2.065706e+01   1.316093e+01   4.050257e+05   1.744682e+06   3.904020e+05   0.000000e+00   0.000000e+00   0.000000e+00   1.833133e+06   0.000000e+00   0.000000e+00   0.000000e+00
       16000   1.599900e-07   1.648041e-01   2.079664e+01   1.319216e+01   4.050257e+05   1.744682e+06   3.904020e+05   0.000000e+00   0.000000e+00   0.000000e+00   1.833133e+06   0.000000e+00   0.000000e+00   0.000000e+00
       24000   2.399900e-07   1.972062e-01   2.093621e+01   1.322340e+01   4.050257e+05   1.744682e+06   3.904020e+05   0.000000e+00   0.000000e+00   0.000000e+00   1.833133e+06   0.000000e+00   0.000000e+00   0.000000e+00
       32000   3.199900e-07   2.296082e-01   2.107579e+01   1.325463e+01   4.050257e+05   1.744682e+06   3.904020e+05   0.000000e+00   0.000000e+00   0.000000e+00   1.833133e+06   0.000000e+00   0.000000e+00   0.000000e+00
       40000   3.999900e-07   2.620103e-01   2.121536e+01   1.328586e+01   4.050257e+05   1.744682e+06   3.904020e+05   0.000000e+00   0.000000e+00   0.000000e+00   1.833133e+06   0.000000e+00   0.000000e+00   0.000000e+00
       48000   4.799900e-07   2.944123e-01   2.135494e+01   1.331709e+01   4.050257e+05   1.744682e+06   3.904020e+05   0.000000e+00   0.000000e+00   0.000000e+00   1.833133e+06   0.000000e+00   0.000000e+00   0.000000e+00
       56000   5.599900e-07   3.268144e-01   2.149451e+01   1.334832e+01   4.050257e+05   1.744682e+06   3.904020e+05   0.000000e+00   0.000000e+00   0.000000e+00   1.833133e+06   0.000000e+00   0.000000e+00   0.000000e+00
       64000   6.399900e-07   3.592165e-01   2.163409e+01   1.337956e+01   4.050257e+05   1.744682e+06   3.904020e+05   0.000000e+00   0.000000e+00   0.000000e+00   1.833133e+06   0.000000e+00   0.000000e+00   0.000000e+00
       72000   7.199900e-07   3.916185e-01   2.177366e+01   1.341079e+01   4.050257e+05   1.744682e+06   3.904020e+05   0.000000e+00   0.000000e+00   0.000000e+00   1.833133e+06   0.000000e+00   0.000000e+00   0.000000e+00
       80000   7.999900e-07   4.240206e-01   2.191324e+01   1.344202e+01   4.050257e+05   1.744682e+06   3.904020e+05   0.000000e+00   0.000000e+00   0.000000e+00   1.833133e+06   0.000000e+00   0.000000e+00   0.000000e+00
       88000   8.799900e-07   4.564226e-01   2.205281e+01   1.347325e+01   4.050257e+05   1.744682e+06   3.904020e+05   0.000000e+00   0.000000e+00   0.000000e+00   1.833133e+06   0.000000e+00   0.000000e+00   0.000000e+00
       96000   9.599900e-07   4.888247e-01   2.219238e+01   1.350448e+01   4.050257e+05   1.744682e+06   3.904020e+05   0.000000e+00   0.000000e+00   0.000000e+00   1.833133e+06   0.000000e+00   0.000000e+00   0.000000e+00
      104000   1.039990e-06   5.212267e-01   2.233196e+01   1.353572e+01   4.050257e+05   1.744682e+06   3.904020e+05   0.000000e+00   0.000000e+00   0.000000e+00   1.833133e+06   0.000000e+00   0.000000e+00   0.000000e+00
      112000   1.119990e-06   5.536288e-01   2.247153e+01   1.356695e+01   4.050257e+05   1.744682e+06   3.904020e+05   0.000000e+00   0.000000e+00   0.000000e+00   1.833133e+06   0.000000e+00   0.000000e+00   0.000000e+00
      120000   1.199990e-06   5.860309e-01   2.261111e+01   1.359818e+01   4.050257e+05   1.744682e+06   3.904020e+05   0.000000e+00   0.000000e+00   0.000000e+00   1.833133e+06   0.000000e+00   0.000000e+00   0.000000e+00
      128000   1.279990e-06   6.184329e-01   2.275068e+01   1.362941e+01   4.050257e+05   1.744682e+06   3.904020e+05   0.000000e+00   0.000000e+00   0.000000e+00   1.833133e+06   0.000000e+00   0.000000e+00   0.000000e+00
      136000   1.359990e-06   6.508350e-01   2.289026e+01   1.366065e+01   4.050257e+05   1.744682e+06   3.904020e+05   0.000000e+00   0.000000e+00   0.000000e+00   1.833133e+06   0.000000e+00   0.000000e+00   0.000000e+00
      144000   1.439990e-06   6.832370e-01   2.302983e+01   1.369188e+01   4.050257e+05   1.744682e+06   3.904020e+05   0.000000e+00   0.000000e+00   0.000000e+00   1.833133e+06   0.000000e+00   0.000000e+00   0.000000e+00
      152000   1.519990e-06   7.156391e-01   2.316941e+01   1.372311e+01   4.050257e+05   1.744682e+06   3.904020e+05   0.000000e+00   0.000000e+00   0.000000e+00   1.833133e+06   0.000000e+00   0.000000e+00   0.000000e+00
      160000   1.599990e-06   7.480411e-01   2.330898e+01   1.375434e+01   4.050257e+05   1.744682e+06   3.904020e+05   0.000000e+00   0.000000e+00   0.000000e+00   1.833133e+06   0.000000e+00   0.000000e+00   0.000000e+00
      168000   1.679990e-06   7.804432e-01   2.344856e+01   1.378557e+01   4.050257e+05   1.744682e+06   3.904020e+05   0.000000e+00   0.000000e+00   0.000000e+00   1.833133e+06   0.000000e+00   0.000000e+00   0.000000e+00
      176000   1.759990e-06   8.128453e-01   2.358813e+01   1.381681e+01   4.050257e+05   1.744682e+06   3.904020e+05   0.000000e+00   0.000000e+00   0.000000e+00   1.833133e+06   0.000000e+00   0.000000e+00   0.000000e+00
      184000   1.839990e-06   8.452473e-01   2.372771e+01   1.384804e+01   4.050257e+05   1.744682e+06   3.904020e+05   0.000000e+00   0.000000e+00   0.000000e+00   1.833133e+06   0.000000e+00   0.000000e+00   0.000000e+00
      192000   1.919990e-06   8.776494e-01   2.386728e+01   1.387927e+01   4.050257e+05   1.744682e+06   3.904020e+05   0.000000e+00   0.000000e+00   0.000000e+00   1.833133e+06   0.000000e+00   0.000000e+00   0.000000e+00
      200000   1.999990e-06   9.100514e-01   2.400685e+01   1.391050e+01   4.050257e+05   1.744682e+06   3.904020e+05   0.000000e+00   0.000000e+00   0.000000e+00   1.833133e+06   0.000000e+00   0.000000e+00   0.000000e+00
      208000   2.079990e-06   9.424535e-01   2.414643e+01   1.394174e+01   4.050257e+05   1.744682e+06   3.904020e+05   0.000000e+00   0.000000e+00   0.000000e+00   1.833133e+06   0.000000e+00   0.000000e+00   0.000000e+00
      216000   2.159990e-06   9.748556e-01   2.428600e+01   1.397297e+01   4.050257e+05   1.744682e+06   3.904020e+05   0.000000e+00   0.000000e+00   0.000000e+00   1.833133e+06   0.000000e+00   0.000000e+00   0.000000e+00
      224000   2.239990e-06   1.007258e+00   2.442558e+01   1.400420e+01   4.050257e+05   1.744682e+06   3.904020e+05   0.000000e+00   0.000000e+00   0.000000e+00   1.833133e+06   0.000000e+00   0.000000e+00   0.000000e+00
      232000   2.319990e-06   1.039660e+00   2.456515e+01   1.403543e+01   4.050257e+05   1.744682e+06   3.904020e+05   0.000000e+00   0.000000e+00   0.000000e+00   1.833133e+06   0.000000e+00   0.000000e+00   0.000000e+00
      240000   2.399990e-06   1.072062e+00   2.470473e+01   1.406666e+01   4.050257e+05   1.744682e+06   3.904020e+05   0.000000e+00   0.000000e+00   0.000000e+00   1.833133e+06   0.000000e+00   0.000000e+00   0.000000e+00
      248000   2.479990e-06   1.104464e+00   2.484430e+01   1.409790e+01   4.050257e+05   1.744682e+06   3.904020e+05   0.000000e+00   0.000000e+00   0.000000e+00   1.833133e+06   0.000000e+00   0.000000e+00   0.000000e+00
      256000   2.559990e-06   1.136866e+00   2.498388e+01   1.412913e+01   4.050257e+05   1.744682e+06   3.904020e+05   0.000000e+00   0.000000e+00   0.000000e+00   1.833133e+06   0.000000e+00   0.000000e+00   0.000000e+00
      264000   2.639990e-06   1.169268e+00   2.512345e+01   1.416036e+01   4.050257e+05   1.744682e+06   3.904020e+05   0.000000e+00   0.000000e+00   0.000000e+00   1.833133e+06   0.000000e+00   0.000000e+00   0.000000e+00
      272000   2.719990e-06   1.201670e+00   2.526303e+01   1.419159e+01   4.050257e+05   1.744682e+06   3.904020e+05   0.000000e+00   0.000000e+00   0.000000e+00   1.833133e+06   0.000000e+00   0.000000e+00   0.000000e+00
      280000   2.799990e-06   1.234072e+00   2.540260e+01   1.422282e+01   4.050257e+05   1.744682e+06   3.904020e+05   0.000000e+00   0.000000e+00   0.000000e+00   1.833133e+06   0.000000e+00   0.000000e+00   0.000000e+00
      288000   2.879990e-06   1.266474e+00   2.554217e+01   1.425406e+01   4.050257e+05   1.744682e+06   3.904020e+05   0.000000e+00   0.000000e+00   0.000000e+00   1.833133e+06   0.000000e+00   0.000000e+00   0.000000e+00
      296000   2.959990e-06   1.298876e+00   2.568175e+01   1.428529e+01   4.050257e+05   1.744682e+06   3.904020e+05   0.000000e+00   0.000000e+00   0.000000e+00   1.833133e+06   0.000000e+00   0.000000e+00   0.000000e+00
      304000   3.039990e-06   1.331278e+00   2.582132e+01   1.431652e+01   4.050257e+05   1.744682e+06   3.904020e+05   0.000000e+00   0.000000e+00   0.000000e+00   1.833133e+06   0.000000e+00   0.000000e+00   0.000000e+00
      312000   3.119990e-06   1.363680e+00   2.596090e+01   1.434775e+01   4.050257e+05   1.744682e+06   3.904020e+05   0.000000e+00   0.000000e+00   0.000000e+00   1.833133e+06   0.000000e+00   0.000000e+00   0.000000e+00
      320000   3.199990e-06   1.396082e+00   2.610047e+01   1.437899e+01   4.050257e+05   1.744682e+06   3.904020e+05   0.000000e+00   0.000000e+00   0.000000e+00   1.833133e+06   0.000000e+00   0.000000e+00   0.000000e+00
      328000   3.279990e-06   1.428484e+00   2.624005e+01   1.441022e+01   4.050257e+05   1.744682e+06   3.904020e+05   0.000000e+00   0.000000e+00   0.000000e+00   1.833133e+06   0.000000e+00   0.000000e+00   0.000000e+00
      336000   3.359990e-06   1.460886e+00   2.637962e+01   1.444145e+01   4.050257e+05   1.744682e+06   3.904020e+05   0.000000e+00   0.000000e+00   0.000000e+00   1.833133e+06   0.000000e+00   0.000000e+00   0.000000e+00
      344000   3.439990e-06   1.493288e+00   2.651920e+01   1.447268e+01   4.050257e+05   1.744682e+06   3.904020e+05   0.000000e+00   0.000000e+00   0.000000e+00   1.833133e+06   0.000000e+00   0.000000e+00   0.000000e+00
      352000   3.519990e-06   1.525691e+00   2.665877e+01   1.450391e+01   4.050257e+05   1.744682e+06   3.904020e+05   0.000000e+00   0.000000e+00   0.000000e+00   1.833133e+06   0.000000e+00   0.000000e+00   0.000000e+00
      360000   3.599990e-06   1.558093e+00   2.679835e+01   1.453515e+01   4.050257e+05   1.744682e+06   3.904020e+05   0.000000e+00   0.000000e+00   0.000000e+00   1.833133e+06   0.000000e+00   0.000000e+00   0.000000e+00
      368000   3.679990e-06   1.590495e+00   2.693792e+01   1.456638e+01   4.050257e+05   1.744682e+06   3.904020e+05   0.000000e+00   0.000000e+00   0.000000e+00   1.833133e+06   0.000000e+00   0.000000e+00   0.000000e+00
      376000   3.759990e-06   1.622897e+00   2.707749e+01   1.459761e+01   4.050257e+05   1.744682e+06   3.904020e+05   0.000000e+00   0.000000e+00   0.000000e+00   1.833133e+06   0.000000e+00   0.000000e+00   0.000000e+00
      384000   3.839990e-06   1.655299e+00   2.721707e+01   1.462884e+01   4.050257e+05   1.744682e+06   3.904020e+05   0.000000e+00   0.000000e+00   0.000000e+00   1.833133e+06   0.000000e+00   0.000000e+00   0.000000e+00
      392000   3.919990e-06   1.687701e+00   2.735664e+01   1.466007e+01   4.050257e+05   1.744682e+06   3.904020e+05   0.000000e+00   0.000000e+00   0.000000e+00   1.833133e+06   0.000000e+00   0.000000e+00   0.000000e+00
      400000   3.999990e-06   1.720103e+00   2.749622e+01   1.469131e+01   4.050257e+05   1.744682e+06   3.904020e+05   0.000000e+00   0.000000e+00   0.000000e+00   1.833133e+06   0.000000e+00   0.000000e+00   0.000000e+00
      408000   4.079990e-06   1.752505e+00   2.763579e+01   1.472254e+01   4.050257e+05   1.744682e+06   3.904020e+05   0.000000e+00   0.000000e+00   0.000000e+00   1.833133e+06   0.000000e+00   0.000000e+00   0.000000e+00
      416000   4.159990e-06   1.784907e+00   2.777537e+01   1.475377e+01   4.050257e+05   1.744682e+06   3.904020e+05   0.000000e+00   0.000000e+00   0.000000e+00   1.833133e+06   0.000000e+00   0.000000e+00   0.000000e+00
      424000   4.239990e-06   1.817309e+00   2.791494e+01   1.478500e+01   4.050257e+05   1.744682e+06   3.904020e+05   0.000000e+00   0.000000e+00   0.000000e+00   1.833133e+06   0.000000e+00   0.000000e+00   0.000000e+00
      432000   4.319990e-06   1.849711e+00   2.805452e+01   1.481624e+01   4.050257e+05   1.744682e+06   3.904020e+05   0.000000e+00   0.000000e+00   0.000000e+00   1.833133e+06   0.000000e+00   0.000000e+00   0.000000e+00
      440000   4.399990e-06   1.882113e+00   2.819409e+01   1.484747e+01   4.050257e+05   1.744682e+06   3.904020e+05   0.000000e+00   0.000000e+00   0.000000e+00   1.833133e+06   0.000000e+00   0.000000e+00   0.000000e+00
      448000   4.479990e-06   1.914515e+00   2.833367e+01   1.487870e+01   4.050257e+05   1.744682e+06   3.904020e+05   0.000000e+00   0.000000e+00   0.000000e+00   1.833133e+06   0.000000e+00   0.000000e+00   0.000000e+00
      456000   4.559990e-06   1.946917e+00   2.847324e+01   1.490993e+01   4.050257e+05   1.744682e+06   3.904020e+05   0.000000e+00   0.000000e+00   0.000000e+00   1.833133e+06   0.000000e+00   0.000000e+00   0.000000e+00
      464000   4.639990e-06   1.979319e+00   2.861281e+01   1.494116e+01   4.050257e+05   1.744682e+06   3.904020e+05   0.000000e+00   0.000000e+00   0.000000e+00   1.833133e+06   0.000000e+00   0.000000e+00   0.000000e+00
      472000   4.719990e-06   2.011721e+00   2.875239e+01   1.497240e+01   4.050257e+05   1.744682e+06   3.904020e+05   0.000000e+00   0.000000e+00   0.000000e+00   1.833133e+06   0.000000e+00   0.000000e+00   0.000000e+00
      480000   4.799990e-06   2.044123e+00   2.889196e+01   1.500363e+01   4.050257e+05   1.744682e+06   3.904020e+05   0.000000e+00   0.000000e+00   0.000000e+00   1.833133e+06   0.000000e+00   0.000000e+00   0.000000e+00
      488000   4.879990e-06   2.076526e+00   2.903154e+01   1.503486e+01   4.050257e+05   1.744682e+06   3.904020e+05   0.000000e+00   0.000000e+00   0.000000e+00   1.833133e+06   0.000000e+00   0.000000e+00   0.000000e+00
      496000   4.959990e-06   2.108928e+00   2.917111e+01   1.506609e+01   4.050257e+05   1.744682e+06   3.904020e+05   0.000000e+00   0.000000e+00   0.000000e+00   1.833133e+06   0.000000e+00   0.000000e+00   0.000000e+00
      504000   5.039990e-06   2.141330e+00   2.931069e+01   1.509733e+01   4.050257e+05   1.744682e+06   3.904020e+05   0.000000e+00   0.000000e+00   0.000000e+00   1.833133e+06   0.000000e+00   0.000000e+00   0.000000e+00
      512000   5.119990e-06   2.173732e+00   2.945026e+01   1.512856e+01   4.050257e+05   1.744682e+06   3.904020e+05   0.000000e+00   0.000000e+00   0.000000e+00   1.833133e+06   0.000000e+00   0.000000e+00   0.000000e+00
      520000   5.199990e-06   2.206134e+00   2.958984e+01   1.515979e+01   4.050257e+05   1.744682e+06   3.904020e+05   0.000000e+00   0.000000e+00   0.000000e+00   1.833133e+06   0.000000e+00   0.000000e+00   0.000000e+00
      528000   5.279990e-06   2.238536e+00   2.972941e+01   1.519102e+01   4.050257e+05   1.744682e+06   3.904020e+05   0.000000e+00   0.000000e+00   0.000000e+00   1.833133e+06   0.000000e+00   0.000000e+00   0.000000e+00
      536000   5.359990e-06   2.270938e+00   2.986899e+01   1.522225e+01   4.050257e+05   1.744682e+06   3.904020e+05   0.000000e+00   0.000000e+00   0.000000e+00   1.833133e+06   0.000000e+00   0.000000e+00   0.000000e+00
      544000   5.439990e-06   2.303340e+00   3.000856e+01   1.525349e+01   4.050257e+05   1.744682e+06   3.904020e+05   0.000000e+00   0.000000e+00   0.000000e+00   1.833133e+06   0.000000e+00   0.000000e+00   0.000000e+00
      552000   5.519990e-06   2.335742e+00   3.014814e+01   1.528472e+01   4.050257e+05   1.744682e+06   3.904020e+05   0.000000e+00   0.000000e+00   0.000000e+00   1.833133e+06   0.000000e+00   0.000000e+00   0.000000e+00
      560000   5.599990e-06   2.368144e+00   3.028771e+01   1.531595e+01   4.050257e+05   1.744682e+06   3.904020e+05   0.000000e+00   0.000000e+00   0.000000e+00   1.833133e+06   0.000000e+00   0.000000e+00   0.000000e+00
      568000   5.679990e-06   2.400546e+00   3.042728e+01   1.534718e+01   4.050257e+05   1.744682e+06   3.904020e+05   0.000000e+00   0.000000e+00   0.000000e+00   1.833133e+06   0.000000e+00   0.000000e+00   0.000000e+00
      576000   5.759990e-06   2.432948e+00   3.056686e+01   1.537841e+01   4.050257e+05   1.744682e+06   3.904020e+05   0.000000e+00   0.000000e+00   0.000000e+00   1.833133e+06   0.000000e+00   0.000000e+00   0.000000e+00
      584000   5.839990e-06   2.465350e+00   3.070643e+01   1.540965e+01   4.050257e+05   1.744682e+06   3.904020e+05   0.000000e+00   0.000000e+00   0.000000e+00   1.833133e+06   0.000000e+00   0.000000e+00   0.000000e+00
      592000   5.919990e-06   2.497752e+00   3.084601e+01   1.544088e+01   4.050257e+05   1.744682e+06   3.904020e+05   0.000000e+00   0.000000e+00   0.000000e+00   1.833133e+06   0.000000e+00   0.000000e+00   0.000000e+00
      600000   5.999990e-06   2.530154e+00   3.098558e+01   1.547211e+01   4.050257e+05   1.744682e+06   3.904020e+05   0.000000e+00   0.000000e+00   0.000000e+00   1.833133e+06   0.000000e+00   0.000000e+00   0.000000e+00
      608000   6.079990e-06   2.562556e+00   3.112516e+01   1.550334e+01   4.050257e+05   1.744682e+06   3.904020e+05   0.000000e+00   0.000000e+00   0.000000e+00   1.833133e+06   0.000000e+00   0.000000e+00   0.000000e+00
      616000   6.159990e-06   2.594958e+00   3.126473e+01   1.553458e+01   4.050257e+05   1.744682e+06   3.904020e+05   0.000000e+00   0.000000e+00   0.000000e+00   1.833133e+06   0.000000e+00   0.000000e+00   0.000000e+00
      624000   6.239990e-06   2.627360e+00   3.140431e+01   1.556581e+01   4.050257e+05   1.744682e+06   3.904020e+05   0.000000e+00   0.000000e+00   0.000000e+00   1.833133e+06   0.000000e+00   0.000000e+00   0.000000e+00
      632000   6.319990e-06   2.659763e+00   3.154388e+01   1.559704e+01   4.050257e+05   1.744682e+06   3.904020e+05   0.000000e+00   0.000000e+00   0.000000e+00   1.833133e+06   0.000000e+00   0.000000e+00   0.000000e+00
      640000   6.399990e-06   2.692165e+00   3.168346e+01   1.562827e+01   4.050257e+05   1.744682e+06   3.904020e+05   0.000000e+00   0.000000e+00   0.000000e+00   1.833133e+06   0.000000e+00   0.000000e+00   0.000000e+00
      648000   6.479990e-06   2.724567e+00   3.182303e+01   1.565950e+01   4.050257e+05   1.744682e+06   3.904020e+05   0.000000e+00   0.000000e+00   0.000000e+00   1.833133e+06   0.000000e+00   0.000000e+00   0.000000e+00
      656000   6.559990e-06   2.756969e+00   3.196260e+01   1.569074e+01   4.050257e+05   1.744682e+06   3.904020e+05   0.000000e+00   0.000000e+00   0.000000e+00   1.833133e+06   0.000000e+00   0.000000e+00   0.000000e+00
      664000   6.639990e-06   2.789371e+00   3.210218e+01   1.572197e+01   4.050257e+05   1.744682e+06   3.904020e+05   0.000000e+00   0.000000e+00   0.000000e+00   1.833133e+06   0.000000e+00   0.000000e+00   0.000000e+00
      672000   6.719990e-06   2.821773e+00   3.224175e+01   1.575320e+01   4.050257e+05   1.744682e+06   3.904020e+05   0.000000e+00   0.000000e+00   0.000000e+00   1.833133e+06   0.000000e+00   0.000000e+00   0.000000e+00
      680000   6.799990e-06   2.854175e+00   3.238133e+01   1.578443e+01   4.050257e+05   1.744682e+06   3.904020e+05   0.000000e+00   0.000000e+00   0.000000e+00   1.833133e+06   0.000000e+00   0.000000e+00   0.000000e+00
      688000   6.879990e-06   2.886577e+00   3.252090e+01   1.581566e+01   4.050257e+05   1.744682e+06   3.904020e+05   0.000000e+00   0.000000e+00   0.000000e+00   1.833133e+06   0.000000e+00   0.000000e+00   0.000000e+00
      696000   6.959990e-06   2.918979e+00   3.266048e+01   1.584690e+01   4.050257e+05   1.744682e+06   3.904020e+05   0.000000e+00   0.000000e+00   0.000000e+00   1.833133e+06   0.000000e+00   0.000000e+00   0.000000e+00
      704000   7.039990e-06   2.951381e+00   3.280005e+01   1.587813e+01   4.050257e+05   1.744682e+06   3.904020e+05   0.000000e+00   0.000000e+00   0.000000e+00   1.833133e+06   0.000000e+00   0.000000e+00   0.000000e+00
      712000   7.119990e-06   2.983783e+00   3.293963e+01   1.590936e+01   4.050257e+05   1.744682e+06   3.904020e+05   0.000000e+00   0.000000e+00   0.000000e+00   1.833133e+06   0.000000e+00   0.000000e+00   0.000000e+00
      720000   7.199990e-06   3.016185e+00   3.307920e+01   1.594059e+01   4.050257e+05   1.744682e+06   3.904020e+05   0.000000e+00   0.000000e+00   0.000000e+00   1.833133e+06   0.000000e+00   0.000000e+00   0.000000e+00
      728000   7.279990e-06   3.048587e+00   3.321878e+01   1.597183e+01   4.050257e+05   1.744682e+06   3.904020e+05   0.000000e+00   0.000000e+00   0.000000e+00   1.833133e+06   0.000000e+00   0.000000e+00   0.000000e+00
      736000   7.359990e-06   3.080989e+00   3.335835e+01   1.600306e+01   4.050257e+05   1.744682e+06   3.904020e+05   0.000000e+00   0.000000e+00   0.000000e+00   1.833133e+06   0.000000e+00   0.000000e+00   0.000000e+00
      744000   7.439990e-06   3.113391e+00   3.349792e+01   1.603429e+01   4.050257e+05   1.744682e+06   3.904020e+05   0.000000e+00   0.000000e+00   0.000000e+00   1.833133e+06   0.000000e+00   0.000000e+00   0.000000e+00
      752000   7.519990e-06   3.145793e+00   3.363750e+01   1.606552e+01   4.050257e+05   1.744682e+06   3.904020e+05   0.000000e+00   0.000000e+00   0.000000e+00   1.833133e+06   0.000000e+00   0.000000e+00   0.000000e+00
      760000   7.599990e-06   3.178195e+00   3.377707e+01   1.609675e+01   4.050257e+05   1.744682e+06   3.904020e+05   0.000000e+00   0.000000e+00   0.000000e+00   1.833133e+06   0.000000e+00   0.000000e+00   0.000000e+00
      768000   7.679990e-06   3.210598e+00   3.391665e+01   1.612799e+01   4.050257e+05   1.744682e+06   3.904020e+05   0.000000e+00   0.000000e+00   0.000000e+00   1.833133e+06   0.000000e+00   0.000000e+00   0.000000e+00
      776000   7.759990e-06   3.243000e+00   3.405622e+01   1.615922e+01   4.050257e+05   1.744682e+06   3.904020e+05   0.000000e+00   0.000000e+00   0.000000e+00   1.833133e+06   0.000000e+00   0.000000e+00   0.000000e+00
      784000   7.839990e-06   3.275402e+00   3.419580e+01   1.619045e+01   4.050257e+05   1.744682e+06   3.904020e+05   0.000000e+00   0.000000e+00   0.000000e+00   1.833133e+06   0.000000e+00   0.000000e+00   0.000000e+00
      792000   7.919990e-06   3.307804e+00   3.433537e+01   1.622168e+01   4.050257e+05   1.744682e+06   3.904020e+05   0.000000e+00   0.000000e+00   0.000000e+00   1.833133e+06   0.000000e+00   0.000000e+00   0.000000e+00
      800000   7.999990e-06   3.340206e+00   3.447495e+01   1.625292e+01   4.050257e+05   1.744682e+06   3.904020e+05   0.000000e+00   0.000000e+00   0.000000e+00   1.833133e+06   0.000000e+00   0.000000e+00   0.000000e+00
      808000   8.079990e-06   3.372608e+00   3.461452e+01   1.628415e+01   4.050257e+05   1.744682e+06   3.904020e+05   0.000000e+00   0.000000e+00   0.000000e+00   1.833133e+06   0.000000e+00   0.000000e+00   0.000000e+00
      816000   8.159990e-06   3.405010e+00   3.475410e+01   1.631538e+01   4.050257e+05   1.744682e+06   3.904020e+05   0.000000e+00   0.000000e+00   0.000000e+00   1.833133e+06   0.000000e+00   0.000000e+00   0.000000e+00
      824000   8.239990e-06   3.437412e+00   3.489367e+01   1.634661e+01   4.050257e+05   1.744682e+06   3.904020e+05   0.000000e+00   0.000000e+00   0.000000e+00   1.833133e+06   0.000000e+00   0.000000e+00   0.000000e+00
      832000   8.319990e-06   3.469814e+00   3.503325e+01   1.637784e+01   4.050257e+05   1.744682e+06   3.904020e+05   0.000000e+00   0.000000e+00   0.000000e+00   1.833133e+06   0.000000e+00   0.000000e+00   0.000000e+00
      840000   8.399990e-06   3.502216e+00   3.517282e+01   1.640908e+01   4.050257e+05   1.744682e+06   3.904020e+05   0.000000e+00   0.000000e+00   0.000000e+00   1.833133e+06   0.000000e+00   0.000000e+00   0.000000e+00
      848000   8.479990e-06   3.534618e+00   3.531239e+01   1.644031e+01   4.050257e+05   1.744682e+06   3.904020e+05   0.000000e+00   0.000000e+00   0.000000e+00   1.833133e+06   0.000000e+00   0.000000e+00   0.000000e+00
      856000   8.559990e-06   3.567020e+00   3.545197e+01   1.647154e+01   4.050257e+05   1.744682e+06   3.904020e+05   0.000000e+00   0.000000e+00   0.000000e+00   1.833133e+06   0.000000e+00   0.000000e+00   0.000000e+00
      864000   8.639990e-06   3.599422e+00   3.559154e+01   1.650277e+01   4.050257e+05   1.744682e+06   3.904020e+05   0.000000e+00   0.000000e+00   0.000000e+00   1.833133e+06   0.000000e+00   0.000000e+00   0.000000e+00
      872000   8.719990e-06   3.631824e+00   3.573112e+01   1.653400e+01   4.050257e+05   1.744682e+06   3.904020e+05   0.000000e+00   0.000000e+00   0.000000e+00   1.833133e+06   0.000000e+00   0.000000e+00   0.000000e+00
      880000   8.799990e-06   3.664226e+00   3.587069e+01   1.656524e+01   4.050257e+05   1.744682e+06   3.904020e+05   0.000000e+00   0.000000e+00   0.000000e+00   1.833133e+06   0.000000e+00   0.000000e+00   0.000000e+00
      888000   8.879990e-06   3.696628e+00   3.601027e+01   1.659647e+01   4.050257e+05   1.744682e+06   3.904020e+05   0.000000e+00   0.000000e+00   0.000000e+00   1.833133e+06   0.000000e+00   0.000000e+00   0.000000e+00
      896000   8.959990e-06   3.729030e+00   3.614984e+01   1.662770e+01   4.050257e+05   1.744682e+06   3.904020e+05   0.000000e+00   0.000000e+00   0.000000e+00   1.833133e+06   0.000000e+00   0.000000e+00   0.000000e+00
      904000   9.039990e-06   3.761432e+00   3.628942e+01   1.665893e+01   4.050257e+05   1.744682e+06   3.904020e+05   0.000000e+00   0.000000e+00   0.000000e+00   1.833133e+06   0.000000e+00   0.000000e+00   0.000000e+00
      912000   9.119990e-06   3.793835e+00   3.642899e+01   1.669017e+01   4.050257e+05   1.744682e+06   3.904020e+05   0.000000e+00   0.000000e+00   0.000000e+00   1.833133e+06   0.000000e+00   0.000000e+00   0.000000e+00
      920000   9.199990e-06   3.826237e+00   3.656857e+01   1.672140e+01   4.050257e+05   1.744682e+06   3.904020e+05   0.000000e+00   0.000000e+00   0.000000e+00   1.833133e+06   0.000000e+00   0.000000e+00   0.000000e+00
      928000   9.279990e-06   3.858639e+00   3.670814e+01   1.675263e+01   4.050257e+05   1.744682e+06   3.904020e+05   0.000000e+00   0.000000e+00   0.000000e+00   1.833133e+06   0.000000e+00   0.000000e+00   0.000000e+00
      936000   9.359990e-06   3.891041e+00   3.684771e+01   1.678386e+01   4.050257e+05   1.744682e+06   3.904020e+05   0.000000e+00   0.000000e+00   0.000000e+00   1.833133e+06   0.000000e+00   0.000000e+00   0.000000e+00
      944000   9.439990e-06   3.923443e+00   3.698729e+01   1.681509e+01   4.050257e+05   1.744682e+06   3.904020e+05   0.000000e+00   0.000000e+00   0.000000e+00   1.833133e+06   0.000000e+00   0.000000e+00   0.000000e+00
      952000   9.519990e-06   3.955845e+00   3.712686e+01   1.684633e+01   4.050257e+05   1.744682e+06   3.904020e+05   0.000000e+00   0.000000e+00   0.000000e+00   1.833133e+06   0.000000e+00   0.000000e+00   0.000000e+00
      960000   9.599990e-06   3.988247e+00   3.726644e+01   1.687756e+01   4.050257e+05   1.744682e+06   3.904020e+05   0.000000e+00   0.000000e+00   0.000000e+00   1.833133e+06   0.000000e+00   0.000000e+00   0.000000e+00
      968000   9.679990e-06   4.020649e+00   3.740601e+01   1.690879e+01   4.050257e+05   1.744682e+06   3.904020e+05   0.000000e+00   0.000000e+00   0.000000e+00   1.833133e+06   0.000000e+00   0.000000e+00   0.000000e+00
      976000   9.759990e-06   4.053051e+00   3.754559e+01   1.694002e+01   4.050257e+05   1.744682e+06   3.904020e+05   0.000000e+00   0.000000e+00   0.000000e+00   1.833133e+06   0.000000e+00   0.000000e+00   0.000000e+00
      984000   9.839990e-06   4.085453e+00   3.768516e+01   1.697126e+01   4.050257e+05   1.744682e+06   3.904020e+05   0.000000e+00   0.000000e+00   0.000000e+00   1.833133e+06   0.000000e+00   0.000000e+00   0.000000e+00
      992000   9.919990e-06   4.117855e+00   3.782474e+01   1.700249e+01   4.050257e+05   1.744682e+06   3.904020e+05   0.000000e+00   0.000000e+00   0.000000e+00   1.833133e+06   0.000000e+00   0.000000e+00   0.000000e+00
     1000000   9.999990e-06   4.150257e+00   3.796431e+01   1.703372e+01   4.050257e+05   1.744682e+06   3.904020e+05   0.000000e+00   0.000000e+00   0.000000e+00   1.833133e+06   0.000000e+00   0.000000e+00   0.000000e+00
     1008000   1.007999e-05   4.182659e+00   3.810389e+01   1.706495e+01   4.050257e+05   1.744682e+06   3.904020e+05   0.000000e+00   0.000000e+00   0.000000e+00   1.833133e+06   0.000000e+00   0.000000e+00   0.000000e+00
     1016000   1.015999e-05   4.215061e+00   3.824346e+01   1.709618e+01   4.050257e+05   1.744682e+06   3.904020e+05   0.000000e+00   0.000000e+00   0.000000e+00   1.833133e+06   0.000000e+00   0.000000e+00   0.000000e+00
     1024000   1.023999e-05   4.247463e+00   3.838303e+01   1.712742e+01   4.050257e+05   1.744682e+06   3.904020e+05   0.000000e+00   0.000000e+00   0.000000e+00   1.833133e+06   0.000000e+00   0.000000e+00   0.000000e+00
     1032000   1.031999e-05   4.279865e+00   3.852261e+01   1.715865e+01   4.050257e+05   1.744682e+06   3.904020e+05   0.000000e+00   0.000000e+00   0.000000e+00   1.833133e+06   0.000000e+00   0.000000e+00   0.000000e+00
     1040000   1.039999e-05   4.312267e+00   3.866218e+01   1.718988e+01   4.050257e+05   1.744682e+06   3.904020e+05   0.000000e+00   0.000000e+00   0.000000e+00   1.833133e+06   0.000000e+00   0.000000e+00   0.000000e+00
     1048000   1.047999e-05   4.344670e+00   3.880176e+01   1.722111e+01   4.050257e+05   1.744682e+06   3.904020e+05   0.000000e+00   0.000000e+00   0.000000e+00   1.833133e+06   0.000000e+00   0.000000e+00   0.000000e+00
     1056000   1.055999e-05   4.377072e+00   3.894133e+01   1.725234e+01   4.050257e+05   1.744682e+06   3.904020e+05   0.000000e+00   0.000000e+00   0.000000e+00   1.833133e+06   0.000000e+00   0.000000e+00   0.000000e+00
     1064000   1.063999e-05   4.409474e+00   3.908091e+01   1.728358e+01   4.050257e+05   1.744682e+06   3.904020e+05   0.000000e+00   0.000000e+00   0.000000e+00   1.833133e+06   0.000000e+00   0.000000e+00   0.000000e+00
     1072000   1.071999e-05   4.441876e+00   3.922048e+01   1.731481e+01   4.050257e+05   1.744682e+06   3.904020e+05   0.000000e+00   0.000000e+00   0.000000e+00   1.833133e+06   0.000000e+00   0.000000e+00   0.000000e+00
     1080000   1.079999e-05   4.474278e+00   3.936006e+01   1.734604e+01   4.050257e+05   1.744682e+06   3.904020e+05   0.000000e+00   0.000000e+00   0.000000e+00   1.833133e+06   0.000000e+00   0.000000e+00   0.000000e+00
     1088000   1.087999e-05   4.506680e+00   3.949963e+01   1.737727e+01   4.050257e+05   1.744682e+06   3.904020e+05   0.000000e+00   0.000000e+00   0.000000e+00   1.833133e+06   0.000000e+00   0.000000e+00   0.000000e+00
     1096000   1.095999e-05   4.539082e+00   3.963921e+01   1.740851e+01   4.050257e+05   1.744682e+06   3.904020e+05   0.000000e+00   0.000000e+00   0.000000e+00   1.833133e+06   0.000000e+00   0.000000e+00   0.000000e+00
     1104000   1.103999e-05   4.571484e+00   3.977878e+01   1.743974e+01   4.050257e+05   1.744682e+06   3.904020e+05   0.000000e+00   0.000000e+00   0.000000e+00   1.833133e+06   0.000000e+00   0.000000e+00   0.000000e+00
     1112000   1.111999e-05   4.603886e+00   3.991836e+01   1.747097e+01   4.050257e+05   1.744682e+06   3.904020e+05   0.000000e+00   0.000000e+00   0.000000e+00   1.833133e+06   0.000000e+00   0.000000e+00   0.000000e+00
     1120000   1.119999e-05   4.636288e+00   4.005793e+01   1.750220e+01   4.050257e+05   1.744682e+06   3.904020e+05   0.000000e+00   0.000000e+00   0.000000e+00   1.833133e+06   0.000000e+00   0.000000e+00   0.000000e+00
     1128000   1.127999e-05   4.668690e+00   4.019750e+01   1.753343e+01   4.050257e+05   1.744682e+06   3.904020e+05   0.000000e+00   0.000000e+00   0.000000e+00   1.833133e+06   0.000000e+00   0.000000e+00   0.000000e+00
     1136000   1.135999e-05   4.701092e+00   4.033708e+01   1.756467e+01   4.050257e+05   1.744682e+06   3.904020e+05   0.000000e+00   0.000000e+00   0.000000e+00   1.833133e+06   0.000000e+00   0.000000e+00   0.000000e+00
     1144000   1.143999e-05   4.733494e+00   4.047665e+01   1.759590e+01   4.050257e+05   1.744682e+06   3.904020e+05   0.000000e+00   0.000000e+00   0.000000e+00   1.833133e+06   0.000000e+00   0.000000e+00   0.000000e+00
     1152000   1.151999e-05   4.765896e+00   4.061623e+01   1.762713e+01   4.050257e+05   1.744682e+06   3.904020e+05   0.000000e+00   0.000000e+00   0.000000e+00   1.833133e+06   0.000000e+00   0.000000e+00   0.000000e+00
     1160000   1.159999e-05   4.798298e+00   4.075580e+01   1.765836e+01   4.050257e+05   1.744682e+06   3.904020e+05   0.000000e+00   0.000000e+00   0.000000e+00   1.833133e+06   0.000000e+00   0.000000e+00   0.000000e+00
     1168000   1.167999e-05   4.830700e+00   4.089538e+01   1.768959e+01   4.050257e+05   1.744682e+06   3.904020e+05   0.000000e+00   0.000000e+00   0.000000e+00   1.833133e+06   0.000000e+00   0.000000e+00   0.000000e+00
     1176000   1.175999e-05   4.863102e+00   4.103495e+01   1.772083e+01   4.050257e+05   1.744682e+06   3.904020e+05   0.000000e+00   0.000000e+00   0.000000e+00   1.833133e+06   0.000000e+00   0.000000e+00   0.000000e+00
     1184000   1.183999e-05   4.895505e+00   4.117453e+01   1.775206e+01   4.050257e+05   1.744682e+06   3.904020e+05   0.000000e+00   0.000000e+00   0.000000e+00   1.833133e+06   0.000000e+00   0.000000e+00   0.000000e+00
     1192000   1.191999e-05   4.927907e+00   4.131410e+01   1.778329e+01   4.050257e+05   1.744682e+06   3.904020e+05   0.000000e+00   0.000000e+00   0.000000e+00   1.833133e+06   0.000000e+00   0.000000e+00   0.000000e+00
     1200000   1.199999e-05   4.960309e+00   4.145368e+01   1.781452e+01   4.050257e+05   1.744682e+06   3.904020e+05   0.000000e+00   0.000000e+00   0.000000e+00   1.833133e+06   0.000000e+00   0.000000e+00   0.000000e+00
     1208000   1.207999e-05   4.992711e+00   4.159325e+01   1.784576e+01   4.050257e+05   1.744682e+06   3.904020e+05   0.000000e+00   0.000000e+00   0.000000e+00   1.833133e+06   0.000000e+00   0.000000e+00   0.000000e+00
     1216000   1.215999e-05   5.025113e+00   4.173282e+01   1.787699e+01   4.050257e+05   1.744682e+06   3.904020e+05   0.000000e+00   0.000000e+00   0.000000e+00   1.833133e+06   0.000000e+00   0.000000e+00   0.000000e+00
     1224000   1.223999e-05   5.057515e+00   4.187240e+01   1.790822e+01   4.050257e+05   1.744682e+06   3.904020e+05   0.000000e+00   0.000000e+00   0.000000e+00   1.833133e+06   0.000000e+00   0.000000e+00   0.000000e+00
     1232000   1.231999e-05   5.089917e+00   4.201197e+01   1.793945e+01   4.050257e+05   1.744682e+06   3.904020e+05   0.000000e+00   0.000000e+00   0.000000e+00   1.833133e+06   0.000000e+00   0.000000e+00   0.000000e+00
     1240000   1.239999e-05   5.122319e+00   4.215155e+01   1.797068e+01   4.050257e+05   1.744682e+06   3.904020e+05   0.000000e+00   0.000000e+00   0.000000e+00   1.833133e+06   0.000000e+00   0.000000e+00   0.000000e+00
     1248000   1.247999e-05   5.154721e+00   4.229112e+01   1.800192e+01   4.050257e+05   1.744682e+06   3.904020e+05   0.000000e+00   0.000000e+00   0.000000e+00   1.833133e+06   0.000000e+00   0.000000e+00   0.000000e+00
     1256000   1.255999e-05   5.187123e+00   4.243070e+01   1.803315e+01   4.050257e+05   1.744682e+06   3.904020e+05   0.000000e+00   0.000000e+00   0.000000e+00   1.833133e+06   0.000000e+00   0.000000e+00   0.000000e+00
     1264000   1.263999e-05   5.219525e+00   4.257027e+01   1.806438e+01   4.050257e+05   1.744682e+06   3.904020e+05   0.000000e+00   0.000000e+00   0.000000e+00   1.833133e+06   0.000000e+00   0.000000e+00   0.000000e+00
     1272000   1.271999e-05   5.251927e+00   4.270985e+01   1.809561e+01   4.050257e+05   1.744682e+06   3.904020e+05   0.000000e+00   0.000000e+00   0.000000e+00   1.833133e+06   0.000000e+00   0.000000e+00   0.000000e+00
     1280000   1.279999e-05   5.284329e+00   4.284942e+01   1.812685e+01   4.050257e+05   1.744682e+06   3.904020e+05   0.000000e+00   0.000000e+00   0.000000e+00   1.833133e+06   0.000000e+00   0.000000e+00   0.000000e+00
     1288000   1.287999e-05   5.316731e+00   4.298900e+01   1.815808e+01   4.050257e+05   1.744682e+06   3.904020e+05   0.000000e+00   0.000000e+00   0.000000e+00   1.833133e+06   0.000000e+00   0.000000e+00   0.000000e+00
     1296000   1.295999e-05   5.349133e+00   4.312857e+01   1.818931e+01   4.050257e+05   1.744682e+06   3.904020e+05   0.000000e+00   0.000000e+00   0.000000e+00   1.833133e+06   0.000000e+00   0.000000e+00   0.000000e+00
     1304000   1.303999e-05   5.381535e+00   4.326814e+01   1.822054e+01   4.050257e+05   1.744682e+06   3.904020e+05   0.000000e+00   0.000000e+00   0.000000e+00   1.833133e+06   0.000000e+00   0.000000e+00   0.000000e+00
     1312000   1.311999e-05   5.413937e+00   4.340772e+01   1.825177e+01   4.050257e+05   1.744682e+06   3.904020e+05   0.000000e+00   0.000000e+00   0.000000e+00   1.833133e+06   0.000000e+00   0.000000e+00   0.000000e+00
     1320000   1.319999e-05   5.446339e+00   4.354729e+01   1.828301e+01   4.050257e+05   1.744682e+06   3.904020e+05   0.000000e+00   0.000000e+00   0.000000e+00   1.833133e+06   0.000000e+00   0.000000e+00   0.000000e+00
     1328000   1.327999e-05   5.478742e+00   4.368687e+01   1.831424e+01   4.050257e+05   1.744682e+06   3.904020e+05   0.000000e+00   0.000000e+00   0.000000e+00   1.833133e+06   0.000000e+00   0.000000e+00   0.000000e+00
     1336000   1.335999e-05   5.511144e+00   4.382644e+01   1.834547e+01   4.050257e+05   1.744682e+06   3.904020e+05   0.000000e+00   0.000000e+00   0.000000e+00   1.833133e+06   0.000000e+00   0.000000e+00   0.000000e+00
     1344000   1.343999e-05   5.543546e+00   4.396602e+01   1.837670e+01   4.050257e+05   1.744682e+06   3.904020e+05   0.000000e+00   0.000000e+00   0.000000e+00   1.833133e+06   0.000000e+00   0.000000e+00   0.000000e+00
     1352000   1.351999e-05   5.575948e+00   4.410559e+01   1.840793e+01   4.050257e+05   1.744682e+06   3.904020e+05   0.000000e+00   0.000000e+00   0.000000e+00   1.833133e+06   0.000000e+00   0.000000e+00   0.000000e+00
     1360000   1.359999e-05   5.608350e+00   4.424517e+01   1.843917e+01   4.050257e+05   1.744682e+06   3.904020e+05   0.000000e+00   0.000000e+00   0.000000e+00   1.833133e+06   0.000000e+00   0.000000e+00   0.000000e+00
     1368000   1.367999e-05   5.640752e+00   4.438474e+01   1.847040e+01   4.050257e+05   1.744682e+06   3.904020e+05   0.000000e+00   0.000000e+00   0.000000e+00   1.833133e+06   0.000000e+00   0.000000e+00   0.000000e+00
     1376000   1.375999e-05   5.673154e+00   4.452432e+01   1.850163e+01   4.050257e+05   1.744682e+06   3.904020e+05   0.000000e+00   0.000000e+00   0.000000e+00   1.833133e+06   0.000000e+00   0.000000e+00   0.000000e+00
     1384000   1.383999e-05   5.705556e+00   4.466389e+01   1.853286e+01   4.050257e+05   1.744682e+06   3.904020e+05   0.000000e+00   0.000000e+00   0.000000e+00   1.833133e+06   0.000000e+00   0.000000e+00   0.000000e+00
     1392000   1.391999e-05   5.737958e+00   4.480346e+01   1.856410e+01   4.050257e+05   1.744682e+06   3.904020e+05   0.000000e+00   0.000000e+00   0.000000e+00   1.833133e+06   0.000000e+00   0.000000e+00   0.000000e+00
     1400000   1.399999e-05   5.770360e+00   4.494304e+01   1.859533e+01   4.050257e+05   1.744682e+06   3.904020e+05   0.000000e+00   0.000000e+00   0.000000e+00   1.833133e+06   0.000000e+00   0.000000e+00   0.000000e+00
     1408000   1.407999e-05   5.802762e+00   4.508261e+01   1.862656e+01   4.050257e+05   1.744682e+06   3.904020e+05   0.000000e+00   0.000000e+00   0.000000e+00   1.833133e+06   0.000000e+00   0.000000e+00   0.000000e+00
     1416000   1.415999e-05   5.835164e+00   4.522219e+01   1.865779e+01   4.050257e+05   1.744682e+06   3.904020e+05   0.000000e+00   0.000000e+00   0.000000e+00   1.833133e+06   0.000000e+00   0.000000e+00   0.000000e+00
     1424000   1.423999e-05   5.867566e+00   4.536176e+01   1.868902e+01   4.050257e+05   1.744682e+06   3.904020e+05   0.000000e+00   0.000000e+00   0.000000e+00   1.833133e+06   0.000000e+00   0.000000e+00   0.000000e+00
     1432000   1.431999e-05   5.899968e+00   4.550134e+01   1.872026e+01   4.050257e+05   1.744682e+06   3.904020e+05   0.000000e+00   0.000000e+00   0.000000e+00   1.833133e+06   0.000000e+00   0.000000e+00   0.000000e+00
     1440000   1.439999e-05   5.932370e+00   4.564091e+01   1.875149e+01   4.050257e+05   1.744682e+06   3.904020e+05   0.000000e+00   0.000000e+00   0.000000e+00   1.833133e+06   0.000000e+00   0.000000e+00   0.000000e+00
     1448000   1.447999e-05   5.964772e+00   4.578049e+01   1.878272e+01   4.050257e+05   1.744682e+06   3.904020e+05   0.000000e+00   0.000000e+00   0.000000e+00   1.833133e+06   0.000000e+00   0.000000e+00   0.000000e+00
     1456000   1.455999e-05   5.997174e+00   4.592006e+01   1.881395e+01   4.050257e+05   1.744682e+06   3.904020e+05   0.000000e+00   0.000000e+00   0.000000e+00   1.833133e+06   0.000000e+00   0.000000e+00   0.000000e+00
     1464000   1.463999e-05   6.029577e+00   4.605964e+01   1.884518e+01   4.050257e+05   1.744682e+06   3.904020e+05   0.000000e+00   0.000000e+00   0.000000e+00   1.833133e+06   0.000000e+00   0.000000e+00   0.000000e+00
     1472000   1.471999e-05   6.061979e+00   4.619921e+01   1.887642e+01   4.050257e+05   1.744682e+06   3.904020e+05   0.000000e+00   0.000000e+00   0.000000e+00   1.833133e+06   0.000000e+00   0.000000e+00   0.000000e+00
     1480000   1.479999e-05   6.094381e+00   4.633879e+01   1.890765e+01   4.050257e+05   1.744682e+06   3.904020e+05   0.000000e+00   0.000000e+00   0.000000e+00   1.833133e+06   0.000000e+00   0.000000e+00   0.000000e+00
     1488000   1.487999e-05   6.126783e+00   4.647836e+01   1.893888e+01   4.050257e+05   1.744682e+06   3.904020e+05   0.000000e+00   0.000000e+00   0.000000e+00   1.833133e+06   0.000000e+00   0.000000e+00   0.000000e+00
     1496000   1.495999e-05   6.159185e+00   4.661793e+01   1.897011e+01   4.050257e+05   1.744682e+06   3.904020e+05   0.000000e+00   0.000000e+00   0.000000e+00   1.833133e+06   0.000000e+00   0.000000e+00   0.000000e+00
     1504000   1.503999e-05   6.191587e+00   4.675751e+01   1.900135e+01   4.050257e+05   1.744682e+06   3.904020e+05   0.000000e+00   0.000000e+00   0.000000e+00   1.833133e+06   0.000000e+00   0.000000e+00   0.000000e+00
     1512000   1.511999e-05   6.223989e+00   4.689708e+01   1.903258e+01   4.050257e+05   1.744682e+06   3.904020e+05   0.000000e+00   0.000000e+00   0.000000e+00   1.833133e+06   0.000000e+00   0.000000e+00   0.000000e+00
     1520000   1.519999e-05   6.256391e+00   4.703666e+01   1.906381e+01   4.050257e+05   1.744682e+06   3.904020e+05   0.000000e+00   0.000000e+00   0.000000e+00   1.833133e+06   0.000000e+00   0.000000e+00   0.000000e+00
     1528000   1.527999e-05   6.288793e+00   4.717623e+01   1.909504e+01   4.050257e+05   1.744682e+06   3.904020e+05   0.000000e+00   0.000000e+00   0.000000e+00   1.833133e+06   0.000000e+00   0.000000e+00   0.000000e+00
     1536000   1.535999e-05   6.321195e+00   4.731581e+01   1.912627e+01   4.050257e+05   1.744682e+06   3.904020e+05   0.000000e+00   0.000000e+00   0.000000e+00   1.833133e+06   0.000000e+00   0.000000e+00   0.000000e+00
     1544000   1.543999e-05   6.353597e+00   4.745538e+01   1.915751e+01   4.050257e+05   1.744682e+06   3.904020e+05   0.000000e+00   0.000000e+00   0.000000e+00   1.833133e+06   0.000000e+00   0.000000e+00   0.000000e+00
     1552000   1.551999e-05   6.385999e+00   4.759496e+01   1.918874e+01   4.050257e+05   1.744682e+06   3.904020e+05   0.000000e+00   0.000000e+00   0.000000e+00   1.833133e+06   0.000000e+00   0.000000e+00   0.000000e+00
     1560000   1.559999e-05   6.418401e+00   4.773453e+01   1.921997e+01   4.050257e+05   1.744682e+06   3.904020e+05   0.000000e+00   0.000000e+00   0.000000e+00   1.833133e+06   0.000000e+00   0.000000e+00   0.000000e+00
     1568000   1.567999e-05   6.450803e+00   4.787411e+01   1.925120e+01   4.050257e+05   1.744682e+06   3.904020e+05   0.000000e+00   0.000000e+00   0.000000e+00   1.833133e+06   0.000000e+00   0.000000e+00   0.000000e+00
     1576000   1.575999e-05   6.483205e+00   4.801368e+01   1.928244e+01   4.050257e+05   1.744682e+06   3.904020e+05   0.000000e+00   0.000000e+00   0.000000e+00   1.833133e+06   0.000000e+00   0.000000e+00   0.000000e+00
     1584000   1.583999e-05   6.515607e+00   4.815325e+01   1.931367e+01   4.050257e+05   1.744682e+06   3.904020e+05   0.000000e+00   0.000000e+00   0.000000e+00   1.833133e+06   0.000000e+00   0.000000e+00   0.000000e+00
     1592000   1.591999e-05   6.548009e+00   4.829283e+01   1.934490e+01   4.050257e+05   1.744682e+06   3.904020e+05   0.000000e+00   0.000000e+00   0.000000e+00   1.833133e+06   0.000000e+00   0.000000e+00   0.000000e+00
     1600000   1.599999e-05   6.580411e+00   4.843240e+01   1.937613e+01   4.050257e+05   1.744682e+06   3.904020e+05   0.000000e+00   0.000000e+00   0.000000e+00   1.833133e+06   0.000000e+00   0.000000e+00   0.000000e+00
     1608000   1.607999e-05   6.612814e+00   4.857198e+01   1.940736e+01   4.050257e+05   1.744682e+06   3.904020e+05   0.000000e+00   0.000000e+00   0.000000e+00   1.833133e+06   0.000000e+00   0.000000e+00   0.000000e+00
     1616000   1.615999e-05   6.645216e+00   4.871155e+01   1.943860e+01   4.050257e+05   1.744682e+06   3.904020e+05   0.000000e+00   0.000000e+00   0.000000e+00   1.833133e+06   0.000000e+00   0.000000e+00   0.000000e+00
     1624000   1.623999e-05   6.677618e+00   4.885113e+01   1.946983e+01   4.050257e+05   1.744682e+06   3.904020e+05   0.000000e+00   0.000000e+00   0.000000e+00   1.833133e+06   0.000000e+00   0.000000e+00   0.000000e+00
     1632000   1.631999e-05   6.710020e+00   4.899070e+01   1.950106e+01   4.050257e+05   1.744682e+06   3.904020e+05   0.000000e+00   0.000000e+00   0.000000e+00   1.833133e+06   0.000000e+00   0.000000e+00   0.000000e+00
     1640000   1.639999e-05   6.742422e+00   4.913028e+01   1.953229e+01   4.050258e+05   1.744682e+06   3.904018e+05   0.000000e+00   0.000000e+00   0.000000e+00   1.833133e+06   0.000000e+00   0.000000e+00   0.000000e+00
     1648000   1.647999e-05   6.774824e+00   4.926985e+01   1.956352e+01   4.050259e+05   1.744682e+06   3.904012e+05   3.998201e+06   2.994538e+06  -1.753041e+07   1.833133e+06   2.689272e-27   0.000000e+00   0.000000e+00
     1656000   1.655999e-05   6.807226e+00   4.940943e+01   1.959476e+01   4.050261e+05   1.744682e+06   3.904006e+05   0.000000e+00   0.000000e+00   0.000000e+00   1.833133e+06   0.000000e+00   0.000000e+00   0.000000e+00
     1664000   1.663999e-05   6.839628e+00   4.954900e+01   1.962599e+01   4.050265e+05   1.744683e+06   3.903985e+05   4.020763e+06   2.958367e+06  -1.739230e+07   1.833133e+06   2.651413e-27   0.000000e+00   0.000000e+00
     1672000   1.671999e-05   6.872030e+00   4.968857e+01   1.965722e+01   4.050280e+05   1.744684e+06   3.903921e+05   3.536564e+07   2.588087e+07  -1.523545e+08   1.833133e+06   2.034037e-25   0.000000e+00   0.000000e+00
     1680000   1.679999e-05   6.904432e+00   4.982815e+01   1.968845e+01   4.050289e+05   1.744685e+06   3.903878e+05   1.549237e+07   1.119931e+07  -6.612428e+07   1.833133e+06   3.835568e-26   0.000000e+00   0.000000e+00
     1688000   1.687999e-05   6.936835e+00   4.996772e+01   1.971968e+01   4.050293e+05   1.744685e+06   3.903857e+05   0.000000e+00   0.000000e+00   0.000000e+00   1.833133e+06   0.000000e+00   0.000000e+00   0.000000e+00
