     timestep     time              x             y              z              vx             vy             vz             ax             ay             az         v_magnitude      ELoss        Electronic      Nuclear
           0   0.000000e+00   1.000000e-01   1.692941e+01   1.561769e+01   1.006113e+06   9.043115e+05   7.042573e+05   0.000000e+00   0.000000e+00   0.000000e+00   1.525130e+06   0.000000e+00   0.000000e+00   0.000000e+00
        8000   7.999000e-08   1.804890e-01   1.700175e+01   1.567403e+01   1.006113e+06   9.043115e+05   7.042573e+05   0.000000e+00   0.000000e+00   0.000000e+00   1.525130e+06   0.000000e+00   0.000000e+00   0.000000e+00
       16000   1.599900e-07   2.609780e-01   1.707410e+01   1.573037e+01   1.006113e+06   9.043115e+05   7.042573e+05   0.000000e+00   0.000000e+00   0.000000e+00   1.525130e+06   0.000000e+00   0.000000e+00   0.000000e+00
       24000   2.399900e-07   3.414670e-01   1.714644e+01   1.578671e+01   1.006113e+06   9.043115e+05   7.042573e+05   0.000000e+00   0.000000e+00   0.000000e+00   1.525130e+06   0.000000e+00   0.000000e+00   0.000000e+00
       32000   3.199900e-07   4.219560e-01   1.721879e+01   1.584305e+01   1.006113e+06   9.043115e+05   7.042573e+05   0.000000e+00   0.000000e+00   0.000000e+00   1.525130e+06   0.000000e+00   0.000000e+00   0.000000e+00
       40000   3.999900e-07   5.024450e-01   1.729113e+01   1.589939e+01   1.006113e+06   9.043115e+05   7.042573e+05   0.000000e+00   0.000000e+00   0.000000e+00   1.525130e+06   0.000000e+00   0.000000e+00   0.000000e+00
       48000   4.799900e-07   5.829340e-01   1.736348e+01   1.595573e+01   1.006113e+06   9.043115e+05   7.042573e+05   0.000000e+00   0.000000e+00   0.000000e+00   1.525130e+06   0.000000e+00   0.000000e+00   0.000000e+00
       56000   5.599900e-07   6.634230e-01   1.743582e+01   1.601207e+01   1.006113e+06   9.043115e+05   7.042573e+05   0.000000e+00   0.000000e+00   0.000000e+00   1.525130e+06   0.000000e+00   0.000000e+00   0.000000e+00
       64000   6.399900e-07   7.439120e-01   1.750817e+01   1.606841e+01   1.006113e+06   9.043115e+05   7.042573e+05   0.000000e+00   0.000000e+00   0.000000e+00   1.525130e+06   0.000000e+00   0.000000e+00   0.000000e+00
       72000   7.199900e-07   8.244010e-01   1.758051e+01   1.612475e+01   1.006113e+06   9.043115e+05   7.042573e+05   0.000000e+00   0.000000e+00   0.000000e+00   1.525130e+06   0.000000e+00   0.000000e+00   0.000000e+00
       80000   7.999900e-07   9.048900e-01   1.765286e+01   1.618109e+01   1.006113e+06   9.043115e+05   7.042573e+05   0.000000e+00   0.000000e+00   0.000000e+00   1.525130e+06   0.000000e+00   0.000000e+00   0.000000e+00
       88000   8.799900e-07   9.853790e-01   1.772520e+01   1.623743e+01   1.006113e+06   9.043115e+05   7.042573e+05   0.000000e+00   0.000000e+00   0.000000e+00   1.525130e+06   0.000000e+00   0.000000e+00   0.000000e+00
       96000   9.599900e-07   1.065868e+00   1.779755e+01   1.629377e+01   1.006113e+06   9.043115e+05   7.042573e+05   0.000000e+00   0.000000e+00   0.000000e+00   1.525130e+06   0.000000e+00   0.000000e+00   0.000000e+00
      104000   1.039990e-06   1.146357e+00   1.786989e+01   1.635012e+01   1.006113e+06   9.043115e+05   7.042573e+05   0.000000e+00   0.000000e+00   0.000000e+00   1.525130e+06   0.000000e+00   0.000000e+00   0.000000e+00
      112000   1.119990e-06   1.226846e+00   1.794224e+01   1.640646e+01   1.006113e+06   9.043115e+05   7.042573e+05   0.000000e+00   0.000000e+00   0.000000e+00   1.525130e+06   0.000000e+00   0.000000e+00   0.000000e+00
      120000   1.199990e-06   1.307335e+00   1.801458e+01   1.646280e+01   1.006113e+06   9.043115e+05   7.042573e+05   0.000000e+00   0.000000e+00   0.000000e+00   1.525130e+06   0.000000e+00   0.000000e+00   0.000000e+00
      128000   1.279990e-06   1.387824e+00   1.808693e+01   1.651914e+01   1.006113e+06   9.043115e+05   7.042573e+05   0.000000e+00   0.000000e+00   0.000000e+00   1.525130e+06   0.000000e+00   0.000000e+00   0.000000e+00
      136000   1.359990e-06   1.468313e+00   1.815927e+01   1.657548e+01   1.006113e+06   9.043115e+05   7.042573e+05   0.000000e+00   0.000000e+00   0.000000e+00   1.525130e+06   0.000000e+00   0.000000e+00   0.000000e+00
      144000   1.439990e-06   1.548802e+00   1.823162e+01   1.663182e+01   1.006113e+06   9.043115e+05   7.042573e+05   0.000000e+00   0.000000e+00   0.000000e+00   1.525130e+06   0.000000e+00   0.000000e+00   0.000000e+00
      152000   1.519990e-06   1.629291e+00   1.830396e+01   1.668816e+01   1.006113e+06   9.043115e+05   7.042573e+05   0.000000e+00   0.000000e+00   0.000000e+00   1.525130e+06   0.000000e+00   0.000000e+00   0.000000e+00
      160000   1.599990e-06   1.709780e+00   1.837631e+01   1.674450e+01   1.006113e+06   9.043115e+05   7.042573e+05   0.000000e+00   0.000000e+00   0.000000e+00   1.525130e+06   0.000000e+00   0.000000e+00   0.000000e+00
      168000   1.679990e-06   1.790269e+00   1.844865e+01   1.680084e+01   1.006113e+06   9.043115e+05   7.042573e+05   0.000000e+00   0.000000e+00   0.000000e+00   1.525130e+06   0.000000e+00   0.000000e+00   0.000000e+00
      176000   1.759990e-06   1.870758e+00   1.852100e+01   1.685718e+01   1.006113e+06   9.043115e+05   7.042573e+05   0.000000e+00   0.000000e+00   0.000000e+00   1.525130e+06   0.000000e+00   0.000000e+00   0.000000e+00
      184000   1.839990e-06   1.951247e+00   1.859334e+01   1.691352e+01   1.006113e+06   9.043115e+05   7.042573e+05   0.000000e+00   0.000000e+00   0.000000e+00   1.525130e+06   0.000000e+00   0.000000e+00   0.000000e+00
      192000   1.919990e-06   2.031736e+00   1.866569e+01   1.696986e+01   1.006113e+06   9.043115e+05   7.042573e+05   0.000000e+00   0.000000e+00   0.000000e+00   1.525130e+06   0.000000e+00   0.000000e+00   0.000000e+00
      200000   1.999990e-06   2.112225e+00   1.873803e+01   1.702620e+01   1.006113e+06   9.043115e+05   7.042573e+05   0.000000e+00   0.000000e+00   0.000000e+00   1.525130e+06   0.000000e+00   0.000000e+00   0.000000e+00
      208000   2.079990e-06   2.192714e+00   1.881038e+01   1.708254e+01   1.006113e+06   9.043115e+05   7.042573e+05   0.000000e+00   0.000000e+00   0.000000e+00   1.525130e+06   0.000000e+00   0.000000e+00   0.000000e+00
      216000   2.159990e-06   2.273203e+00   1.888272e+01   1.713888e+01   1.006113e+06   9.043115e+05   7.042573e+05   0.000000e+00   0.000000e+00   0.000000e+00   1.525130e+06   0.000000e+00   0.000000e+00   0.000000e+00
      224000   2.239990e-06   2.353692e+00   1.895507e+01   1.719522e+01   1.006113e+06   9.043115e+05   7.042573e+05   0.000000e+00   0.000000e+00   0.000000e+00   1.525130e+06   0.000000e+00   0.000000e+00   0.000000e+00
      232000   2.319990e-06   2.434181e+00   1.902741e+01   1.725156e+01   1.006113e+06   9.043115e+05   7.042573e+05   0.000000e+00   0.000000e+00   0.000000e+00   1.525130e+06   0.000000e+00   0.000000e+00   0.000000e+00
      240000   2.399990e-06   2.514670e+00   1.909976e+01   1.730791e+01   1.006113e+06   9.043115e+05   7.042573e+05   0.000000e+00   0.000000e+00   0.000000e+00   1.525130e+06   0.000000e+00   0.000000e+00   0.000000e+00
      248000   2.479990e-06   2.595159e+00   1.917210e+01   1.736425e+01   1.006113e+06   9.043115e+05   7.042573e+05   0.000000e+00   0.000000e+00   0.000000e+00   1.525130e+06   0.000000e+00   0.000000e+00   0.000000e+00
      256000   2.559990e-06   2.675648e+00   1.924445e+01   1.742059e+01   1.006113e+06   9.043115e+05   7.042573e+05   0.000000e+00   0.000000e+00   0.000000e+00   1.525130e+06   0.000000e+00   0.000000e+00   0.000000e+00
      264000   2.639990e-06   2.756137e+00   1.931679e+01   1.747693e+01   1.006113e+06   9.043115e+05   7.042573e+05   0.000000e+00   0.000000e+00   0.000000e+00   1.525130e+06   0.000000e+00   0.000000e+00   0.000000e+00
      272000   2.719990e-06   2.836626e+00   1.938914e+01   1.753327e+01   1.006113e+06   9.043115e+05   7.042573e+05   0.000000e+00   0.000000e+00   0.000000e+00   1.525130e+06   0.000000e+00   0.000000e+00   0.000000e+00
      280000   2.799990e-06   2.917115e+00   1.946148e+01   1.758961e+01   1.006113e+06   9.043115e+05   7.042573e+05   0.000000e+00   0.000000e+00   0.000000e+00   1.525130e+06   0.000000e+00   0.000000e+00   0.000000e+00
      288000   2.879990e-06   2.997604e+00   1.953383e+01   1.764595e+01   1.006113e+06   9.043115e+05   7.042573e+05   0.000000e+00   0.000000e+00   0.000000e+00   1.525130e+06   0.000000e+00   0.000000e+00   0.000000e+00
      296000   2.959990e-06   3.078093e+00   1.960617e+01   1.770229e+01   1.006113e+06   9.043115e+05   7.042573e+05   0.000000e+00   0.000000e+00   0.000000e+00   1.525130e+06   0.000000e+00   0.000000e+00   0.000000e+00
      304000   3.039990e-06   3.158582e+00   1.967851e+01   1.775863e+01   1.006113e+06   9.043115e+05   7.042573e+05   0.000000e+00   0.000000e+00   0.000000e+00   1.525130e+06   0.000000e+00   0.000000e+00   0.000000e+00
      312000   3.119990e-06   3.239071e+00   1.975086e+01   1.781497e+01   1.006113e+06   9.043115e+05   7.042573e+05   0.000000e+00   0.000000e+00   0.000000e+00   1.525130e+06   0.000000e+00   0.000000e+00   0.000000e+00
      320000   3.199990e-06   3.319560e+00   1.982320e+01   1.787131e+01   1.006113e+06   9.043115e+05   7.042573e+05   0.000000e+00   0.000000e+00   0.000000e+00   1.525130e+06   0.000000e+00   0.000000e+00   0.000000e+00
      328000   3.279990e-06   3.400049e+00   1.989555e+01   1.792765e+01   1.006113e+06   9.043115e+05   7.042573e+05   0.000000e+00   0.000000e+00   0.000000e+00   1.525130e+06   0.000000e+00   0.000000e+00   0.000000e+00
      336000   3.359990e-06   3.480538e+00   1.996789e+01   1.798399e+01   1.006113e+06   9.043115e+05   7.042573e+05   0.000000e+00   0.000000e+00   0.000000e+00   1.525130e+06   0.000000e+00   0.000000e+00   0.000000e+00
      344000   3.439990e-06   3.561027e+00   2.004024e+01   1.804033e+01   1.006113e+06   9.043115e+05   7.042573e+05   0.000000e+00   0.000000e+00   0.000000e+00   1.525130e+06   0.000000e+00   0.000000e+00   0.000000e+00
      352000   3.519990e-06   3.641516e+00   2.011258e+01   1.809667e+01   1.006113e+06   9.043115e+05   7.042573e+05   0.000000e+00   0.000000e+00   0.000000e+00   1.525130e+06   0.000000e+00   0.000000e+00   0.000000e+00
      360000   3.599990e-06   3.722005e+00   2.018493e+01   1.815301e+01   1.006113e+06   9.043115e+05   7.042573e+05   0.000000e+00   0.000000e+00   0.000000e+00   1.525130e+06   0.000000e+00   0.000000e+00   0.000000e+00
      368000   3.679990e-06   3.802494e+00   2.025727e+01   1.820935e+01   1.006113e+06   9.043115e+05   7.042573e+05   0.000000e+00   0.000000e+00   0.000000e+00   1.525130e+06   0.000000e+00   0.000000e+00   0.000000e+00
      376000   3.759990e-06   3.882983e+00   2.032962e+01   1.826570e+01   1.006113e+06   9.043115e+05   7.042573e+05   0.000000e+00   0.000000e+00   0.000000e+00   1.525130e+06   0.000000e+00   0.000000e+00   0.000000e+00
      384000   3.839990e-06   3.963472e+00   2.040196e+01   1.832204e+01   1.006113e+06   9.043115e+05   7.042573e+05   0.000000e+00   0.000000e+00   0.000000e+00   1.525130e+06   0.000000e+00   0.000000e+00   0.000000e+00
      392000   3.919990e-06   4.043961e+00   2.047431e+01   1.837838e+01   1.006113e+06   9.043115e+05   7.042573e+05   0.000000e+00   0.000000e+00   0.000000e+00   1.525130e+06   0.000000e+00   0.000000e+00   0.000000e+00
      400000   3.999990e-06   4.124450e+00   2.054665e+01   1.843472e+01   1.006113e+06   9.043115e+05   7.042573e+05   0.000000e+00   0.000000e+00   0.000000e+00   1.525130e+06   0.000000e+00   0.000000e+00   0.000000e+00
      408000   4.079990e-06   4.204939e+00   2.061900e+01   1.849106e+01   1.006113e+06   9.043115e+05   7.042573e+05   0.000000e+00   0.000000e+00   0.000000e+00   1.525130e+06   0.000000e+00   0.000000e+00   0.000000e+00
      416000   4.159990e-06   4.285428e+00   2.069134e+01   1.854740e+01   1.006113e+06   9.043115e+05   7.042573e+05   0.000000e+00   0.000000e+00   0.000000e+00   1.525130e+06   0.000000e+00   0.000000e+00   0.000000e+00
      424000   4.239990e-06   4.365917e+00   2.076369e+01   1.860374e+01   1.006113e+06   9.043115e+05   7.042573e+05   0.000000e+00   0.000000e+00   0.000000e+00   1.525130e+06   0.000000e+00   0.000000e+00   0.000000e+00
      432000   4.319990e-06   4.446406e+00   2.083603e+01   1.866008e+01   1.006113e+06   9.043115e+05   7.042573e+05   0.000000e+00   0.000000e+00   0.000000e+00   1.525130e+06   0.000000e+00   0.000000e+00   0.000000e+00
      440000   4.399990e-06   4.526895e+00   2.090838e+01   1.871642e+01   1.006113e+06   9.043115e+05   7.042573e+05   0.000000e+00   0.000000e+00   0.000000e+00   1.525130e+06   0.000000e+00   0.000000e+00   0.000000e+00
      448000   4.479990e-06   4.607384e+00   2.098072e+01   1.877276e+01   1.006113e+06   9.043115e+05   7.042573e+05   0.000000e+00   0.000000e+00   0.000000e+00   1.525130e+06   0.000000e+00   0.000000e+00   0.000000e+00
      456000   4.559990e-06   4.687873e+00   2.105307e+01   1.882910e+01   1.006113e+06   9.043115e+05   7.042573e+05   0.000000e+00   0.000000e+00   0.000000e+00   1.525130e+06   0.000000e+00   0.000000e+00   0.000000e+00
      464000   4.639990e-06   4.768362e+00   2.112541e+01   1.888544e+01   1.006113e+06   9.043115e+05   7.042573e+05   0.000000e+00   0.000000e+00   0.000000e+00   1.525130e+06   0.000000e+00   0.000000e+00   0.000000e+00
      472000   4.719990e-06   4.848851e+00   2.119776e+01   1.894178e+01   1.006113e+06   9.043115e+05   7.042573e+05   0.000000e+00   0.000000e+00   0.000000e+00   1.525130e+06   0.000000e+00   0.000000e+00   0.000000e+00
      480000   4.799990e-06   4.929340e+00   2.127010e+01   1.899812e+01   1.006113e+06   9.043115e+05   7.042573e+05   0.000000e+00   0.000000e+00   0.000000e+00   1.525130e+06   0.000000e+00   0.000000e+00   0.000000e+00
      488000   4.879990e-06   5.009829e+00   2.134245e+01   1.905446e+01   1.006113e+06   9.043115e+05   7.042573e+05   0.000000e+00   0.000000e+00   0.000000e+00   1.525130e+06   0.000000e+00   0.000000e+00   0.000000e+00
      496000   4.959990e-06   5.090318e+00   2.141479e+01   1.911080e+01   1.006113e+06   9.043115e+05   7.042573e+05   0.000000e+00   0.000000e+00   0.000000e+00   1.525130e+06   0.000000e+00   0.000000e+00   0.000000e+00
      504000   5.039990e-06   5.170807e+00   2.148714e+01   1.916714e+01   1.006113e+06   9.043115e+05   7.042573e+05   0.000000e+00   0.000000e+00   0.000000e+00   1.525130e+06   0.000000e+00   0.000000e+00   0.000000e+00
      512000   5.119990e-06   5.251296e+00   2.155948e+01   1.922349e+01   1.006113e+06   9.043115e+05   7.042573e+05   0.000000e+00   0.000000e+00   0.000000e+00   1.525130e+06   0.000000e+00   0.000000e+00   0.000000e+00
      520000   5.199990e-06   5.331785e+00   2.163183e+01   1.927983e+01   1.006113e+06   9.043115e+05   7.042573e+05   0.000000e+00   0.000000e+00   0.000000e+00   1.525130e+06   0.000000e+00   0.000000e+00   0.000000e+00
      528000   5.279990e-06   5.412274e+00   2.170417e+01   1.933617e+01   1.006113e+06   9.043115e+05   7.042573e+05   0.000000e+00   0.000000e+00   0.000000e+00   1.525130e+06   0.000000e+00   0.000000e+00   0.000000e+00
      536000   5.359990e-06   5.492763e+00   2.177652e+01   1.939251e+01   1.006113e+06   9.043115e+05   7.042573e+05   0.000000e+00   0.000000e+00   0.000000e+00   1.525130e+06   0.000000e+00   0.000000e+00   0.000000e+00
      544000   5.439990e-06   5.573252e+00   2.184886e+01   1.944885e+01   1.006113e+06   9.043115e+05   7.042573e+05   0.000000e+00   0.000000e+00   0.000000e+00   1.525130e+06   0.000000e+00   0.000000e+00   0.000000e+00
      552000   5.519990e-06   5.653741e+00   2.192121e+01   1.950519e+01   1.006113e+06   9.043115e+05   7.042573e+05  -1.754809e+05   1.128927e+06  -1.198920e+06   1.525130e+06   1.532530e-29   0.000000e+00   0.000000e+00
      560000   5.599990e-06   5.734230e+00   2.199355e+01   1.956153e+01   1.006112e+06   9.043117e+05   7.042570e+05   0.000000e+00   0.000000e+00   0.000000e+00   1.525130e+06   0.000000e+00   0.000000e+00   0.000000e+00
      568000   5.679990e-06   5.814719e+00   2.206590e+01   1.961787e+01   1.006112e+06   9.043130e+05   7.042557e+05  -6.825345e+06   4.543752e+07  -4.859411e+07   1.525130e+06   2.504267e-26   0.000000e+00   0.000000e+00
      576000   5.759990e-06   5.895208e+00   2.213824e+01   1.967421e+01   1.006112e+06   9.043170e+05   7.042514e+05  -3.766305e+06   2.569158e+07  -2.760948e+07   1.525130e+06   8.049429e-27   0.000000e+00   0.000000e+00
      584000   5.839990e-06   5.975697e+00   2.221059e+01   1.973055e+01   1.006111e+06   9.043253e+05   7.042425e+05  -2.543215e+07   1.789510e+08  -1.934595e+08   1.525130e+06   3.926376e-25   0.000000e+00   0.000000e+00
      592000   5.919990e-06   6.056186e+00   2.228293e+01   1.978689e+01   1.006109e+06   9.043366e+05   7.042302e+05  -1.022133e+07   7.342041e+07  -7.967989e+07   1.525130e+06   6.638537e-26   0.000000e+00   0.000000e+00
      600000   5.999990e-06   6.136674e+00   2.235528e+01   1.984323e+01   1.006107e+06   9.043480e+05   7.042178e+05  -1.562561e+07   1.165078e+08  -1.272938e+08   1.525130e+06   1.682547e-25   0.000000e+00   0.000000e+00
      608000   6.079990e-06   6.217163e+00   2.242763e+01   1.989956e+01   1.006106e+06   9.043550e+05   7.042101e+05  -4.860726e+06   3.821815e+07  -4.213568e+07   1.525130e+06   1.827830e-26   0.000000e+00   0.000000e+00
      616000   6.159990e-06   6.297651e+00   2.249998e+01   1.995590e+01   1.006105e+06   9.043665e+05   7.041975e+05  -2.618294e+07   2.006421e+08  -2.202666e+08   1.525130e+06   5.011690e-25   0.000000e+00   0.000000e+00
      624000   6.239990e-06   6.378140e+00   2.257233e+01   2.001224e+01   1.006104e+06   9.043704e+05   7.041932e+05  -1.241530e+02   1.303376e+02   9.993605e+00   1.525130e+06   1.821213e-37   0.000000e+00   0.000000e+00
      632000   6.319990e-06   6.458628e+00   2.264468e+01   2.006857e+01   1.006104e+06   9.043704e+05   7.041932e+05  -1.799481e+02   2.151016e+02  -1.914953e+01   1.525130e+06   4.426907e-37   0.000000e+00   0.000000e+00
      640000   6.399990e-06   6.539117e+00   2.271703e+01   2.012491e+01   1.006104e+06   9.043704e+05   7.041932e+05  -1.550512e+02   1.723425e+02   1.934527e-01   1.525130e+06   3.011188e-37   0.000000e+00   0.000000e+00
      648000   6.479990e-06   6.619605e+00   2.278938e+01   2.018124e+01   1.006104e+06   9.043704e+05   7.041932e+05  -1.562924e+02   1.743664e+02  -6.323746e-01   1.525130e+06   3.072266e-37   0.000000e+00   0.000000e+00
      656000   6.559990e-06   6.700093e+00   2.286173e+01   2.023758e+01   1.006104e+06   9.043704e+05   7.041932e+05  -1.747945e+02   1.944574e+02  -6.764409e-20   1.525130e+06   3.830503e-37   0.000000e+00   0.000000e+00
      664000   6.639990e-06   6.780582e+00   2.293408e+01   2.029391e+01   1.006104e+06   9.043704e+05   7.041932e+05  -1.823721e+02   2.028874e+02   4.118066e-19   1.525130e+06   4.169871e-37   0.000000e+00   0.000000e+00
      672000   6.719990e-06   6.861070e+00   2.300643e+01   2.035025e+01   1.006104e+06   9.043704e+05   7.041932e+05  -1.588750e+02   1.767471e+02   1.946658e-20   1.525130e+06   3.164518e-37   0.000000e+00   0.000000e+00
      680000   6.799990e-06   6.941558e+00   2.307878e+01   2.040658e+01   1.006104e+06   9.043704e+05   7.041932e+05  -1.776305e+02   1.976124e+02   2.481664e-20   1.525130e+06   3.955708e-37   0.000000e+00   0.000000e+00
      688000   6.879990e-06   7.022047e+00   2.315113e+01   2.046292e+01   1.006104e+06   9.043704e+05   7.041932e+05  -1.850730e+02   2.058922e+02   6.646616e-21   1.525130e+06   4.293932e-37   0.000000e+00   0.000000e+00
      696000   6.959990e-06   7.102535e+00   2.322348e+01   2.051925e+01   1.006104e+06   9.043704e+05   7.041932e+05  -1.907588e+02   2.122175e+02   2.848565e-19   1.525130e+06   4.561937e-37   0.000000e+00   0.000000e+00
      704000   7.039990e-06   7.183023e+00   2.329582e+01   2.057559e+01   1.006104e+06   9.043704e+05   7.041932e+05  -2.342472e+02   2.605981e+02   8.133852e-21   1.525130e+06   6.879132e-37   0.000000e+00   0.000000e+00
      712000   7.119990e-06   7.263512e+00   2.336817e+01   2.063193e+01   1.006104e+06   9.043704e+05   7.041932e+05  -2.128496e+02   2.367934e+02  -1.335497e-19   1.525130e+06   5.679703e-37   0.000000e+00   0.000000e+00
      720000   7.199990e-06   7.344000e+00   2.344052e+01   2.068826e+01   1.006104e+06   9.043704e+05   7.041932e+05  -1.904608e+02   2.118861e+02   2.558518e-19   1.525130e+06   4.547868e-37   0.000000e+00   0.000000e+00
      728000   7.279990e-06   7.424488e+00   2.351287e+01   2.074460e+01   1.006104e+06   9.043704e+05   7.041932e+05  -2.064742e+02   2.297009e+02   2.820525e-19   1.525130e+06   5.344821e-37   0.000000e+00   0.000000e+00
      736000   7.359990e-06   7.504977e+00   2.358522e+01   2.080093e+01   1.006104e+06   9.043704e+05   7.041932e+05  -1.944886e+02   2.163669e+02   6.866246e-20   1.525130e+06   4.742233e-37   0.000000e+00   0.000000e+00
      744000   7.439990e-06   7.585465e+00   2.365757e+01   2.085727e+01   1.006104e+06   9.043704e+05   7.041932e+05  -2.396412e+02   2.665988e+02   4.054426e-19   1.525130e+06   7.199607e-37   0.000000e+00   0.000000e+00
      752000   7.519990e-06   7.665953e+00   2.372992e+01   2.091360e+01   1.006104e+06   9.043704e+05   7.041932e+05  -2.030805e+02   2.259254e+02   2.630054e-19   1.525130e+06   5.170886e-37   0.000000e+00   0.000000e+00
      760000   7.599990e-06   7.746442e+00   2.380227e+01   2.096994e+01   1.006104e+06   9.043704e+05   7.041932e+05  -2.220540e+02   2.470332e+02   3.080110e-19   1.525130e+06   6.181718e-37   0.000000e+00   0.000000e+00
      768000   7.679990e-06   7.826930e+00   2.387462e+01   2.102627e+01   1.006104e+06   9.043704e+05   7.041932e+05  -2.512290e+02   2.794902e+02  -1.691921e-19   1.525130e+06   7.913041e-37   0.000000e+00   0.000000e+00
      776000   7.759990e-06   7.907419e+00   2.394697e+01   2.108261e+01   1.006104e+06   9.043704e+05   7.041932e+05  -1.981586e+02   2.204498e+02   2.361070e-19   1.525130e+06   4.922990e-37   0.000000e+00   0.000000e+00
      784000   7.839990e-06   7.987907e+00   2.401932e+01   2.113894e+01   1.006104e+06   9.043704e+05   7.041932e+05  -2.593314e+02   2.885040e+02  -9.035480e-19   1.525130e+06   8.431268e-37   0.000000e+00   0.000000e+00
      792000   7.919990e-06   8.068395e+00   2.409167e+01   2.119528e+01   1.006104e+06   9.043704e+05   7.041932e+05  -1.966860e+02   2.188116e+02  -1.480139e-19   1.525130e+06   4.850440e-37   0.000000e+00   0.000000e+00
      800000   7.999990e-06   8.148884e+00   2.416402e+01   2.125162e+01   1.006104e+06   9.043704e+05   7.041932e+05  -2.186179e+02   2.432106e+02   3.085561e-19   1.525130e+06   5.992516e-37   0.000000e+00   0.000000e+00
      808000   8.079990e-06   8.229372e+00   2.423637e+01   2.130795e+01   1.006104e+06   9.043704e+05   7.041932e+05  -2.576384e+02   2.866206e+02   5.216904e-19   1.525130e+06   8.321640e-37   0.000000e+00   0.000000e+00
      816000   8.159990e-06   8.309860e+00   2.430872e+01   2.136429e+01   1.006104e+06   9.043704e+05   7.041932e+05  -2.412752e+02   2.684166e+02   4.376148e-19   1.525130e+06   7.298887e-37   0.000000e+00   0.000000e+00
      824000   8.239990e-06   8.390349e+00   2.438107e+01   2.142062e+01   1.006104e+06   9.043704e+05   7.041932e+05  -3.131905e+02   3.484218e+02  -4.282203e-19   1.525130e+06   1.229675e-36   0.000000e+00   0.000000e+00
      832000   8.319990e-06   8.470837e+00   2.445342e+01   2.147696e+01   1.006104e+06   9.043704e+05   7.041932e+05  -2.659563e+02   2.958742e+02  -3.146913e-19   1.525130e+06   8.867765e-37   0.000000e+00   0.000000e+00
      840000   8.399990e-06   8.551325e+00   2.452577e+01   2.153329e+01   1.006104e+06   9.043704e+05   7.041932e+05  -2.843156e+02   3.162987e+02  -8.465888e-20   1.525130e+06   1.013453e-36   0.000000e+00   0.000000e+00
      848000   8.479990e-06   8.631814e+00   2.459812e+01   2.158963e+01   1.006104e+06   9.043704e+05   7.041932e+05  -2.558530e+02   2.846343e+02   1.092848e-19   1.525130e+06   8.207352e-37   0.000000e+00   0.000000e+00
      856000   8.559990e-06   8.712302e+00   2.467047e+01   2.164596e+01   1.006104e+06   9.043704e+05   7.041932e+05  -2.901564e+02   3.227965e+02  -2.176903e-19   1.525130e+06   1.055543e-36   0.000000e+00   0.000000e+00
      864000   8.639990e-06   8.792790e+00   2.474282e+01   2.170230e+01   1.006104e+06   9.043704e+05   7.041932e+05  -2.986599e+02   3.322566e+02   4.475657e-19   1.525130e+06   1.118272e-36   0.000000e+00   0.000000e+00
      872000   8.719990e-06   8.873279e+00   2.481517e+01   2.175863e+01   1.006104e+06   9.043704e+05   7.041932e+05  -2.809278e+02   3.125298e+02  -2.937622e-19   1.525130e+06   9.895346e-37   0.000000e+00   0.000000e+00
      880000   8.799990e-06   8.953767e+00   2.488752e+01   2.181497e+01   1.006104e+06   9.043704e+05   7.041932e+05  -3.260311e+02   3.627069e+02   1.431100e-21   1.525130e+06   1.332617e-36   0.000000e+00   0.000000e+00
      888000   8.879990e-06   9.034256e+00   2.495987e+01   2.187131e+01   1.006104e+06   9.043704e+05   7.041932e+05  -3.183482e+02   3.541598e+02  -5.573043e-20   1.525130e+06   1.270601e-36   0.000000e+00   0.000000e+00
      896000   8.959990e-06   9.114744e+00   2.503222e+01   2.192764e+01   1.006104e+06   9.043704e+05   7.041932e+05  -3.466507e+02   3.856460e+02   2.323249e-19   1.525130e+06   1.506521e-36   0.000000e+00   0.000000e+00
      904000   9.039990e-06   9.195232e+00   2.510457e+01   2.198398e+01   1.006104e+06   9.043704e+05   7.041932e+05  -2.867787e+02   3.190389e+02   6.913580e-19   1.525130e+06   1.031177e-36   0.000000e+00   0.000000e+00
      912000   9.119990e-06   9.275721e+00   2.517692e+01   2.204031e+01   1.006104e+06   9.043704e+05   7.041932e+05  -4.044713e+02   4.499709e+02   3.335925e-19   1.525130e+06   2.050953e-36   0.000000e+00   0.000000e+00
      920000   9.199990e-06   9.356209e+00   2.524926e+01   2.209665e+01   1.006104e+06   9.043704e+05   7.041932e+05  -3.307196e+02   3.679228e+02  -8.686167e-19   1.525130e+06   1.371267e-36   0.000000e+00   0.000000e+00
      928000   9.279990e-06   9.436697e+00   2.532161e+01   2.215298e+01   1.006104e+06   9.043704e+05   7.041932e+05  -3.628228e+02   4.036374e+02   7.879910e-19   1.525130e+06   1.650410e-36   0.000000e+00   0.000000e+00
      936000   9.359990e-06   9.517186e+00   2.539396e+01   2.220932e+01   1.006104e+06   9.043704e+05   7.041932e+05  -3.477958e+02   3.869199e+02  -1.216726e-20   1.525130e+06   1.516502e-36   0.000000e+00   0.000000e+00
      944000   9.439990e-06   9.597674e+00   2.546631e+01   2.226565e+01   1.006104e+06   9.043704e+05   7.041932e+05  -3.706475e+02   4.123423e+02  -5.023010e-20   1.525130e+06   1.722345e-36   0.000000e+00   0.000000e+00
      952000   9.519990e-06   9.678162e+00   2.553866e+01   2.232199e+01   1.006104e+06   9.043704e+05   7.041932e+05  -3.704477e+02   4.121199e+02  -6.492351e-19   1.525130e+06   1.720537e-36   0.000000e+00   0.000000e+00
      960000   9.599990e-06   9.758651e+00   2.561101e+01   2.237832e+01   1.006104e+06   9.043704e+05   7.041932e+05  -3.633830e+02   4.042605e+02  -5.691120e-19   1.525130e+06   1.655599e-36   0.000000e+00   0.000000e+00
      968000   9.679990e-06   9.839139e+00   2.568336e+01   2.243466e+01   1.006104e+06   9.043704e+05   7.041932e+05  -3.508967e+02   3.903696e+02  -3.468463e-20   1.525130e+06   1.543752e-36   0.000000e+00   0.000000e+00
      976000   9.759990e-06   9.919627e+00   2.575571e+01   2.249100e+01   1.006104e+06   9.043704e+05   7.041932e+05  -4.190072e+02   4.661420e+02  -1.250816e-19   1.525130e+06   2.201096e-36   0.000000e+00   0.000000e+00
      984000   9.839990e-06   1.000012e+01   2.582806e+01   2.254733e+01   1.006104e+06   9.043704e+05   7.041932e+05  -3.785284e+02   4.211097e+02   8.039851e-19   1.525130e+06   1.796296e-36   0.000000e+00   0.000000e+00
      992000   9.919990e-06   1.008060e+01   2.590041e+01   2.260367e+01   1.006104e+06   9.043704e+05   7.041932e+05  -3.704220e+02   4.120913e+02  -1.372264e-19   1.525130e+06   1.720231e-36   0.000000e+00   0.000000e+00
     1000000   9.999990e-06   1.016109e+01   2.597276e+01   2.266000e+01   1.006104e+06   9.043704e+05   7.041932e+05  -4.487526e+02   4.992335e+02   2.483818e-19   1.525130e+06   2.524620e-36   0.000000e+00   0.000000e+00
     1008000   1.007999e-05   1.024158e+01   2.604511e+01   2.271634e+01   1.006104e+06   9.043704e+05   7.041932e+05  -4.118977e+02   4.582327e+02  -9.832359e-19   1.525130e+06   2.127146e-36   0.000000e+00   0.000000e+00
     1016000   1.015999e-05   1.032207e+01   2.611746e+01   2.277267e+01   1.006104e+06   9.043704e+05   7.041932e+05  -4.273128e+02   4.753819e+02   6.121591e-19   1.525130e+06   2.289171e-36   0.000000e+00   0.000000e+00
     1024000   1.023999e-05   1.040256e+01   2.618981e+01   2.282901e+01   1.006104e+06   9.043704e+05   7.041932e+05  -4.423997e+02   4.921660e+02  -1.135169e-18   1.525130e+06   2.453719e-36   0.000000e+00   0.000000e+00
     1032000   1.031999e-05   1.048305e+01   2.626216e+01   2.288534e+01   1.006104e+06   9.043704e+05   7.041932e+05  -4.482040e+02   4.986232e+02   1.253640e-19   1.525130e+06   2.518585e-36   0.000000e+00   0.000000e+00
     1040000   1.039999e-05   1.056353e+01   2.633451e+01   2.294168e+01   1.006104e+06   9.043704e+05   7.041932e+05  -4.524430e+02   5.033391e+02   1.530319e-18   1.525130e+06   2.566372e-36   0.000000e+00   0.000000e+00
     1048000   1.047999e-05   1.064402e+01   2.640686e+01   2.299801e+01   1.006104e+06   9.043704e+05   7.041932e+05  -4.640108e+02   5.162082e+02   4.961266e-19   1.525130e+06   2.699357e-36   0.000000e+00   0.000000e+00
     1056000   1.055999e-05   1.072451e+01   2.647921e+01   2.305435e+01   1.006104e+06   9.043704e+05   7.041932e+05  -4.634285e+02   5.155603e+02   4.183141e-19   1.525130e+06   2.692565e-36   0.000000e+00   0.000000e+00
     1064000   1.063999e-05   1.080500e+01   2.655156e+01   2.311069e+01   1.006104e+06   9.043704e+05   7.041932e+05  -4.214129e+02   4.688184e+02   1.160755e-18   1.525130e+06   2.226476e-36   0.000000e+00   0.000000e+00
     1072000   1.071999e-05   1.088549e+01   2.662391e+01   2.316702e+01   1.006104e+06   9.043704e+05   7.041932e+05  -4.656120e+02   5.179894e+02  -3.929302e-19   1.525130e+06   2.717880e-36   0.000000e+00   0.000000e+00
     1080000   1.079999e-05   1.096598e+01   2.669626e+01   2.322336e+01   1.006104e+06   9.043704e+05   7.041932e+05  -4.333580e+02   4.821072e+02   2.962026e-19   1.525130e+06   2.354530e-36   0.000000e+00   0.000000e+00
     1088000   1.087999e-05   1.104646e+01   2.676861e+01   2.327969e+01   1.006104e+06   9.043704e+05   7.041932e+05  -5.031514e+02   5.597517e+02   5.171500e-19   1.525130e+06   3.173746e-36   0.000000e+00   0.000000e+00
     1096000   1.095999e-05   1.112695e+01   2.684096e+01   2.333603e+01   1.006104e+06   9.043704e+05   7.041932e+05  -4.731934e+02   5.264237e+02  -3.555044e-19   1.525130e+06   2.807218e-36   0.000000e+00   0.000000e+00
     1104000   1.103999e-05   1.120744e+01   2.691331e+01   2.339236e+01   1.006104e+06   9.043704e+05   7.041932e+05  -4.818927e+02   5.361016e+02  -3.520499e-19   1.525130e+06   2.911605e-36   0.000000e+00   0.000000e+00
     1112000   1.111999e-05   1.128793e+01   2.698566e+01   2.344870e+01   1.006104e+06   9.043704e+05   7.041932e+05  -4.266724e+02   4.746695e+02  -5.293264e-19   1.525130e+06   2.282494e-36   0.000000e+00   0.000000e+00
     1120000   1.119999e-05   1.136842e+01   2.705801e+01   2.350503e+01   1.006104e+06   9.043704e+05   7.041932e+05  -5.140294e+02   5.718534e+02  -5.286715e-19   1.525130e+06   3.312577e-36   0.000000e+00   0.000000e+00
     1128000   1.127999e-05   1.144891e+01   2.713036e+01   2.356137e+01   1.006104e+06   9.043704e+05   7.041932e+05  -4.433742e+02   4.932501e+02  -4.125448e-19   1.525130e+06   2.464620e-36   0.000000e+00   0.000000e+00
     1136000   1.135999e-05   1.152939e+01   2.720270e+01   2.361770e+01   1.006104e+06   9.043704e+05   7.041932e+05  -4.660118e+02   5.184342e+02   8.355336e-19   1.525130e+06   2.722568e-36   0.000000e+00   0.000000e+00
     1144000   1.143999e-05   1.160988e+01   2.727505e+01   2.367404e+01   1.006104e+06   9.043704e+05   7.041932e+05  -4.489474e+02   4.994502e+02   3.707221e-19   1.525130e+06   2.527111e-36   0.000000e+00   0.000000e+00
     1152000   1.151999e-05   1.169037e+01   2.734740e+01   2.373038e+01   1.006104e+06   9.043704e+05   7.041932e+05  -4.415741e+02   4.912475e+02   4.531467e-19   1.525130e+06   2.444695e-36   0.000000e+00   0.000000e+00
     1160000   1.159999e-05   1.177086e+01   2.741975e+01   2.378671e+01   1.006104e+06   9.043704e+05   7.041932e+05  -4.413657e+02   4.910156e+02   7.474371e-20   1.525130e+06   2.442453e-36   0.000000e+00   0.000000e+00
     1168000   1.167999e-05   1.185135e+01   2.749210e+01   2.384305e+01   1.006104e+06   9.043704e+05   7.041932e+05  -4.477154e+02   4.980796e+02  -6.132181e-19   1.525130e+06   2.513097e-36   0.000000e+00   0.000000e+00
     1176000   1.175999e-05   1.193184e+01   2.756445e+01   2.389938e+01   1.006104e+06   9.043704e+05   7.041932e+05  -4.745491e+02   5.279319e+02   8.233305e-19   1.525130e+06   2.823310e-36   0.000000e+00   0.000000e+00
     1184000   1.183999e-05   1.201232e+01   2.763680e+01   2.395572e+01   1.006104e+06   9.043704e+05   7.041932e+05  -4.502360e+02   5.008838e+02   1.572335e-18   1.525130e+06   2.541442e-36   0.000000e+00   0.000000e+00
     1192000   1.191999e-05   1.209281e+01   2.770915e+01   2.401205e+01   1.006104e+06   9.043704e+05   7.041932e+05  -4.451432e+02   4.952181e+02   8.182071e-19   1.525130e+06   2.484390e-36   0.000000e+00   0.000000e+00
     1200000   1.199999e-05   1.217330e+01   2.778150e+01   2.406839e+01   1.006104e+06   9.043704e+05   7.041932e+05  -4.659425e+02   5.183571e+02   5.631538e-19   1.525130e+06   2.721862e-36   0.000000e+00   0.000000e+00
     1208000   1.207999e-05   1.225379e+01   2.785385e+01   2.412472e+01   1.006104e+06   9.043704e+05   7.041932e+05  -4.440543e+02   4.940067e+02  -5.221347e-19   1.525130e+06   2.472104e-36   0.000000e+00   0.000000e+00
     1216000   1.215999e-05   1.233428e+01   2.792620e+01   2.418106e+01   1.006104e+06   9.043704e+05   7.041932e+05  -3.978469e+02   4.426014e+02  -4.324924e-20   1.525130e+06   1.984538e-36   0.000000e+00   0.000000e+00
     1224000   1.223999e-05   1.241477e+01   2.799855e+01   2.423739e+01   1.006104e+06   9.043704e+05   7.041932e+05  -4.089498e+02   4.549532e+02  -1.753071e-19   1.525130e+06   2.096761e-36   0.000000e+00   0.000000e+00
     1232000   1.231999e-05   1.249525e+01   2.807090e+01   2.429373e+01   1.006104e+06   9.043704e+05   7.041932e+05  -4.329034e+02   4.816014e+02   5.998169e-19   1.525130e+06   2.349566e-36   0.000000e+00   0.000000e+00
     1240000   1.239999e-05   1.257574e+01   2.814325e+01   2.435007e+01   1.006104e+06   9.043704e+05   7.041932e+05  -4.095161e+02   4.555832e+02  -1.069012e-18   1.525130e+06   2.102520e-36   0.000000e+00   0.000000e+00
     1248000   1.247999e-05   1.265623e+01   2.821560e+01   2.440640e+01   1.006104e+06   9.043704e+05   7.041932e+05  -3.790294e+02   4.216670e+02  -2.563813e-19   1.525130e+06   1.801186e-36   0.000000e+00   0.000000e+00
     1256000   1.255999e-05   1.273672e+01   2.828795e+01   2.446274e+01   1.006104e+06   9.043704e+05   7.041932e+05  -3.978531e+02   4.426083e+02  -4.784638e-19   1.525130e+06   1.984447e-36   0.000000e+00   0.000000e+00
     1264000   1.263999e-05   1.281721e+01   2.836030e+01   2.451907e+01   1.006104e+06   9.043704e+05   7.041932e+05  -3.384922e+02   3.765698e+02   1.695794e-21   1.525130e+06   1.436458e-36   0.000000e+00   0.000000e+00
     1272000   1.271999e-05   1.289770e+01   2.843265e+01   2.457541e+01   1.006104e+06   9.043704e+05   7.041932e+05  -3.348352e+02   3.725014e+02  -7.540649e-19   1.525130e+06   1.405629e-36   0.000000e+00   0.000000e+00
     1280000   1.279999e-05   1.297818e+01   2.850500e+01   2.463174e+01   1.006104e+06   9.043704e+05   7.041932e+05  -3.259225e+02   3.625860e+02   4.666644e-19   1.525130e+06   1.331858e-36   0.000000e+00   0.000000e+00
     1288000   1.287999e-05   1.305867e+01   2.857735e+01   2.468808e+01   1.006104e+06   9.043704e+05   7.041932e+05  -3.167928e+02   3.524293e+02  -5.768825e-19   1.525130e+06   1.258212e-36   0.000000e+00   0.000000e+00
     1296000   1.295999e-05   1.313916e+01   2.864970e+01   2.474441e+01   1.006104e+06   9.043704e+05   7.041932e+05  -2.830704e+02   3.149134e+02  -6.661448e-20   1.525130e+06   1.004646e-36   0.000000e+00   0.000000e+00
     1304000   1.303999e-05   1.321965e+01   2.872205e+01   2.480075e+01   1.006104e+06   9.043704e+05   7.041932e+05  -2.992799e+02   3.329464e+02   5.335928e-19   1.525130e+06   1.123067e-36   0.000000e+00   0.000000e+00
     1312000   1.311999e-05   1.330014e+01   2.879440e+01   2.485708e+01   1.006104e+06   9.043704e+05   7.041932e+05  -2.345558e+02   2.609413e+02   4.060618e-19   1.525130e+06   6.897921e-37   0.000000e+00   0.000000e+00
     1320000   1.319999e-05   1.338063e+01   2.886675e+01   2.491342e+01   1.006104e+06   9.043704e+05   7.041932e+05  -2.296152e+02   2.554450e+02  -2.947402e-19   1.525130e+06   6.610241e-37   0.000000e+00   0.000000e+00
     1328000   1.327999e-05   1.346112e+01   2.893910e+01   2.496976e+01   1.006104e+06   9.043704e+05   7.041932e+05  -1.839096e+02   2.045978e+02  -2.912140e-20   1.525130e+06   4.240635e-37   0.000000e+00   0.000000e+00
     1336000   1.335999e-05   1.354160e+01   2.901145e+01   2.502609e+01   1.006104e+06   9.043704e+05   7.041932e+05  -1.676027e+02   1.864566e+02   1.184393e-19   1.525130e+06   3.521591e-37   0.000000e+00   0.000000e+00
     1344000   1.343999e-05   1.362209e+01   2.908380e+01   2.508243e+01   1.006104e+06   9.043704e+05   7.041932e+05  -1.511475e+02   1.681503e+02   2.239802e-19   1.525130e+06   2.864454e-37   0.000000e+00   0.000000e+00
     1352000   1.351999e-05   1.370258e+01   2.915614e+01   2.513876e+01   1.006104e+06   9.043704e+05   7.041932e+05  -1.041476e+02   1.158633e+02   2.137478e-19   1.525130e+06   1.359958e-37   0.000000e+00   0.000000e+00
     1360000   1.359999e-05   1.378307e+01   2.922849e+01   2.519510e+01   1.006104e+06   9.043704e+05   7.041932e+05  -9.174643e+01   1.020671e+02  -8.968027e-20   1.525130e+06   1.055365e-37   0.000000e+00   0.000000e+00
     1368000   1.367999e-05   1.386356e+01   2.930084e+01   2.525143e+01   1.006104e+06   9.043704e+05   7.041932e+05  -5.017278e+01   5.581679e+01   3.247218e-20   1.525130e+06   3.156101e-38   0.000000e+00   0.000000e+00
     1376000   1.375999e-05   1.394405e+01   2.937319e+01   2.530777e+01   1.006104e+06   9.043704e+05   7.041932e+05  -7.862985e+00   8.747504e+00   8.860408e-21   1.525130e+06   7.784820e-40   0.000000e+00   0.000000e+00
     1384000   1.383999e-05   1.402453e+01   2.944554e+01   2.536410e+01   1.006104e+06   9.043704e+05   7.041932e+05   2.188593e+01  -2.434791e+01  -4.115846e-20   1.525130e+06   6.000223e-39   0.000000e+00   0.000000e+00
     1392000   1.391999e-05   1.410502e+01   2.951789e+01   2.542044e+01   1.006104e+06   9.043704e+05   7.041932e+05   4.019224e+01  -4.471353e+01  -1.102371e-20   1.525130e+06   2.024724e-38   0.000000e+00   0.000000e+00
     1400000   1.399999e-05   1.418551e+01   2.959024e+01   2.547677e+01   1.006104e+06   9.043704e+05   7.041932e+05   8.597026e+01  -9.564119e+01   1.905429e-19   1.525130e+06   9.264961e-38   0.000000e+00   0.000000e+00
     1408000   1.407999e-05   1.426600e+01   2.966259e+01   2.553311e+01   1.006104e+06   9.043704e+05   7.041932e+05   1.189194e+02  -1.322968e+02  -1.426235e-20   1.525130e+06   1.772841e-37   0.000000e+00   0.000000e+00
     1416000   1.415999e-05   1.434649e+01   2.973494e+01   2.558945e+01   1.006104e+06   9.043704e+05   7.041932e+05   1.698391e+02  -1.889445e+02   3.101824e-19   1.525130e+06   3.616452e-37   0.000000e+00   0.000000e+00
     1424000   1.423999e-05   1.442698e+01   2.980729e+01   2.564578e+01   1.006104e+06   9.043704e+05   7.041932e+05   2.188368e+02  -2.434542e+02  -1.104580e-19   1.525130e+06   6.004037e-37   0.000000e+00   0.000000e+00
     1432000   1.431999e-05   1.450746e+01   2.987964e+01   2.570212e+01   1.006104e+06   9.043704e+05   7.041932e+05   2.462120e+02  -2.739088e+02   4.453314e-19   1.525130e+06   7.600043e-37   0.000000e+00   0.000000e+00
     1440000   1.439999e-05   1.458795e+01   2.995199e+01   2.575845e+01   1.006104e+06   9.043704e+05   7.041932e+05   2.933006e+02  -3.262945e+02   3.512601e-19   1.525130e+06   1.078473e-36   0.000000e+00   0.000000e+00
     1448000   1.447999e-05   1.466844e+01   3.002434e+01   2.581479e+01   1.006104e+06   9.043704e+05   7.041932e+05   3.317699e+02  -3.690912e+02   6.561171e-19   1.525130e+06   1.379875e-36   0.000000e+00   0.000000e+00
     1456000   1.455999e-05   1.474893e+01   3.009669e+01   2.587112e+01   1.006104e+06   9.043704e+05   7.041932e+05   3.572309e+02  -3.974164e+02  -5.620235e-19   1.525130e+06   1.599904e-36   0.000000e+00   0.000000e+00
     1464000   1.463999e-05   1.482942e+01   3.016904e+01   2.592746e+01   1.006104e+06   9.043704e+05   7.041932e+05   4.380231e+02  -4.872970e+02   3.428210e-19   1.525130e+06   2.405431e-36   0.000000e+00   0.000000e+00
     1472000   1.471999e-05   1.490991e+01   3.024139e+01   2.598379e+01   1.006104e+06   9.043704e+05   7.041932e+05   4.376517e+02  -4.868838e+02  -4.333214e-19   1.525130e+06   2.401401e-36   0.000000e+00   0.000000e+00
     1480000   1.479999e-05   1.499039e+01   3.031374e+01   2.604013e+01   1.006104e+06   9.043704e+05   7.041932e+05   5.235815e+02  -5.824800e+02  -1.013753e-18   1.525130e+06   3.436902e-36   0.000000e+00   0.000000e+00
     1488000   1.487999e-05   1.507088e+01   3.038609e+01   2.609646e+01   1.006104e+06   9.043704e+05   7.041932e+05   5.533597e+02  -6.156080e+02   9.670020e-20   1.525130e+06   3.838967e-36   0.000000e+00   0.000000e+00
     1496000   1.495999e-05   1.515137e+01   3.045844e+01   2.615280e+01   1.006104e+06   9.043704e+05   7.041932e+05   6.184498e+02  -6.880202e+02  -1.114071e-19   1.525130e+06   4.795037e-36   0.000000e+00   0.000000e+00
     1504000   1.503999e-05   1.523186e+01   3.053079e+01   2.620914e+01   1.006104e+06   9.043704e+05   7.041932e+05   6.501020e+02  -7.232330e+02   7.998395e-19   1.525130e+06   5.298475e-36   0.000000e+00   0.000000e+00
     1512000   1.511999e-05   1.531235e+01   3.060314e+01   2.626547e+01   1.006104e+06   9.043704e+05   7.041932e+05   7.178652e+02  -7.986190e+02   6.841435e-19   1.525130e+06   6.460691e-36   0.000000e+00   0.000000e+00
     1520000   1.519999e-05   1.539284e+01   3.067549e+01   2.632181e+01   1.006104e+06   9.043704e+05   7.041932e+05   7.374131e+02  -8.203659e+02   1.542968e-19   1.525130e+06   6.817461e-36   0.000000e+00   0.000000e+00
     1528000   1.527999e-05   1.547332e+01   3.074784e+01   2.637814e+01   1.006104e+06   9.043704e+05   7.041932e+05   7.916811e+02  -8.807386e+02  -9.653085e-19   1.525130e+06   7.857764e-36   0.000000e+00   0.000000e+00
     1536000   1.535999e-05   1.555381e+01   3.082019e+01   2.643448e+01   1.006104e+06   9.043704e+05   7.041932e+05   8.345054e+02  -9.283803e+02   1.153038e-18   1.525130e+06   8.731148e-36   0.000000e+00   0.000000e+00
     1544000   1.543999e-05   1.563430e+01   3.089254e+01   2.649081e+01   1.006104e+06   9.043704e+05   7.041932e+05   9.522129e+02  -1.059329e+03  -1.097685e-18   1.525130e+06   1.136735e-35   0.000000e+00   0.000000e+00
     1552000   1.551999e-05   1.571479e+01   3.096489e+01   2.654715e+01   1.006104e+06   9.043704e+05   7.041932e+05   9.262120e+02  -1.030403e+03  -2.068511e-18   1.525130e+06   1.075535e-35   0.000000e+00   0.000000e+00
     1560000   1.559999e-05   1.579528e+01   3.103724e+01   2.660348e+01   1.006104e+06   9.043704e+05   7.041932e+05   1.006565e+03  -1.119796e+03  -1.492706e-18   1.525130e+06   1.270241e-35   0.000000e+00   0.000000e+00
     1568000   1.567999e-05   1.587577e+01   3.110958e+01   2.665982e+01   1.006104e+06   9.043704e+05   7.041932e+05   1.062333e+03  -1.181836e+03  -5.243381e-19   1.525130e+06   1.414871e-35   0.000000e+00   0.000000e+00
     1576000   1.575999e-05   1.595625e+01   3.118193e+01   2.671615e+01   1.006104e+06   9.043704e+05   7.041932e+05   1.084969e+03  -1.207019e+03  -4.275391e-19   1.525130e+06   1.475824e-35   0.000000e+00   0.000000e+00
     1584000   1.583999e-05   1.603674e+01   3.125428e+01   2.677249e+01   1.006104e+06   9.043704e+05   7.041932e+05   1.145185e+03  -1.274009e+03  -2.333803e-18   1.525130e+06   1.644194e-35   0.000000e+00   0.000000e+00
     1592000   1.591999e-05   1.611723e+01   3.132663e+01   2.682883e+01   1.006104e+06   9.043704e+05   7.041932e+05   1.163526e+03  -1.294413e+03   9.544231e-19   1.525130e+06   1.697274e-35   0.000000e+00   0.000000e+00
     1600000   1.599999e-05   1.619772e+01   3.139898e+01   2.688516e+01   1.006104e+06   9.043704e+05   7.041932e+05   1.218849e+03  -1.355959e+03   2.139324e-18   1.525130e+06   1.862515e-35   0.000000e+00   0.000000e+00
     1608000   1.607999e-05   1.627821e+01   3.147133e+01   2.694150e+01   1.006104e+06   9.043704e+05   7.041932e+05   1.286035e+03  -1.430703e+03   2.644028e-18   1.525130e+06   2.073473e-35   0.000000e+00   0.000000e+00
     1616000   1.615999e-05   1.635870e+01   3.154368e+01   2.699783e+01   1.006104e+06   9.043704e+05   7.041932e+05   1.277344e+03  -1.421034e+03   1.116849e-18   1.525130e+06   2.045600e-35   0.000000e+00   0.000000e+00
     1624000   1.623999e-05   1.643918e+01   3.161603e+01   2.705417e+01   1.006104e+06   9.043704e+05   7.041932e+05   1.312180e+03  -1.459789e+03  -1.834162e-20   1.525130e+06   2.158740e-35   0.000000e+00   0.000000e+00
     1632000   1.631999e-05   1.651967e+01   3.168838e+01   2.711050e+01   1.006104e+06   9.043704e+05   7.041932e+05   1.368785e+03  -1.522762e+03   1.544603e-18   1.525130e+06   2.348949e-35   0.000000e+00   0.000000e+00
     1640000   1.639999e-05   1.660016e+01   3.176073e+01   2.716684e+01   1.006104e+06   9.043704e+05   7.041932e+05   1.409379e+03  -1.567922e+03  -6.808611e-19   1.525130e+06   2.490359e-35   0.000000e+00   0.000000e+00
     1648000   1.647999e-05   1.668065e+01   3.183308e+01   2.722317e+01   1.006104e+06   9.043704e+05   7.041932e+05   1.455254e+03  -1.618958e+03   2.086114e-18   1.525130e+06   2.655074e-35   0.000000e+00   0.000000e+00
     1656000   1.655999e-05   1.676114e+01   3.190543e+01   2.727951e+01   1.006104e+06   9.043704e+05   7.041932e+05   1.468178e+03  -1.633336e+03   1.464260e-18   1.525130e+06   2.702450e-35   0.000000e+00   0.000000e+00
     1664000   1.663999e-05   1.684163e+01   3.197778e+01   2.733584e+01   1.006104e+06   9.043704e+05   7.041932e+05   1.477325e+03  -1.643512e+03   1.688635e-18   1.525130e+06   2.736253e-35   0.000000e+00   0.000000e+00
     1672000   1.671999e-05   1.692211e+01   3.205013e+01   2.739218e+01   1.006104e+06   9.043704e+05   7.041932e+05   1.472728e+03  -1.638397e+03  -5.618274e-19   1.525130e+06   2.719225e-35   0.000000e+00   0.000000e+00
     1680000   1.679999e-05   1.700260e+01   3.212248e+01   2.744852e+01   1.006104e+06   9.043704e+05   7.041932e+05   1.525293e+03  -1.696875e+03   5.662212e-19   1.525130e+06   2.916842e-35   0.000000e+00   0.000000e+00
     1688000   1.687999e-05   1.708309e+01   3.219483e+01   2.750485e+01   1.006104e+06   9.043704e+05   7.041932e+05   1.564335e+03  -1.740309e+03  -3.935691e-18   1.525130e+06   3.068027e-35   0.000000e+00   0.000000e+00
     1696000   1.695999e-05   1.716358e+01   3.226718e+01   2.756119e+01   1.006104e+06   9.043704e+05   7.041932e+05   1.558233e+03  -1.733521e+03   3.918607e-19   1.525130e+06   3.044167e-35   0.000000e+00   0.000000e+00
     1704000   1.703999e-05   1.724407e+01   3.233953e+01   2.761752e+01   1.006104e+06   9.043704e+05   7.041932e+05   1.559317e+03  -1.734727e+03  -2.137891e-18   1.525130e+06   3.048401e-35   0.000000e+00   0.000000e+00
     1712000   1.711999e-05   1.732456e+01   3.241188e+01   2.767386e+01   1.006104e+06   9.043704e+05   7.041932e+05   1.533989e+03  -1.706550e+03  -1.722376e-18   1.525130e+06   2.950177e-35   0.000000e+00   0.000000e+00
     1720000   1.719999e-05   1.740504e+01   3.248423e+01   2.773019e+01   1.006104e+06   9.043704e+05   7.041932e+05   1.526959e+03  -1.698729e+03   2.608549e-18   1.525130e+06   2.923241e-35   0.000000e+00   0.000000e+00
     1728000   1.727999e-05   1.748553e+01   3.255658e+01   2.778653e+01   1.006104e+06   9.043704e+05   7.041932e+05   1.615536e+03  -1.797270e+03  -2.737959e-18   1.525130e+06   3.272146e-35   0.000000e+00   0.000000e+00
     1736000   1.735999e-05   1.756602e+01   3.262893e+01   2.784286e+01   1.006104e+06   9.043704e+05   7.041932e+05   1.578259e+03  -1.755800e+03  -2.381234e-18   1.525130e+06   3.122909e-35   0.000000e+00   0.000000e+00
     1744000   1.743999e-05   1.764651e+01   3.270128e+01   2.789920e+01   1.006104e+06   9.043704e+05   7.041932e+05   1.556668e+03  -1.731780e+03   3.396401e-18   1.525130e+06   3.038086e-35   0.000000e+00   0.000000e+00
     1752000   1.751999e-05   1.772700e+01   3.277363e+01   2.795553e+01   1.006104e+06   9.043704e+05   7.041932e+05   1.536244e+03  -1.709059e+03   1.750440e-18   1.525130e+06   2.958903e-35   0.000000e+00   0.000000e+00
     1760000   1.759999e-05   1.780749e+01   3.284598e+01   2.801187e+01   1.006104e+06   9.043704e+05   7.041932e+05   1.535519e+03  -1.708253e+03  -2.848379e-18   1.525130e+06   2.956097e-35   0.000000e+00   0.000000e+00
     1768000   1.767999e-05   1.788797e+01   3.291833e+01   2.806821e+01   1.006104e+06   9.043704e+05   7.041932e+05   1.523560e+03  -1.694948e+03  -1.732479e-18   1.525130e+06   2.910186e-35   0.000000e+00   0.000000e+00
     1776000   1.775999e-05   1.796846e+01   3.299068e+01   2.812454e+01   1.006104e+06   9.043704e+05   7.041932e+05   1.520731e+03  -1.691800e+03  -1.831414e-18   1.525130e+06   2.899393e-35   0.000000e+00   0.000000e+00
     1784000   1.783999e-05   1.804895e+01   3.306302e+01   2.818088e+01   1.006104e+06   9.043704e+05   7.041932e+05   1.498700e+03  -1.667291e+03  -1.231166e-18   1.525130e+06   2.815990e-35   0.000000e+00   0.000000e+00
     1792000   1.791999e-05   1.812944e+01   3.313537e+01   2.823721e+01   1.006104e+06   9.043704e+05   7.041932e+05   1.419868e+03  -1.579591e+03   4.498794e-19   1.525130e+06   2.527560e-35   0.000000e+00   0.000000e+00
     1800000   1.799999e-05   1.820993e+01   3.320772e+01   2.829355e+01   1.006104e+06   9.043704e+05   7.041932e+05   1.399276e+03  -1.556683e+03   5.707078e-19   1.525130e+06   2.454791e-35   0.000000e+00   0.000000e+00
     1808000   1.807999e-05   1.829042e+01   3.328007e+01   2.834988e+01   1.006104e+06   9.043704e+05   7.041932e+05   1.404300e+03  -1.562272e+03   3.929568e-18   1.525130e+06   2.472432e-35   0.000000e+00   0.000000e+00
     1816000   1.815999e-05   1.837090e+01   3.335242e+01   2.840622e+01   1.006104e+06   9.043704e+05   7.041932e+05   1.346549e+03  -1.498024e+03  -1.297870e-18   1.525130e+06   2.273290e-35   0.000000e+00   0.000000e+00
     1824000   1.823999e-05   1.845139e+01   3.342477e+01   2.846255e+01   1.006104e+06   9.043704e+05   7.041932e+05   1.287756e+03  -1.432617e+03   6.450750e-19   1.525130e+06   2.079122e-35   0.000000e+00   0.000000e+00
     1832000   1.831999e-05   1.853188e+01   3.349712e+01   2.851889e+01   1.006104e+06   9.043704e+05   7.041932e+05   1.340117e+03  -1.490869e+03   1.859801e-18   1.525130e+06   2.251599e-35   0.000000e+00   0.000000e+00
     1840000   1.839999e-05   1.861237e+01   3.356947e+01   2.857522e+01   1.006104e+06   9.043704e+05   7.041932e+05   1.260949e+03  -1.402796e+03   2.338252e-18   1.525130e+06   1.993424e-35   0.000000e+00   0.000000e+00
     1848000   1.847999e-05   1.869286e+01   3.364182e+01   2.863156e+01   1.006104e+06   9.043704e+05   7.041932e+05   1.197209e+03  -1.331885e+03   1.971083e-18   1.525130e+06   1.797012e-35   0.000000e+00   0.000000e+00
     1856000   1.855999e-05   1.877335e+01   3.371417e+01   2.868790e+01   1.006104e+06   9.043704e+05   7.041932e+05   1.172097e+03  -1.303948e+03  -6.043043e-19   1.525130e+06   1.722397e-35   0.000000e+00   0.000000e+00
     1864000   1.863999e-05   1.885383e+01   3.378652e+01   2.874423e+01   1.006104e+06   9.043704e+05   7.041932e+05   1.116024e+03  -1.241567e+03  -2.199174e-18   1.525130e+06   1.561542e-35   0.000000e+00   0.000000e+00
     1872000   1.871999e-05   1.893432e+01   3.385887e+01   2.880057e+01   1.006104e+06   9.043704e+05   7.041932e+05   1.056946e+03  -1.175843e+03   5.065525e-19   1.525130e+06   1.400614e-35   0.000000e+00   0.000000e+00
     1880000   1.879999e-05   1.901481e+01   3.393122e+01   2.885690e+01   1.006104e+06   9.043704e+05   7.041932e+05   1.012355e+03  -1.126237e+03  -1.820071e-18   1.525130e+06   1.284889e-35   0.000000e+00   0.000000e+00
     1888000   1.887999e-05   1.909530e+01   3.400357e+01   2.891324e+01   1.006104e+06   9.043704e+05   7.041932e+05   9.685579e+02  -1.077512e+03  -4.720981e-19   1.525130e+06   1.176161e-35   0.000000e+00   0.000000e+00
     1896000   1.895999e-05   1.917579e+01   3.407592e+01   2.896957e+01   1.006104e+06   9.043704e+05   7.041932e+05   8.513908e+02  -9.471651e+02   9.926569e-19   1.525130e+06   9.088190e-36   0.000000e+00   0.000000e+00
     1904000   1.903999e-05   1.925628e+01   3.414827e+01   2.902591e+01   1.006104e+06   9.043704e+05   7.041932e+05   8.285444e+02  -9.217487e+02  -2.696346e-19   1.525130e+06   8.606972e-36   0.000000e+00   0.000000e+00
     1912000   1.911999e-05   1.933676e+01   3.422062e+01   2.908224e+01   1.006104e+06   9.043704e+05   7.041932e+05   7.811903e+02  -8.690677e+02   5.734508e-20   1.525130e+06   7.651249e-36   0.000000e+00   0.000000e+00
     1920000   1.919999e-05   1.941725e+01   3.429297e+01   2.913858e+01   1.006104e+06   9.043704e+05   7.041932e+05   7.195361e+02  -8.004779e+02  -1.167583e-18   1.525130e+06   6.491184e-36   0.000000e+00   0.000000e+00
     1928000   1.927999e-05   1.949774e+01   3.436532e+01   2.919491e+01   1.006104e+06   9.043704e+05   7.041932e+05   7.316406e+02  -8.139441e+02   8.478262e-19   1.525130e+06   6.711226e-36   0.000000e+00   0.000000e+00
     1936000   1.935999e-05   1.957823e+01   3.443767e+01   2.925125e+01   1.006104e+06   9.043704e+05   7.041932e+05   6.459584e+02  -7.186232e+02  -1.517192e-18   1.525130e+06   5.231417e-36   0.000000e+00   0.000000e+00
     1944000   1.943999e-05   1.965872e+01   3.451002e+01   2.930759e+01   1.006104e+06   9.043704e+05   7.041932e+05   5.978116e+02  -6.650604e+02  -6.397105e-19   1.525130e+06   4.480795e-36   0.000000e+00   0.000000e+00
     1952000   1.951999e-05   1.973921e+01   3.458237e+01   2.936392e+01   1.006104e+06   9.043704e+05   7.041932e+05   5.104911e+02  -5.679170e+02   5.627410e-19   1.525130e+06   3.267387e-36   0.000000e+00   0.000000e+00
     1960000   1.959999e-05   1.981970e+01   3.465472e+01   2.942026e+01   1.006104e+06   9.043704e+05   7.041932e+05   4.541719e+02  -5.052624e+02   1.636616e-18   1.525130e+06   2.586073e-36   0.000000e+00   0.000000e+00
     1968000   1.967999e-05   1.990018e+01   3.472707e+01   2.947659e+01   1.006104e+06   9.043704e+05   7.041932e+05   4.192814e+02  -4.664470e+02   4.222128e-19   1.525130e+06   2.203996e-36   0.000000e+00   0.000000e+00
     1976000   1.975999e-05   1.998067e+01   3.479942e+01   2.953293e+01   1.006104e+06   9.043704e+05   7.041932e+05   3.434761e+02  -3.821143e+02   1.431348e-19   1.525130e+06   1.479185e-36   0.000000e+00   0.000000e+00
     1984000   1.983999e-05   2.006116e+01   3.487177e+01   2.958926e+01   1.006104e+06   9.043704e+05   7.041932e+05   2.792254e+02  -3.106359e+02  -3.162934e-20   1.525130e+06   9.775972e-37   0.000000e+00   0.000000e+00
     1992000   1.991999e-05   2.014165e+01   3.494412e+01   2.964560e+01   1.006104e+06   9.043704e+05   7.041932e+05   2.476347e+02  -2.630578e+02  -1.596818e+01   1.525130e+06   7.328154e-37   0.000000e+00   0.000000e+00
     2000000   1.999999e-05   2.022214e+01   3.501646e+01   2.970193e+01   1.006104e+06   9.043704e+05   7.041932e+05   2.089043e+02  -2.242076e+02  -1.052665e+01   1.525130e+06   5.267850e-37   0.000000e+00   0.000000e+00
     2008000   2.007999e-05   2.030263e+01   3.508881e+01   2.975827e+01   1.006104e+06   9.043704e+05   7.041932e+05   1.948719e+02  -1.960388e+02  -2.665438e+01   1.525130e+06   4.321105e-37   0.000000e+00   0.000000e+00
     2016000   2.015999e-05   2.038311e+01   3.516116e+01   2.981460e+01   1.006104e+06   9.043704e+05   7.041932e+05   6.196879e+01  -1.338071e+02   8.330682e+01   1.525130e+06   1.607284e-37   0.000000e+00   0.000000e+00
     2024000   2.023999e-05   2.046360e+01   3.523351e+01   2.987094e+01   1.006104e+06   9.043704e+05   7.041932e+05   2.730340e+01  -2.844874e+01  -2.473575e+00   1.525130e+06   8.755760e-39   0.000000e+00   0.000000e+00
     2032000   2.031999e-05   2.054409e+01   3.530586e+01   2.992728e+01   1.006104e+06   9.043704e+05   7.041932e+05   3.857865e+00  -8.676068e+00   5.630506e+00   1.525130e+06   6.811751e-40   0.000000e+00   0.000000e+00
     2040000   2.039999e-05   2.062458e+01   3.537821e+01   2.998361e+01   1.006104e+06   9.043704e+05   7.041932e+05   7.000734e+00  -2.896753e+01   2.719978e+01   1.525130e+06   9.120367e-39   0.000000e+00   0.000000e+00
     2048000   2.047999e-05   2.070507e+01   3.545056e+01   3.003995e+01   1.006104e+06   9.043704e+05   7.041932e+05  -8.535995e+01   8.115199e+01   1.773599e+01   1.525130e+06   7.947934e-38   0.000000e+00   0.000000e+00
     2056000   2.055999e-05   2.078556e+01   3.552291e+01   3.009628e+01   1.006104e+06   9.043704e+05   7.041932e+05  -1.230794e+02   1.216059e+02   1.967347e+01   1.525130e+06   1.698917e-37   0.000000e+00   0.000000e+00
     2064000   2.063999e-05   2.086604e+01   3.559526e+01   3.015262e+01   1.006104e+06   9.043704e+05   7.041932e+05  -1.072395e+02   1.361206e+02  -2.159817e+01   1.525130e+06   1.708621e-37   0.000000e+00   0.000000e+00
     2072000   2.071999e-05   2.094653e+01   3.566761e+01   3.020895e+01   1.006104e+06   9.043704e+05   7.041932e+05  -1.814742e+02   2.018886e+02   2.915436e-19   1.525130e+06   4.128852e-37   0.000000e+00   0.000000e+00
     2080000   2.079999e-05   2.102702e+01   3.573996e+01   3.026529e+01   1.006104e+06   9.043704e+05   7.041932e+05  -2.328026e+02   2.589909e+02  -4.204232e-20   1.525130e+06   6.794985e-37   0.000000e+00   0.000000e+00
     2088000   2.087999e-05   2.110751e+01   3.581231e+01   3.032162e+01   1.006104e+06   9.043704e+05   7.041932e+05  -2.507955e+02   2.790078e+02   5.189896e-19   1.525130e+06   7.885161e-37   0.000000e+00   0.000000e+00
     2096000   2.095999e-05   2.118800e+01   3.588466e+01   3.037796e+01   1.006104e+06   9.043704e+05   7.041932e+05  -3.286983e+02   3.656741e+02  -1.257142e-19   1.525130e+06   1.354485e-36   0.000000e+00   0.000000e+00
     2104000   2.103999e-05   2.126849e+01   3.595701e+01   3.043429e+01   1.006104e+06   9.043704e+05   7.041932e+05  -3.182909e+02   3.540960e+02  -7.891756e-19   1.525130e+06   1.270143e-36   0.000000e+00   0.000000e+00
     2112000   2.111999e-05   2.134897e+01   3.602936e+01   3.049063e+01   1.006104e+06   9.043704e+05   7.041932e+05  -3.785548e+02   4.211390e+02  -7.394526e-19   1.525130e+06   1.796519e-36   0.000000e+00   0.000000e+00
     2120000   2.119999e-05   2.142946e+01   3.610171e+01   3.054697e+01   1.006104e+06   9.043704e+05   7.041932e+05  -3.771755e+02   4.196046e+02  -2.737842e-19   1.525130e+06   1.783440e-36   0.000000e+00   0.000000e+00
     2128000   2.127999e-05   2.150995e+01   3.617406e+01   3.060330e+01   1.006104e+06   9.043704e+05   7.041932e+05  -4.022325e+02   4.474803e+02   4.963600e-19   1.525130e+06   2.028519e-36   0.000000e+00   0.000000e+00
     2136000   2.135999e-05   2.159044e+01   3.624641e+01   3.065964e+01   1.006104e+06   9.043704e+05   7.041932e+05  -4.563599e+02   5.076966e+02   4.116383e-19   1.525130e+06   2.610990e-36   0.000000e+00   0.000000e+00
     2144000   2.143999e-05   2.167093e+01   3.631876e+01   3.071597e+01   1.006104e+06   9.043704e+05   7.041932e+05  -4.493941e+02   4.999471e+02  -3.330095e-19   1.525130e+06   2.531962e-36   0.000000e+00   0.000000e+00
     2152000   2.151999e-05   2.175142e+01   3.639111e+01   3.077231e+01   1.006104e+06   9.043704e+05   7.041932e+05  -5.141123e+02   5.719456e+02   5.062464e-20   1.525130e+06   3.313627e-36   0.000000e+00   0.000000e+00
     2160000   2.159999e-05   2.183190e+01   3.646346e+01   3.082864e+01   1.006104e+06   9.043704e+05   7.041932e+05  -5.075436e+02   5.646380e+02  -1.267882e-18   1.525130e+06   3.229570e-36   0.000000e+00   0.000000e+00
     2168000   2.167999e-05   2.191239e+01   3.653581e+01   3.088498e+01   1.006104e+06   9.043704e+05   7.041932e+05  -4.779013e+02   5.316612e+02   3.952449e-19   1.525130e+06   2.863439e-36   0.000000e+00   0.000000e+00
     2176000   2.175999e-05   2.199288e+01   3.660816e+01   3.094131e+01   1.006104e+06   9.043704e+05   7.041932e+05  -5.276916e+02   5.870525e+02   4.339252e-20   1.525130e+06   3.491135e-36   0.000000e+00   0.000000e+00
     2184000   2.183999e-05   2.207337e+01   3.668051e+01   3.099765e+01   1.006104e+06   9.043704e+05   7.041932e+05  -5.730806e+02   6.375473e+02   7.729120e-19   1.525130e+06   4.117459e-36   0.000000e+00   0.000000e+00
     2192000   2.191999e-05   2.215386e+01   3.675286e+01   3.105398e+01   1.006104e+06   9.043704e+05   7.041932e+05  -5.469876e+02   6.085191e+02  -2.471842e-19   1.525130e+06   3.751147e-36   0.000000e+00   0.000000e+00
     2200000   2.199999e-05   2.223435e+01   3.682521e+01   3.111032e+01   1.006104e+06   9.043704e+05   7.041932e+05  -5.800657e+02   6.453182e+02   2.933940e-19   1.525130e+06   4.218495e-36   0.000000e+00   0.000000e+00
     2208000   2.207999e-05   2.231483e+01   3.689756e+01   3.116666e+01   1.006104e+06   9.043704e+05   7.041932e+05  -6.089934e+02   6.775001e+02   6.530347e-19   1.525130e+06   4.649764e-36   0.000000e+00   0.000000e+00
     2216000   2.215999e-05   2.239532e+01   3.696990e+01   3.122299e+01   1.006104e+06   9.043704e+05   7.041932e+05  -5.662554e+02   6.299543e+02   5.468321e-19   1.525130e+06   4.020089e-36   0.000000e+00   0.000000e+00
     2224000   2.223999e-05   2.247581e+01   3.704225e+01   3.127933e+01   1.006104e+06   9.043704e+05   7.041932e+05  -5.457359e+02   6.071266e+02  -7.935590e-19   1.525130e+06   3.734100e-36   0.000000e+00   0.000000e+00
     2232000   2.231999e-05   2.255630e+01   3.711460e+01   3.133566e+01   1.006104e+06   9.043704e+05   7.041932e+05  -6.091416e+02   6.776649e+02  -8.701423e-19   1.525130e+06   4.652107e-36   0.000000e+00   0.000000e+00
     2240000   2.239999e-05   2.263679e+01   3.718695e+01   3.139200e+01   1.006104e+06   9.043704e+05   7.041932e+05  -6.358617e+02   7.073908e+02  -3.697893e-19   1.525130e+06   5.069016e-36   0.000000e+00   0.000000e+00
     2248000   2.247999e-05   2.271728e+01   3.725930e+01   3.144833e+01   1.006104e+06   9.043704e+05   7.041932e+05  -6.220908e+02   6.920708e+02  -3.259861e-20   1.525130e+06   4.851826e-36   0.000000e+00   0.000000e+00
     2256000   2.255999e-05   2.279776e+01   3.733165e+01   3.150467e+01   1.006104e+06   9.043704e+05   7.041932e+05  -6.427903e+02   7.150988e+02   2.813614e-19   1.525130e+06   5.180074e-36   0.000000e+00   0.000000e+00
     2264000   2.263999e-05   2.287825e+01   3.740400e+01   3.156100e+01   1.006104e+06   9.043704e+05   7.041932e+05  -6.041209e+02   6.720794e+02  -4.492439e-19   1.525130e+06   4.575767e-36   0.000000e+00   0.000000e+00
     2272000   2.271999e-05   2.295874e+01   3.747635e+01   3.161734e+01   1.006104e+06   9.043704e+05   7.041932e+05  -6.505250e+02   7.237036e+02  -1.239602e-19   1.525130e+06   5.305495e-36   0.000000e+00   0.000000e+00
     2280000   2.279999e-05   2.303923e+01   3.754870e+01   3.167368e+01   1.006104e+06   9.043704e+05   7.041932e+05  -6.237378e+02   6.939031e+02   3.385364e-19   1.525130e+06   4.877621e-36   0.000000e+00   0.000000e+00
     2288000   2.287999e-05   2.311972e+01   3.762105e+01   3.173001e+01   1.006104e+06   9.043704e+05   7.041932e+05  -6.192786e+02   6.889423e+02  -4.545468e-19   1.525130e+06   4.808125e-36   0.000000e+00   0.000000e+00
     2296000   2.295999e-05   2.320021e+01   3.769340e+01   3.178635e+01   1.006104e+06   9.043704e+05   7.041932e+05  -6.419048e+02   7.141137e+02   1.533188e-19   1.525130e+06   5.165753e-36   0.000000e+00   0.000000e+00
     2304000   2.303999e-05   2.328069e+01   3.776575e+01   3.184268e+01   1.006104e+06   9.043704e+05   7.041932e+05  -6.337481e+02   7.050395e+02   1.520620e-18   1.525130e+06   5.035446e-36   0.000000e+00   0.000000e+00
     2312000   2.311999e-05   2.336118e+01   3.783810e+01   3.189902e+01   1.006104e+06   9.043704e+05   7.041932e+05  -5.873281e+02   6.533976e+02  -5.948642e-19   1.525130e+06   4.324881e-36   0.000000e+00   0.000000e+00
     2320000   2.319999e-05   2.344167e+01   3.791045e+01   3.195535e+01   1.006104e+06   9.043704e+05   7.041932e+05  -6.094187e+02   6.779732e+02   9.509692e-19   1.525130e+06   4.656236e-36   0.000000e+00   0.000000e+00
     2328000   2.327999e-05   2.352216e+01   3.798280e+01   3.201169e+01   1.006104e+06   9.043704e+05   7.041932e+05  -6.522487e+02   7.256212e+02  -4.862838e-19   1.525130e+06   5.333636e-36   0.000000e+00   0.000000e+00
     2336000   2.335999e-05   2.360265e+01   3.805515e+01   3.206802e+01   1.006104e+06   9.043704e+05   7.041932e+05  -5.729001e+02   6.373466e+02  -7.824506e-19   1.525130e+06   4.114806e-36   0.000000e+00   0.000000e+00
     2344000   2.343999e-05   2.368314e+01   3.812750e+01   3.212436e+01   1.006104e+06   9.043704e+05   7.041932e+05  -6.659662e+02   7.408818e+02  -1.702491e-18   1.525130e+06   5.560324e-36   0.000000e+00   0.000000e+00
     2352000   2.351999e-05   2.376362e+01   3.819985e+01   3.218069e+01   1.006104e+06   9.043704e+05   7.041932e+05  -4.998411e+02   5.560690e+02   5.763887e-19   1.525130e+06   3.132596e-36   0.000000e+00   0.000000e+00
     2360000   2.359999e-05   2.384411e+01   3.827220e+01   3.223703e+01   1.006104e+06   9.043704e+05   7.041932e+05  -6.202331e+02   6.900041e+02  -2.349992e-19   1.525130e+06   4.822969e-36   0.000000e+00   0.000000e+00
     2368000   2.367999e-05   2.392460e+01   3.834455e+01   3.229337e+01   1.006104e+06   9.043704e+05   7.041932e+05  -6.288984e+02   6.996442e+02  -1.022277e-18   1.525130e+06   4.958575e-36   0.000000e+00   0.000000e+00
     2376000   2.375999e-05   2.400509e+01   3.841690e+01   3.234970e+01   1.006104e+06   9.043704e+05   7.041932e+05  -5.748204e+02   6.394829e+02   8.671628e-19   1.525130e+06   4.142548e-36   0.000000e+00   0.000000e+00
     2384000   2.383999e-05   2.408558e+01   3.848925e+01   3.240604e+01   1.006104e+06   9.043704e+05   7.041932e+05  -5.358340e+02   5.961108e+02   1.265315e-18   1.525130e+06   3.599768e-36   0.000000e+00   0.000000e+00
     2392000   2.391999e-05   2.416607e+01   3.856160e+01   3.246237e+01   1.006104e+06   9.043704e+05   7.041932e+05  -5.993709e+02   6.667950e+02  -1.855609e-20   1.525130e+06   4.503877e-36   0.000000e+00   0.000000e+00
     2400000   2.399999e-05   2.424655e+01   3.863395e+01   3.251871e+01   1.006104e+06   9.043704e+05   7.041932e+05  -5.775891e+02   6.425630e+02  -8.555345e-19   1.525130e+06   4.182297e-36   0.000000e+00   0.000000e+00
     2408000   2.407999e-05   2.432704e+01   3.870630e+01   3.257504e+01   1.006104e+06   9.043704e+05   7.041932e+05  -5.468220e+02   6.083349e+02  -2.945788e-19   1.525130e+06   3.748668e-36   0.000000e+00   0.000000e+00
     2416000   2.415999e-05   2.440753e+01   3.877865e+01   3.263138e+01   1.006104e+06   9.043704e+05   7.041932e+05  -5.262683e+02   5.854691e+02  -2.019636e-18   1.525130e+06   3.472371e-36   0.000000e+00   0.000000e+00
     2424000   2.423999e-05   2.448802e+01   3.885100e+01   3.268771e+01   1.006104e+06   9.043704e+05   7.041932e+05  -5.293810e+02   5.889319e+02   6.603208e-19   1.525130e+06   3.513439e-36   0.000000e+00   0.000000e+00
     2432000   2.431999e-05   2.456851e+01   3.892334e+01   3.274405e+01   1.006104e+06   9.043704e+05   7.041932e+05  -5.285154e+02   5.879690e+02   1.188732e-18   1.525130e+06   3.501989e-36   0.000000e+00   0.000000e+00
     2440000   2.439999e-05   2.464900e+01   3.899569e+01   3.280038e+01   1.006104e+06   9.043704e+05   7.041932e+05  -4.776869e+02   5.314227e+02  -1.365490e-19   1.525130e+06   2.860891e-36   0.000000e+00   0.000000e+00
     2448000   2.447999e-05   2.472948e+01   3.906804e+01   3.285672e+01   1.006104e+06   9.043704e+05   7.041932e+05  -5.305146e+02   5.901930e+02  -1.058725e-18   1.525130e+06   3.528511e-36   0.000000e+00   0.000000e+00
     2456000   2.455999e-05   2.480997e+01   3.914039e+01   3.291306e+01   1.006104e+06   9.043704e+05   7.041932e+05  -4.881019e+02   5.430093e+02  -1.281324e-19   1.525130e+06   2.986986e-36   0.000000e+00   0.000000e+00
     2464000   2.463999e-05   2.489046e+01   3.921274e+01   3.296939e+01   1.006104e+06   9.043704e+05   7.041932e+05  -5.065470e+02   5.635292e+02   1.484342e-18   1.525130e+06   3.216920e-36   0.000000e+00   0.000000e+00
     2472000   2.471999e-05   2.497095e+01   3.928509e+01   3.302573e+01   1.006104e+06   9.043704e+05   7.041932e+05  -4.688371e+02   5.215774e+02   7.348620e-21   1.525130e+06   2.755850e-36   0.000000e+00   0.000000e+00
     2480000   2.479999e-05   2.505144e+01   3.935744e+01   3.308206e+01   1.006104e+06   9.043704e+05   7.041932e+05  -4.810734e+02   5.351901e+02  -1.848558e-21   1.525130e+06   2.901462e-36   0.000000e+00   0.000000e+00
     2488000   2.487999e-05   2.513193e+01   3.942979e+01   3.313840e+01   1.006104e+06   9.043704e+05   7.041932e+05  -4.271929e+02   4.752485e+02  -6.159189e-19   1.525130e+06   2.287963e-36   0.000000e+00   0.000000e+00
     2496000   2.495999e-05   2.521241e+01   3.950214e+01   3.319473e+01   1.006104e+06   9.043704e+05   7.041932e+05  -4.645599e+02   5.168189e+02   1.346170e-18   1.525130e+06   2.705717e-36   0.000000e+00   0.000000e+00
     2504000   2.503999e-05   2.529290e+01   3.957449e+01   3.325107e+01   1.006104e+06   9.043704e+05   7.041932e+05  -4.079631e+02   4.538555e+02   4.791994e-19   1.525130e+06   2.086708e-36   0.000000e+00   0.000000e+00
     2512000   2.511999e-05   2.537339e+01   3.964684e+01   3.330740e+01   1.006104e+06   9.043704e+05   7.041932e+05  -3.998531e+02   4.448332e+02   6.881412e-19   1.525130e+06   2.004547e-36   0.000000e+00   0.000000e+00
     2520000   2.519999e-05   2.545388e+01   3.971919e+01   3.336374e+01   1.006104e+06   9.043704e+05   7.041932e+05  -4.165138e+02   4.633681e+02  -1.154205e-18   1.525130e+06   2.175107e-36   0.000000e+00   0.000000e+00
     2528000   2.527999e-05   2.553437e+01   3.979154e+01   3.342007e+01   1.006104e+06   9.043704e+05   7.041932e+05  -3.933277e+02   4.375737e+02   1.847509e-19   1.525130e+06   1.939651e-36   0.000000e+00   0.000000e+00
     2536000   2.535999e-05   2.561486e+01   3.986389e+01   3.347641e+01   1.006104e+06   9.043704e+05   7.041932e+05  -4.203257e+02   4.676088e+02  -3.034708e-19   1.525130e+06   2.215014e-36   0.000000e+00   0.000000e+00
     2544000   2.543999e-05   2.569534e+01   3.993624e+01   3.353275e+01   1.006104e+06   9.043704e+05   7.041932e+05  -4.082397e+02   4.541633e+02   2.039079e-19   1.525130e+06   2.089435e-36   0.000000e+00   0.000000e+00
     2552000   2.551999e-05   2.577583e+01   4.000859e+01   3.358908e+01   1.006104e+06   9.043704e+05   7.041932e+05  -3.549095e+02   3.948338e+02  -3.164283e-20   1.525130e+06   1.579257e-36   0.000000e+00   0.000000e+00
     2560000   2.559999e-05   2.585632e+01   4.008094e+01   3.364542e+01   1.006104e+06   9.043704e+05   7.041932e+05  -3.364700e+02   3.743200e+02  -4.114142e-19   1.525130e+06   1.419456e-36   0.000000e+00   0.000000e+00
     2568000   2.567999e-05   2.593681e+01   4.015329e+01   3.370175e+01   1.006104e+06   9.043704e+05   7.041932e+05  -3.616957e+02   4.023835e+02  -5.171144e-19   1.525130e+06   1.640232e-36   0.000000e+00   0.000000e+00
     2576000   2.575999e-05   2.601730e+01   4.022564e+01   3.375809e+01   1.006104e+06   9.043704e+05   7.041932e+05  -3.538746e+02   3.936825e+02  -3.422380e-19   1.525130e+06   1.569958e-36   0.000000e+00   0.000000e+00
     2584000   2.583999e-05   2.609779e+01   4.029799e+01   3.381442e+01   1.006104e+06   9.043704e+05   7.041932e+05  -3.248691e+02   3.614142e+02  -5.233011e-19   1.525130e+06   1.323219e-36   0.000000e+00   0.000000e+00
     2592000   2.591999e-05   2.617828e+01   4.037034e+01   3.387076e+01   1.006104e+06   9.043704e+05   7.041932e+05  -3.349683e+02   3.726494e+02  -6.188036e-19   1.525130e+06   1.406733e-36   0.000000e+00   0.000000e+00
     2600000   2.599999e-05   2.625876e+01   4.044269e+01   3.392709e+01   1.006104e+06   9.043704e+05   7.041932e+05  -3.168116e+02   3.524503e+02  -5.704893e-19   1.525130e+06   1.258436e-36   0.000000e+00   0.000000e+00
     2608000   2.607999e-05   2.633925e+01   4.051504e+01   3.398343e+01   1.006104e+06   9.043704e+05   7.041932e+05  -3.138402e+02   3.491446e+02   5.266389e-19   1.525130e+06   1.234765e-36   0.000000e+00   0.000000e+00
     2616000   2.615999e-05   2.641974e+01   4.058739e+01   3.403976e+01   1.006104e+06   9.043704e+05   7.041932e+05  -3.087682e+02   3.435021e+02  -2.367442e-19   1.525130e+06   1.195298e-36   0.000000e+00   0.000000e+00
     2624000   2.623999e-05   2.650023e+01   4.065974e+01   3.409610e+01   1.006104e+06   9.043704e+05   7.041932e+05  -3.062025e+02   3.406478e+02  -4.529854e-19   1.525130e+06   1.175439e-36   0.000000e+00   0.000000e+00
     2632000   2.631999e-05   2.658072e+01   4.073209e+01   3.415244e+01   1.006104e+06   9.043704e+05   7.041932e+05  -2.836013e+02   3.155040e+02  -2.517782e-19   1.525130e+06   1.008380e-36   0.000000e+00   0.000000e+00
     2640000   2.639999e-05   2.666121e+01   4.080444e+01   3.420877e+01   1.006104e+06   9.043704e+05   7.041932e+05  -2.788964e+02   3.102700e+02   1.858232e-19   1.525130e+06   9.752563e-37   0.000000e+00   0.000000e+00
     2648000   2.647999e-05   2.674169e+01   4.087678e+01   3.426511e+01   1.006104e+06   9.043704e+05   7.041932e+05  -2.747219e+02   3.056258e+02  -6.207422e-20   1.525130e+06   9.462246e-37   0.000000e+00   0.000000e+00
     2656000   2.655999e-05   2.682218e+01   4.094913e+01   3.432144e+01   1.006104e+06   9.043704e+05   7.041932e+05  -2.525590e+02   2.809698e+02   9.422833e-20   1.525130e+06   7.997106e-37   0.000000e+00   0.000000e+00
     2664000   2.663999e-05   2.690267e+01   4.102148e+01   3.437778e+01   1.006104e+06   9.043704e+05   7.041932e+05  -2.405408e+02   2.675996e+02  -1.189935e-19   1.525130e+06   7.253754e-37   0.000000e+00   0.000000e+00
     2672000   2.671999e-05   2.698316e+01   4.109383e+01   3.443411e+01   1.006104e+06   9.043704e+05   7.041932e+05  -3.077137e+02   3.423290e+02   8.246810e-19   1.525130e+06   1.187064e-36   0.000000e+00   0.000000e+00
     2680000   2.679999e-05   2.706365e+01   4.116618e+01   3.449045e+01   1.006104e+06   9.043704e+05   7.041932e+05  -2.836402e+02   3.155473e+02   2.535273e-20   1.525130e+06   1.008590e-36   0.000000e+00   0.000000e+00
     2688000   2.687999e-05   2.714414e+01   4.123853e+01   3.454678e+01   1.006104e+06   9.043704e+05   7.041932e+05  -2.447707e+02   2.723053e+02   1.440587e-20   1.525130e+06   7.511525e-37   0.000000e+00   0.000000e+00
     2696000   2.695999e-05   2.722462e+01   4.131088e+01   3.460312e+01   1.006104e+06   9.043704e+05   7.041932e+05  -2.185576e+02   2.431434e+02  -4.992272e-20   1.525130e+06   5.988646e-37   0.000000e+00   0.000000e+00
     2704000   2.703999e-05   2.730511e+01   4.138323e+01   3.465945e+01   1.006104e+06   9.043704e+05   7.041932e+05  -2.317334e+02   2.578014e+02  -3.537549e-20   1.525130e+06   6.732678e-37   0.000000e+00   0.000000e+00
     2712000   2.711999e-05   2.738560e+01   4.145558e+01   3.471579e+01   1.006104e+06   9.043704e+05   7.041932e+05  -1.782622e+02   1.983152e+02   4.037575e-22   1.525130e+06   3.984290e-37   0.000000e+00   0.000000e+00
     2720000   2.719999e-05   2.746609e+01   4.152793e+01   3.477213e+01   1.006104e+06   9.043704e+05   7.041932e+05  -1.861570e+02   2.070981e+02   9.120002e-20   1.525130e+06   4.345115e-37   0.000000e+00   0.000000e+00
     2728000   2.727999e-05   2.754658e+01   4.160028e+01   3.482846e+01   1.006104e+06   9.043704e+05   7.041932e+05  -2.023465e+02   2.251088e+02  -2.526598e-19   1.525130e+06   5.132828e-37   0.000000e+00   0.000000e+00
     2736000   2.735999e-05   2.762707e+01   4.167263e+01   3.488480e+01   1.006104e+06   9.043704e+05   7.041932e+05  -1.187128e+02   1.320670e+02  -2.846838e-19   1.525130e+06   1.767276e-37   0.000000e+00   0.000000e+00
     2744000   2.743999e-05   2.770755e+01   4.174498e+01   3.494113e+01   1.006104e+06   9.043704e+05   7.041932e+05  -2.056146e+02   2.287445e+02   2.484671e-19   1.525130e+06   5.300554e-37   0.000000e+00   0.000000e+00
     2752000   2.751999e-05   2.778804e+01   4.181733e+01   3.499747e+01   1.006104e+06   9.043704e+05   7.041932e+05  -1.898053e+02   2.111568e+02   2.483236e-19   1.525130e+06   4.516938e-37   0.000000e+00   0.000000e+00
     2760000   2.759999e-05   2.786853e+01   4.188968e+01   3.505380e+01   1.006104e+06   9.043704e+05   7.041932e+05  -1.406067e+02   1.564238e+02  -1.230537e-19   1.525130e+06   2.478810e-37   0.000000e+00   0.000000e+00
     2768000   2.767999e-05   2.794902e+01   4.196203e+01   3.511014e+01   1.006104e+06   9.043704e+05   7.041932e+05  -1.517548e+02   1.688260e+02   4.078945e-19   1.525130e+06   2.887676e-37   0.000000e+00   0.000000e+00
     2776000   2.775999e-05   2.802951e+01   4.203438e+01   3.516647e+01   1.006104e+06   9.043704e+05   7.041932e+05  -1.623015e+02   1.805591e+02   3.009202e-19   1.525130e+06   3.302433e-37   0.000000e+00   0.000000e+00
     2784000   2.783999e-05   2.811000e+01   4.210673e+01   3.522281e+01   1.006104e+06   9.043704e+05   7.041932e+05  -1.486776e+02   1.654026e+02   5.645042e-20   1.525130e+06   2.771496e-37   0.000000e+00   0.000000e+00
     2792000   2.791999e-05   2.819048e+01   4.217908e+01   3.527914e+01   1.006104e+06   9.043704e+05   7.041932e+05  -1.236333e+02   1.375411e+02  -1.041367e-19   1.525130e+06   1.916453e-37   0.000000e+00   0.000000e+00
     2800000   2.799999e-05   2.827097e+01   4.225143e+01   3.533548e+01   1.006104e+06   9.043704e+05   7.041932e+05  -1.771007e+02   1.970230e+02   5.805052e-19   1.525130e+06   3.931949e-37   0.000000e+00   0.000000e+00
     2808000   2.807999e-05   2.835146e+01   4.232378e+01   3.539182e+01   1.006104e+06   9.043704e+05   7.041932e+05  -1.243429e+02   1.383304e+02  -1.384242e-19   1.525130e+06   1.938630e-37   0.000000e+00   0.000000e+00
     2816000   2.815999e-05   2.843195e+01   4.239613e+01   3.544815e+01   1.006104e+06   9.043704e+05   7.041932e+05  -1.153919e+02   1.283726e+02   2.480163e-19   1.525130e+06   1.669547e-37   0.000000e+00   0.000000e+00
     2824000   2.823999e-05   2.851244e+01   4.246848e+01   3.550449e+01   1.006104e+06   9.043704e+05   7.041932e+05  -1.411134e+02   1.569874e+02  -1.133989e-19   1.525130e+06   2.496514e-37   0.000000e+00   0.000000e+00
     2832000   2.831999e-05   2.859293e+01   4.254083e+01   3.556082e+01   1.006104e+06   9.043704e+05   7.041932e+05  -1.142616e+02   1.271151e+02   1.784699e-20   1.525130e+06   1.636933e-37   0.000000e+00   0.000000e+00
     2840000   2.839999e-05   2.867341e+01   4.261318e+01   3.561716e+01   1.006104e+06   9.043704e+05   7.041932e+05  -1.093185e+02   1.216159e+02   3.288661e-20   1.525130e+06   1.498428e-37   0.000000e+00   0.000000e+00
     2848000   2.847999e-05   2.875390e+01   4.268553e+01   3.567349e+01   1.006104e+06   9.043704e+05   7.041932e+05  -1.462599e+02   1.627129e+02   1.940109e-19   1.525130e+06   2.681827e-37   0.000000e+00   0.000000e+00
     2856000   2.855999e-05   2.883439e+01   4.275788e+01   3.572983e+01   1.006104e+06   9.043704e+05   7.041932e+05  -1.480619e+02   1.647176e+02   2.118893e-19   1.525130e+06   2.748385e-37   0.000000e+00   0.000000e+00
     2864000   2.863999e-05   2.891488e+01   4.283022e+01   3.578616e+01   1.006104e+06   9.043704e+05   7.041932e+05  -1.111821e+02   1.236891e+02   9.909165e-20   1.525130e+06   1.549684e-37   0.000000e+00   0.000000e+00
     2872000   2.871999e-05   2.899537e+01   4.290257e+01   3.584250e+01   1.006104e+06   9.043704e+05   7.041932e+05  -1.216090e+02   1.352890e+02  -2.370806e-19   1.525130e+06   1.853993e-37   0.000000e+00   0.000000e+00
     2880000   2.879999e-05   2.907586e+01   4.297492e+01   3.589883e+01   1.006104e+06   9.043704e+05   7.041932e+05  -5.789864e+01   6.441175e+01   4.429220e-21   1.525130e+06   4.203955e-38   0.000000e+00   0.000000e+00
     2888000   2.887999e-05   2.915634e+01   4.304727e+01   3.595517e+01   1.006104e+06   9.043704e+05   7.041932e+05  -1.114598e+02   1.239981e+02  -6.188911e-20   1.525130e+06   1.557644e-37   0.000000e+00   0.000000e+00
     2896000   2.895999e-05   2.923683e+01   4.311962e+01   3.601151e+01   1.006104e+06   9.043704e+05   7.041932e+05  -1.060512e+02   1.179810e+02   2.579313e-19   1.525130e+06   1.410001e-37   0.000000e+00   0.000000e+00
     2904000   2.903999e-05   2.931732e+01   4.319197e+01   3.606784e+01   1.006104e+06   9.043704e+05   7.041932e+05  -8.721303e+01   9.702376e+01  -4.198177e-21   1.525130e+06   9.536209e-38   0.000000e+00   0.000000e+00
     2912000   2.911999e-05   2.939781e+01   4.326432e+01   3.612418e+01   1.006104e+06   9.043704e+05   7.041932e+05  -7.361338e+01   8.189426e+01   1.873576e-19   1.525130e+06   6.794767e-38   0.000000e+00   0.000000e+00
     2920000   2.919999e-05   2.947830e+01   4.333667e+01   3.618051e+01   1.006104e+06   9.043704e+05   7.041932e+05  -1.113264e+02   1.238496e+02  -6.241403e-20   1.525130e+06   1.553652e-37   0.000000e+00   0.000000e+00
     2928000   2.927999e-05   2.955879e+01   4.340902e+01   3.623685e+01   1.006104e+06   9.043704e+05   7.041932e+05  -7.771776e+01   8.646035e+01   1.219780e-19   1.525130e+06   7.572705e-38   0.000000e+00   0.000000e+00
     2936000   2.935999e-05   2.963927e+01   4.348137e+01   3.629318e+01   1.006104e+06   9.043704e+05   7.041932e+05  -3.913292e+01   4.353504e+01  -3.027327e-20   1.525130e+06   1.920481e-38   0.000000e+00   0.000000e+00
     2944000   2.943999e-05   2.971976e+01   4.355372e+01   3.634952e+01   1.006104e+06   9.043704e+05   7.041932e+05  -8.603769e+01   9.571621e+01  -9.188310e-20   1.525130e+06   9.281630e-38   0.000000e+00   0.000000e+00
     2952000   2.951999e-05   2.980025e+01   4.362607e+01   3.640585e+01   1.006104e+06   9.043704e+05   7.041932e+05  -5.568695e+01   6.195127e+01  -1.206753e-19   1.525130e+06   3.887482e-38   0.000000e+00   0.000000e+00
     2960000   2.959999e-05   2.988074e+01   4.369842e+01   3.646219e+01   1.006104e+06   9.043704e+05   7.041932e+05  -7.798092e+01   8.675312e+01  -7.607855e-20   1.525130e+06   7.623434e-38   0.000000e+00   0.000000e+00
     2968000   2.967999e-05   2.996123e+01   4.377077e+01   3.651852e+01   1.006104e+06   9.043704e+05   7.041932e+05  -7.764153e+01   8.637555e+01  -3.869878e-20   1.525130e+06   7.557067e-38   0.000000e+00   0.000000e+00
     2976000   2.975999e-05   3.004172e+01   4.384312e+01   3.657486e+01   1.006104e+06   9.043704e+05   7.041932e+05  -4.369451e+01   4.860977e+01   1.460533e-19   1.525130e+06   2.394799e-38   0.000000e+00   0.000000e+00
     2984000   2.983999e-05   3.012220e+01   4.391547e+01   3.663120e+01   1.006104e+06   9.043704e+05   7.041932e+05  -6.607329e+01   7.350598e+01  -4.513904e-20   1.525130e+06   5.473826e-38   0.000000e+00   0.000000e+00
     2992000   2.991999e-05   3.020269e+01   4.398782e+01   3.668753e+01   1.006104e+06   9.043704e+05   7.041932e+05  -4.498177e+01   5.004184e+01  -7.358129e-20   1.525130e+06   2.536626e-38   0.000000e+00   0.000000e+00
     3000000   2.999999e-05   3.028318e+01   4.406017e+01   3.674387e+01   1.006104e+06   9.043704e+05   7.041932e+05  -3.847365e+01   4.280161e+01   2.104021e-20   1.525130e+06   1.856399e-38   0.000000e+00   0.000000e+00
     3008000   3.007999e-05   3.036367e+01   4.413252e+01   3.680020e+01   1.006104e+06   9.043704e+05   7.041932e+05  -5.243673e+01   5.833542e+01   2.913989e-20   1.525130e+06   3.447525e-38   0.000000e+00   0.000000e+00
     3016000   3.015999e-05   3.044416e+01   4.420487e+01   3.685654e+01   1.006104e+06   9.043704e+05   7.041932e+05  -6.683102e+01   7.434895e+01  -6.017754e-20   1.525130e+06   5.599657e-38   0.000000e+00   0.000000e+00
     3024000   3.023999e-05   3.052465e+01   4.427722e+01   3.691287e+01   1.006104e+06   9.043704e+05   7.041932e+05  -3.556655e+01   3.956749e+01  -6.056281e-20   1.525130e+06   1.586302e-38   0.000000e+00   0.000000e+00
     3032000   3.031999e-05   3.060513e+01   4.434957e+01   3.696921e+01   1.006104e+06   9.043704e+05   7.041932e+05  -6.177821e+01   6.872774e+01   1.322418e-19   1.525130e+06   4.784901e-38   0.000000e+00   0.000000e+00
     3040000   3.039999e-05   3.068562e+01   4.442192e+01   3.702554e+01   1.006104e+06   9.043704e+05   7.041932e+05  -6.159908e+01   6.852846e+01   1.894247e-19   1.525130e+06   4.756682e-38   0.000000e+00   0.000000e+00
     3048000   3.047999e-05   3.076611e+01   4.449427e+01   3.708188e+01   1.006104e+06   9.043704e+05   7.041932e+05  -1.002163e+01   1.114898e+01  -6.632758e-21   1.525130e+06   1.260605e-39   0.000000e+00   0.000000e+00
     3056000   3.055999e-05   3.084660e+01   4.456662e+01   3.713821e+01   1.006104e+06   9.043704e+05   7.041932e+05  -4.719336e+01   5.250222e+01  -3.155695e-20   1.525130e+06   2.791904e-38   0.000000e+00   0.000000e+00
     3064000   3.063999e-05   3.092709e+01   4.463897e+01   3.719455e+01   1.006104e+06   9.043704e+05   7.041932e+05  -3.163410e+01   3.519268e+01  -1.469921e-20   1.525130e+06   1.254417e-38   0.000000e+00   0.000000e+00
     3072000   3.071999e-05   3.100758e+01   4.471132e+01   3.725089e+01   1.006104e+06   9.043704e+05   7.041932e+05  -4.490079e+01   4.995175e+01   7.368279e-20   1.525130e+06   2.527862e-38   0.000000e+00   0.000000e+00
     3080000   3.079999e-05   3.108806e+01   4.478366e+01   3.730722e+01   1.006104e+06   9.043704e+05   7.041932e+05  -1.719670e+01   1.913119e+01  -5.680458e-20   1.525130e+06   3.709209e-39   0.000000e+00   0.000000e+00
     3088000   3.087999e-05   3.116855e+01   4.485601e+01   3.736356e+01   1.006104e+06   9.043704e+05   7.041932e+05  -3.432195e+01   3.818288e+01   1.495661e-21   1.525130e+06   1.477020e-38   0.000000e+00   0.000000e+00
     3096000   3.095999e-05   3.124904e+01   4.492836e+01   3.741989e+01   1.006104e+06   9.043704e+05   7.041932e+05  -2.559779e+01   2.847733e+01  -2.882836e-20   1.525130e+06   8.216490e-39   0.000000e+00   0.000000e+00
     3104000   3.103999e-05   3.132953e+01   4.500071e+01   3.747623e+01   1.006104e+06   9.043704e+05   7.041932e+05  -3.527120e+01   3.923891e+01  -4.755330e-20   1.525130e+06   1.560221e-38   0.000000e+00   0.000000e+00
     3112000   3.111999e-05   3.141002e+01   4.507306e+01   3.753256e+01   1.006104e+06   9.043704e+05   7.041932e+05  -3.881689e+01   4.318347e+01   3.697431e-20   1.525130e+06   1.889075e-38   0.000000e+00   0.000000e+00
     3120000   3.119999e-05   3.149051e+01   4.514541e+01   3.758890e+01   1.006104e+06   9.043704e+05   7.041932e+05  -2.714887e+01   3.020289e+01  -5.212132e-20   1.525130e+06   9.242318e-39   0.000000e+00   0.000000e+00
     3128000   3.127999e-05   3.157099e+01   4.521776e+01   3.764523e+01   1.006104e+06   9.043704e+05   7.041932e+05  -4.415669e+01   4.912395e+01   4.176860e-21   1.525130e+06   2.443830e-38   0.000000e+00   0.000000e+00
     3136000   3.135999e-05   3.165148e+01   4.529011e+01   3.770157e+01   1.006104e+06   9.043704e+05   7.041932e+05  -3.988600e+01   4.437284e+01  -2.440110e-20   1.525130e+06   1.994207e-38   0.000000e+00   0.000000e+00
     3144000   3.143999e-05   3.173197e+01   4.536246e+01   3.775790e+01   1.006104e+06   9.043704e+05   7.041932e+05  -2.106538e+01   2.343506e+01   2.155362e-20   1.525130e+06   5.564362e-39   0.000000e+00   0.000000e+00
     3152000   3.151999e-05   3.181246e+01   4.543481e+01   3.781424e+01   1.006104e+06   9.043704e+05   7.041932e+05  -2.028770e+01   2.256989e+01   1.805029e-20   1.525130e+06   5.155686e-39   0.000000e+00   0.000000e+00
     3160000   3.159999e-05   3.189295e+01   4.550716e+01   3.787058e+01   1.006104e+06   9.043704e+05   7.041932e+05  -2.532410e+01   2.817285e+01   1.925377e-20   1.525130e+06   8.040971e-39   0.000000e+00   0.000000e+00
     3168000   3.167999e-05   3.197344e+01   4.557951e+01   3.792691e+01   1.006104e+06   9.043704e+05   7.041932e+05   1.114835e+01  -1.240244e+01  -6.734264e-21   1.525130e+06   1.556224e-39   0.000000e+00   0.000000e+00
     3176000   3.175999e-05   3.205393e+01   4.565186e+01   3.798325e+01   1.006104e+06   9.043704e+05   7.041932e+05  -3.390543e+01   3.771951e+01   5.792367e-20   1.525130e+06   1.441344e-38   0.000000e+00   0.000000e+00
     3184000   3.183999e-05   3.213441e+01   4.572421e+01   3.803958e+01   1.006104e+06   9.043704e+05   7.041932e+05  -2.175547e+01   2.420278e+01   2.292451e-20   1.525130e+06   5.932338e-39   0.000000e+00   0.000000e+00
     3192000   3.191999e-05   3.221490e+01   4.579656e+01   3.809592e+01   1.006104e+06   9.043704e+05   7.041932e+05  -1.905768e+01   2.120151e+01   2.423342e-20   1.525130e+06   4.553144e-39   0.000000e+00   0.000000e+00
     3200000   3.199999e-05   3.229539e+01   4.586891e+01   3.815225e+01   1.006104e+06   9.043704e+05   7.041932e+05   9.115165e+00  -1.014054e+01  -9.358682e-21   1.525130e+06   1.040857e-39   0.000000e+00   0.000000e+00
     3208000   3.207999e-05   3.237588e+01   4.594126e+01   3.820859e+01   1.006104e+06   9.043704e+05   7.041932e+05  -3.097221e+01   3.445633e+01  -1.762772e-20   1.525130e+06   1.202331e-38   0.000000e+00   0.000000e+00
     3216000   3.215999e-05   3.245637e+01   4.601361e+01   3.826492e+01   1.006104e+06   9.043704e+05   7.041932e+05  -9.195495e+00   1.022991e+01  -3.998666e-21   1.525130e+06   1.060203e-39   0.000000e+00   0.000000e+00
     3224000   3.223999e-05   3.253686e+01   4.608596e+01   3.832126e+01   1.006104e+06   9.043704e+05   7.041932e+05  -2.803914e+01   3.119331e+01   4.931141e-20   1.525130e+06   9.854208e-39   0.000000e+00   0.000000e+00
     3232000   3.231999e-05   3.261734e+01   4.615831e+01   3.837759e+01   1.006104e+06   9.043704e+05   7.041932e+05  -1.426504e+01   1.586974e+01   1.667015e-20   1.525130e+06   2.552103e-39   0.000000e+00   0.000000e+00
     3240000   3.239999e-05   3.269783e+01   4.623066e+01   3.843393e+01   1.006104e+06   9.043704e+05   7.041932e+05  -9.915808e-01   1.103125e+00   8.885223e-24   1.525130e+06   1.234409e-41   0.000000e+00   0.000000e+00
     3248000   3.247999e-05   3.277832e+01   4.630301e+01   3.849027e+01   1.006104e+06   9.043704e+05   7.041932e+05  -2.593806e+01   2.885588e+01  -7.376804e-20   1.525130e+06   8.433882e-39   0.000000e+00   0.000000e+00
     3256000   3.255999e-05   3.285881e+01   4.637536e+01   3.854660e+01   1.006104e+06   9.043704e+05   7.041932e+05   9.984728e+00  -1.110793e+01  -1.632582e-20   1.525130e+06   1.249043e-39   0.000000e+00   0.000000e+00
     3264000   3.263999e-05   3.293930e+01   4.644771e+01   3.860294e+01   1.006104e+06   9.043704e+05   7.041932e+05  -1.330757e+01   1.480456e+01  -1.270079e-20   1.525130e+06   2.218862e-39   0.000000e+00   0.000000e+00
     3272000   3.271999e-05   3.301979e+01   4.652006e+01   3.865927e+01   1.006104e+06   9.043704e+05   7.041932e+05  -8.333037e+00   9.270433e+00   9.679181e-21   1.525130e+06   8.716110e-40   0.000000e+00   0.000000e+00
     3280000   3.279999e-05   3.310027e+01   4.659241e+01   3.871561e+01   1.006104e+06   9.043704e+05   7.041932e+05  -2.006568e+01   2.232290e+01   8.678988e-21   1.525130e+06   5.047716e-39   0.000000e+00   0.000000e+00
     3288000   3.287999e-05   3.318076e+01   4.666476e+01   3.877194e+01   1.006104e+06   9.043704e+05   7.041932e+05   3.326870e+01  -3.701115e+01   6.451478e-20   1.525130e+06   1.387092e-38   0.000000e+00   0.000000e+00
     3296000   3.295999e-05   3.326125e+01   4.673710e+01   3.882828e+01   1.006104e+06   9.043704e+05   7.041932e+05  -1.516063e+01   1.686608e+01   1.078789e-20   1.525130e+06   2.880841e-39   0.000000e+00   0.000000e+00
     3304000   3.303999e-05   3.334174e+01   4.680945e+01   3.888461e+01   1.006104e+06   9.043704e+05   7.041932e+05  -6.587810e+00   7.328883e+00   3.369165e-21   1.525130e+06   5.439463e-40   0.000000e+00   0.000000e+00
     3312000   3.311999e-05   3.342223e+01   4.688180e+01   3.894095e+01   1.006104e+06   9.043704e+05   7.041932e+05   5.106735e-01  -5.681200e-01   7.267394e-22   1.525130e+06   3.237613e-42   0.000000e+00   0.000000e+00
     3320000   3.319999e-05   3.350272e+01   4.695415e+01   3.899728e+01   1.006104e+06   9.043704e+05   7.041932e+05   1.195030e-01  -1.329461e-01  -1.164477e-22   1.525130e+06   1.767293e-43   0.000000e+00   0.000000e+00
     3328000   3.327999e-05   3.358320e+01   4.702650e+01   3.905362e+01   1.006104e+06   9.043704e+05   7.041932e+05   8.862911e+00  -9.859914e+00  -2.189081e-20   1.525130e+06   9.838694e-40   0.000000e+00   0.000000e+00
     3336000   3.335999e-05   3.366369e+01   4.709885e+01   3.910996e+01   1.006104e+06   9.043704e+05   7.041932e+05  -1.280405e+01   1.424440e+01  -1.050076e-20   1.525130e+06   2.054966e-39   0.000000e+00   0.000000e+00
     3344000   3.343999e-05   3.374418e+01   4.717120e+01   3.916629e+01   1.006104e+06   9.043704e+05   7.041932e+05  -1.279077e+01   1.422963e+01  -1.126022e-20   1.525130e+06   2.050410e-39   0.000000e+00   0.000000e+00
     3352000   3.351999e-05   3.382467e+01   4.724355e+01   3.922263e+01   1.006104e+06   9.043704e+05   7.041932e+05   3.391565e+00  -3.773087e+00   6.661710e-21   1.525130e+06   1.439094e-40   0.000000e+00   0.000000e+00
     3360000   3.359999e-05   3.390516e+01   4.731590e+01   3.927896e+01   1.006104e+06   9.043704e+05   7.041932e+05  -5.301451e+00   5.897819e+00  -5.998490e-22   1.525130e+06   3.522374e-40   0.000000e+00   0.000000e+00
     3368000   3.367999e-05   3.398565e+01   4.738825e+01   3.933530e+01   1.006104e+06   9.043704e+05   7.041932e+05   5.716325e+00  -6.359364e+00   5.124478e-21   1.525130e+06   4.095139e-40   0.000000e+00   0.000000e+00
     3376000   3.375999e-05   3.406613e+01   4.746060e+01   3.939163e+01   1.006104e+06   9.043704e+05   7.041932e+05  -2.006819e+00   2.232569e+00  -3.867789e-22   1.525130e+06   5.049637e-41   0.000000e+00   0.000000e+00
     3384000   3.383999e-05   3.414662e+01   4.753295e+01   3.944797e+01   1.006104e+06   9.043704e+05   7.041932e+05  -6.369927e+00   7.086490e+00   3.115962e-22   1.525130e+06   5.085796e-40   0.000000e+00   0.000000e+00
     3392000   3.391999e-05   3.422711e+01   4.760530e+01   3.950430e+01   1.006104e+06   9.043704e+05   7.041932e+05  -6.459531e+00   7.186175e+00  -1.096784e-20   1.525130e+06   5.237100e-40   0.000000e+00   0.000000e+00
     3400000   3.399999e-05   3.430760e+01   4.767765e+01   3.956064e+01   1.006104e+06   9.043704e+05   7.041932e+05   1.760178e+01  -1.958184e+01   1.696093e-20   1.525130e+06   3.884557e-39   0.000000e+00   0.000000e+00
     3408000   3.407999e-05   3.438809e+01   4.775000e+01   3.961697e+01   1.006104e+06   9.043704e+05   7.041932e+05  -6.791114e+00   7.555057e+00  -2.153975e-21   1.525130e+06   5.783207e-40   0.000000e+00   0.000000e+00
     3416000   3.415999e-05   3.446858e+01   4.782235e+01   3.967331e+01   1.006104e+06   9.043704e+05   7.041932e+05   7.143472e+00  -7.947053e+00   4.599987e-22   1.525130e+06   6.391976e-40   0.000000e+00   0.000000e+00
     3424000   3.423999e-05   3.454906e+01   4.789470e+01   3.972965e+01   1.006104e+06   9.043704e+05   7.041932e+05  -5.441870e+00   6.054035e+00  -2.585022e-21   1.525130e+06   3.708609e-40   0.000000e+00   0.000000e+00
     3432000   3.431999e-05   3.462955e+01   4.796705e+01   3.978598e+01   1.006104e+06   9.043704e+05   7.041932e+05  -2.465532e-01   2.742883e-01  -1.499842e-22   1.525130e+06   7.855549e-43   0.000000e+00   0.000000e+00
     3440000   3.439999e-05   3.471004e+01   4.803940e+01   3.984232e+01   1.006104e+06   9.043704e+05   7.041932e+05  -7.623752e+00   8.481360e+00  -8.727918e-21   1.525130e+06   7.277303e-40   0.000000e+00   0.000000e+00
     3448000   3.447999e-05   3.479053e+01   4.811175e+01   3.989865e+01   1.006104e+06   9.043704e+05   7.041932e+05   2.009436e+01  -2.235481e+01  -9.614689e-21   1.525130e+06   5.058987e-39   0.000000e+00   0.000000e+00
     3456000   3.455999e-05   3.487102e+01   4.818410e+01   3.995499e+01   1.006104e+06   9.043704e+05   7.041932e+05  -1.025712e+01   1.141096e+01  -9.486685e-21   1.525130e+06   1.318242e-39   0.000000e+00   0.000000e+00
     3464000   3.463999e-05   3.495151e+01   4.825645e+01   4.001132e+01   1.006104e+06   9.043704e+05   7.041932e+05   1.147892e+01  -1.277020e+01  -3.850362e-20   1.525130e+06   1.650473e-39   0.000000e+00   0.000000e+00
     3472000   3.471999e-05   3.503199e+01   4.832880e+01   4.006766e+01   1.006104e+06   9.043704e+05   7.041932e+05  -3.381402e+00   3.761781e+00  -8.305879e-21   1.525130e+06   1.430999e-40   0.000000e+00   0.000000e+00
     3480000   3.479999e-05   3.511248e+01   4.840115e+01   4.012399e+01   1.006104e+06   9.043704e+05   7.041932e+05   1.399798e+01  -1.557263e+01   1.529997e-20   1.525130e+06   2.458711e-39   0.000000e+00   0.000000e+00
     3488000   3.487999e-05   3.519297e+01   4.847350e+01   4.018033e+01   1.006104e+06   9.043704e+05   7.041932e+05  -3.397192e+01   3.779348e+01   5.798367e-20   1.525130e+06   1.446412e-38   0.000000e+00   0.000000e+00
     3496000   3.495999e-05   3.527346e+01   4.854585e+01   4.023666e+01   1.006104e+06   9.043704e+05   7.041932e+05   8.201655e+00  -9.124272e+00   1.798538e-20   1.525130e+06   8.436444e-40   0.000000e+00   0.000000e+00
     3504000   3.503999e-05   3.535395e+01   4.861820e+01   4.029300e+01   1.006104e+06   9.043704e+05   7.041932e+05  -1.094856e+01   1.218018e+01   7.970974e-21   1.525130e+06   1.502976e-39   0.000000e+00   0.000000e+00
     3512000   3.511999e-05   3.543444e+01   4.869054e+01   4.034934e+01   1.006104e+06   9.043704e+05   7.041932e+05  -4.695651e+00   5.223872e+00  -4.308229e-21   1.525130e+06   2.763143e-40   0.000000e+00   0.000000e+00
     3520000   3.519999e-05   3.551492e+01   4.876289e+01   4.040567e+01   1.006104e+06   9.043704e+05   7.041932e+05  -1.229841e+00   1.368187e+00  -8.576081e-22   1.525130e+06   1.902750e-41   0.000000e+00   0.000000e+00
     3528000   3.527999e-05   3.559541e+01   4.883524e+01   4.046201e+01   1.006104e+06   9.043704e+05   7.041932e+05   1.178466e+01  -1.311034e+01  -2.877761e-21   1.525130e+06   1.740481e-39   0.000000e+00   0.000000e+00
     3536000   3.535999e-05   3.567590e+01   4.890759e+01   4.051834e+01   1.006104e+06   9.043704e+05   7.041932e+05   6.300649e+00  -7.009420e+00  -1.470496e-21   1.525130e+06   4.981799e-40   0.000000e+00   0.000000e+00
     3544000   3.543999e-05   3.575639e+01   4.897994e+01   4.057468e+01   1.006104e+06   9.043704e+05   7.041932e+05   2.622582e+01  -2.917600e+01  -6.879904e-20   1.525130e+06   8.620771e-39   0.000000e+00   0.000000e+00
     3552000   3.551999e-05   3.583688e+01   4.905229e+01   4.063101e+01   1.006104e+06   9.043704e+05   7.041932e+05   2.900902e+01  -3.227229e+01   2.792575e-20   1.525130e+06   1.054462e-38   0.000000e+00   0.000000e+00
     3560000   3.559999e-05   3.591737e+01   4.912464e+01   4.068735e+01   1.006104e+06   9.043704e+05   7.041932e+05   3.247441e+00  -3.612751e+00  -7.679672e-21   1.525130e+06   1.322050e-40   0.000000e+00   0.000000e+00
     3568000   3.567999e-05   3.599785e+01   4.919699e+01   4.074368e+01   1.006104e+06   9.043704e+05   7.041932e+05  -4.339174e+01   4.827295e+01   1.155204e-19   1.525130e+06   2.359968e-38   0.000000e+00   0.000000e+00
     3576000   3.575999e-05   3.607834e+01   4.926934e+01   4.080002e+01   1.006104e+06   9.043704e+05   7.041932e+05  -1.819509e+01   2.024189e+01  -1.859427e-20   1.525130e+06   4.147562e-39   0.000000e+00   0.000000e+00
     3584000   3.583999e-05   3.615883e+01   4.934169e+01   4.085635e+01   1.006104e+06   9.043704e+05   7.041932e+05   1.895651e+01  -2.108896e+01   3.445125e-20   1.525130e+06   4.504486e-39   0.000000e+00   0.000000e+00
     3592000   3.591999e-05   3.623932e+01   4.941404e+01   4.091269e+01   1.006104e+06   9.043704e+05   7.041932e+05  -1.258143e+00   1.399674e+00  -2.049157e-21   1.525130e+06   1.999655e-41   0.000000e+00   0.000000e+00
     3600000   3.599999e-05   3.631981e+01   4.948639e+01   4.096903e+01   1.006104e+06   9.043704e+05   7.041932e+05   2.005716e+01  -2.231343e+01  -1.665052e-20   1.525130e+06   5.041954e-39   0.000000e+00   0.000000e+00
     3608000   3.607999e-05   3.640030e+01   4.955874e+01   4.102536e+01   1.006104e+06   9.043707e+05   7.041932e+05  -4.990985e+00   5.552425e+00  -2.587615e-21   1.525130e+06   3.123076e-40   0.000000e+00   0.000000e+00
     3616000   3.615999e-05   3.648078e+01   4.963109e+01   4.108170e+01   1.006103e+06   9.043724e+05   7.041932e+05  -6.948395e+07   7.730000e+07   1.552367e-13   1.525130e+06   6.050455e-26   0.000000e+00   0.000000e+00
     3624000   3.623999e-05   3.656127e+01   4.970344e+01   4.113803e+01   1.006095e+06   9.043806e+05   7.041932e+05  -5.669006e+07   6.306593e+07   9.433326e-14   1.525130e+06   4.030392e-26   0.000000e+00   0.000000e+00
     3632000   3.631999e-05   3.664176e+01   4.977579e+01   4.119437e+01   1.006086e+06   9.043906e+05   7.041932e+05  -2.241349e+08   2.493381e+08  -2.216055e-13   1.525130e+06   6.296856e-25   0.000000e+00   0.000000e+00
     3640000   3.639999e-05   3.672225e+01   4.984814e+01   4.125070e+01   1.006076e+06   9.044018e+05   7.041932e+05  -8.929529e+07   9.933402e+07  -1.002297e-13   1.525130e+06   9.998450e-26   0.000000e+00   0.000000e+00
     3648000   3.647999e-05   3.680273e+01   4.992049e+01   4.130704e+01   1.006073e+06   9.044056e+05   7.041932e+05   0.000000e+00   0.000000e+00   0.000000e+00   1.525130e+06   0.000000e+00   0.000000e+00   0.000000e+00
     3656000   3.655999e-05   3.688322e+01   4.999285e+01   4.136337e+01   1.006073e+06   9.044056e+05   7.041932e+05   0.000000e+00   0.000000e+00   0.000000e+00   1.525130e+06   0.000000e+00   0.000000e+00   0.000000e+00
