     timestep     time              x             y              z              vx             vy             vz             ax             ay             az         v_magnitude      ELoss        Electronic      Nuclear
           0   0.000000e+00   1.000000e-01   1.052477e+01   1.152674e+01   1.828514e+06  -8.711514e+04   9.655871e+04   0.000000e+00   0.000000e+00   0.000000e+00   1.833133e+06   0.000000e+00   0.000000e+00   0.000000e+00
        8000   7.999000e-08   2.462811e-01   1.051780e+01   1.153447e+01   1.828514e+06  -8.711514e+04   9.655871e+04   0.000000e+00   0.000000e+00   0.000000e+00   1.833133e+06   0.000000e+00   0.000000e+00   0.000000e+00
       16000   1.599900e-07   3.925622e-01   1.051084e+01   1.154219e+01   1.828514e+06  -8.711514e+04   9.655871e+04   0.000000e+00   0.000000e+00   0.000000e+00   1.833133e+06   0.000000e+00   0.000000e+00   0.000000e+00
       24000   2.399900e-07   5.388433e-01   1.050387e+01   1.154992e+01   1.828514e+06  -8.711514e+04   9.655871e+04   0.000000e+00   0.000000e+00   0.000000e+00   1.833133e+06   0.000000e+00   0.000000e+00   0.000000e+00
       32000   3.199900e-07   6.851244e-01   1.049690e+01   1.155764e+01   1.828514e+06  -8.711514e+04   9.655871e+04   0.000000e+00   0.000000e+00   0.000000e+00   1.833133e+06   0.000000e+00   0.000000e+00   0.000000e+00
       40000   3.999900e-07   8.314055e-01   1.048993e+01   1.156537e+01   1.828514e+06  -8.711514e+04   9.655871e+04   0.000000e+00   0.000000e+00   0.000000e+00   1.833133e+06   0.000000e+00   0.000000e+00   0.000000e+00
       48000   4.799900e-07   9.776866e-01   1.048296e+01   1.157309e+01   1.828514e+06  -8.711514e+04   9.655871e+04   0.000000e+00   0.000000e+00   0.000000e+00   1.833133e+06   0.000000e+00   0.000000e+00   0.000000e+00
       56000   5.599900e-07   1.123968e+00   1.047599e+01   1.158081e+01   1.828514e+06  -8.711514e+04   9.655871e+04   0.000000e+00   0.000000e+00   0.000000e+00   1.833133e+06   0.000000e+00   0.000000e+00   0.000000e+00
       64000   6.399900e-07   1.270249e+00   1.046902e+01   1.158854e+01   1.828514e+06  -8.711514e+04   9.655871e+04   0.000000e+00   0.000000e+00   0.000000e+00   1.833133e+06   0.000000e+00   0.000000e+00   0.000000e+00
       72000   7.199900e-07   1.416530e+00   1.046205e+01   1.159626e+01   1.828514e+06  -8.711514e+04   9.655871e+04   0.000000e+00   0.000000e+00   0.000000e+00   1.833133e+06   0.000000e+00   0.000000e+00   0.000000e+00
       80000   7.999900e-07   1.562811e+00   1.045508e+01   1.160399e+01   1.828514e+06  -8.711514e+04   9.655871e+04   0.000000e+00   0.000000e+00   0.000000e+00   1.833133e+06   0.000000e+00   0.000000e+00   0.000000e+00
       88000   8.799900e-07   1.709092e+00   1.044811e+01   1.161171e+01   1.828514e+06  -8.711514e+04   9.655871e+04   0.000000e+00   0.000000e+00   0.000000e+00   1.833133e+06   0.000000e+00   0.000000e+00   0.000000e+00
       96000   9.599900e-07   1.855373e+00   1.044114e+01   1.161944e+01   1.828514e+06  -8.711514e+04   9.655871e+04   0.000000e+00   0.000000e+00   0.000000e+00   1.833133e+06   0.000000e+00   0.000000e+00   0.000000e+00
      104000   1.039990e-06   2.001654e+00   1.043417e+01   1.162716e+01   1.828514e+06  -8.711514e+04   9.655871e+04   0.000000e+00   0.000000e+00   0.000000e+00   1.833133e+06   0.000000e+00   0.000000e+00   0.000000e+00
      112000   1.119990e-06   2.147935e+00   1.042721e+01   1.163489e+01   1.828514e+06  -8.711514e+04   9.655871e+04   0.000000e+00   0.000000e+00   0.000000e+00   1.833133e+06   0.000000e+00   0.000000e+00   0.000000e+00
      120000   1.199990e-06   2.294217e+00   1.042024e+01   1.164261e+01   1.828514e+06  -8.711514e+04   9.655871e+04   0.000000e+00   0.000000e+00   0.000000e+00   1.833133e+06   0.000000e+00   0.000000e+00   0.000000e+00
      128000   1.279990e-06   2.440498e+00   1.041327e+01   1.165034e+01   1.828514e+06  -8.711514e+04   9.655871e+04   0.000000e+00   0.000000e+00   0.000000e+00   1.833133e+06   0.000000e+00   0.000000e+00   0.000000e+00
      136000   1.359990e-06   2.586779e+00   1.040630e+01   1.165806e+01   1.828514e+06  -8.711514e+04   9.655871e+04   0.000000e+00   0.000000e+00   0.000000e+00   1.833133e+06   0.000000e+00   0.000000e+00   0.000000e+00
      144000   1.439990e-06   2.733060e+00   1.039933e+01   1.166579e+01   1.828514e+06  -8.711514e+04   9.655871e+04   0.000000e+00   0.000000e+00   0.000000e+00   1.833133e+06   0.000000e+00   0.000000e+00   0.000000e+00
      152000   1.519990e-06   2.879341e+00   1.039236e+01   1.167351e+01   1.828514e+06  -8.711514e+04   9.655871e+04   0.000000e+00   0.000000e+00   0.000000e+00   1.833133e+06   0.000000e+00   0.000000e+00   0.000000e+00
      160000   1.599990e-06   3.025622e+00   1.038539e+01   1.168124e+01   1.828514e+06  -8.711514e+04   9.655871e+04   0.000000e+00   0.000000e+00   0.000000e+00   1.833133e+06   0.000000e+00   0.000000e+00   0.000000e+00
      168000   1.679990e-06   3.171903e+00   1.037842e+01   1.168896e+01   1.828514e+06  -8.711514e+04   9.655871e+04   0.000000e+00   0.000000e+00   0.000000e+00   1.833133e+06   0.000000e+00   0.000000e+00   0.000000e+00
      176000   1.759990e-06   3.318184e+00   1.037145e+01   1.169669e+01   1.828514e+06  -8.711514e+04   9.655871e+04   0.000000e+00   0.000000e+00   0.000000e+00   1.833133e+06   0.000000e+00   0.000000e+00   0.000000e+00
      184000   1.839990e-06   3.464465e+00   1.036448e+01   1.170441e+01   1.828514e+06  -8.711514e+04   9.655871e+04   0.000000e+00   0.000000e+00   0.000000e+00   1.833133e+06   0.000000e+00   0.000000e+00   0.000000e+00
      192000   1.919990e-06   3.610746e+00   1.035751e+01   1.171213e+01   1.828514e+06  -8.711514e+04   9.655871e+04   0.000000e+00   0.000000e+00   0.000000e+00   1.833133e+06   0.000000e+00   0.000000e+00   0.000000e+00
      200000   1.999990e-06   3.757028e+00   1.035054e+01   1.171986e+01   1.828514e+06  -8.711514e+04   9.655871e+04   0.000000e+00   0.000000e+00   0.000000e+00   1.833133e+06   0.000000e+00   0.000000e+00   0.000000e+00
      208000   2.079990e-06   3.903309e+00   1.034357e+01   1.172758e+01   1.828514e+06  -8.711514e+04   9.655871e+04   0.000000e+00   0.000000e+00   0.000000e+00   1.833133e+06   0.000000e+00   0.000000e+00   0.000000e+00
      216000   2.159990e-06   4.049590e+00   1.033661e+01   1.173531e+01   1.828514e+06  -8.711514e+04   9.655871e+04   0.000000e+00   0.000000e+00   0.000000e+00   1.833133e+06   0.000000e+00   0.000000e+00   0.000000e+00
      224000   2.239990e-06   4.195871e+00   1.032964e+01   1.174303e+01   1.828514e+06  -8.711514e+04   9.655871e+04   0.000000e+00   0.000000e+00   0.000000e+00   1.833133e+06   0.000000e+00   0.000000e+00   0.000000e+00
      232000   2.319990e-06   4.342152e+00   1.032267e+01   1.175076e+01   1.828514e+06  -8.711514e+04   9.655871e+04   0.000000e+00   0.000000e+00   0.000000e+00   1.833133e+06   0.000000e+00   0.000000e+00   0.000000e+00
      240000   2.399990e-06   4.488433e+00   1.031570e+01   1.175848e+01   1.828514e+06  -8.711514e+04   9.655871e+04   0.000000e+00   0.000000e+00   0.000000e+00   1.833133e+06   0.000000e+00   0.000000e+00   0.000000e+00
      248000   2.479990e-06   4.634714e+00   1.030873e+01   1.176621e+01   1.828514e+06  -8.711514e+04   9.655871e+04   0.000000e+00   0.000000e+00   0.000000e+00   1.833133e+06   0.000000e+00   0.000000e+00   0.000000e+00
      256000   2.559990e-06   4.780995e+00   1.030176e+01   1.177393e+01   1.828514e+06  -8.711514e+04   9.655871e+04   0.000000e+00   0.000000e+00   0.000000e+00   1.833133e+06   0.000000e+00   0.000000e+00   0.000000e+00
      264000   2.639990e-06   4.927276e+00   1.029479e+01   1.178166e+01   1.828514e+06  -8.711514e+04   9.655871e+04   0.000000e+00   0.000000e+00   0.000000e+00   1.833133e+06   0.000000e+00   0.000000e+00   0.000000e+00
      272000   2.719990e-06   5.073557e+00   1.028782e+01   1.178938e+01   1.828514e+06  -8.711514e+04   9.655871e+04   0.000000e+00   0.000000e+00   0.000000e+00   1.833133e+06   0.000000e+00   0.000000e+00   0.000000e+00
      280000   2.799990e-06   5.219839e+00   1.028085e+01   1.179711e+01   1.828514e+06  -8.711514e+04   9.655871e+04   0.000000e+00   0.000000e+00   0.000000e+00   1.833133e+06   0.000000e+00   0.000000e+00   0.000000e+00
      288000   2.879990e-06   5.366120e+00   1.027388e+01   1.180483e+01   1.828514e+06  -8.711514e+04   9.655871e+04   0.000000e+00   0.000000e+00   0.000000e+00   1.833133e+06   0.000000e+00   0.000000e+00   0.000000e+00
      296000   2.959990e-06   5.512401e+00   1.026691e+01   1.181256e+01   1.828514e+06  -8.711514e+04   9.655871e+04   0.000000e+00   0.000000e+00   0.000000e+00   1.833133e+06   0.000000e+00   0.000000e+00   0.000000e+00
      304000   3.039990e-06   5.658682e+00   1.025994e+01   1.182028e+01   1.828514e+06  -8.711514e+04   9.655871e+04   0.000000e+00   0.000000e+00   0.000000e+00   1.833133e+06   0.000000e+00   0.000000e+00   0.000000e+00
      312000   3.119990e-06   5.804963e+00   1.025297e+01   1.182801e+01   1.828514e+06  -8.711514e+04   9.655871e+04   0.000000e+00   0.000000e+00   0.000000e+00   1.833133e+06   0.000000e+00   0.000000e+00   0.000000e+00
      320000   3.199990e-06   5.951244e+00   1.024601e+01   1.183573e+01   1.828514e+06  -8.711514e+04   9.655871e+04   0.000000e+00   0.000000e+00   0.000000e+00   1.833133e+06   0.000000e+00   0.000000e+00   0.000000e+00
      328000   3.279990e-06   6.097525e+00   1.023904e+01   1.184345e+01   1.828514e+06  -8.711514e+04   9.655871e+04   0.000000e+00   0.000000e+00   0.000000e+00   1.833133e+06   0.000000e+00   0.000000e+00   0.000000e+00
      336000   3.359990e-06   6.243806e+00   1.023207e+01   1.185118e+01   1.828514e+06  -8.711514e+04   9.655871e+04   0.000000e+00   0.000000e+00   0.000000e+00   1.833133e+06   0.000000e+00   0.000000e+00   0.000000e+00
      344000   3.439990e-06   6.390087e+00   1.022510e+01   1.185890e+01   1.828514e+06  -8.711514e+04   9.655871e+04   0.000000e+00   0.000000e+00   0.000000e+00   1.833133e+06   0.000000e+00   0.000000e+00   0.000000e+00
      352000   3.519990e-06   6.536368e+00   1.021813e+01   1.186663e+01   1.828514e+06  -8.711514e+04   9.655871e+04   0.000000e+00   0.000000e+00   0.000000e+00   1.833133e+06   0.000000e+00   0.000000e+00   0.000000e+00
      360000   3.599990e-06   6.682650e+00   1.021116e+01   1.187435e+01   1.828514e+06  -8.711514e+04   9.655871e+04   0.000000e+00   0.000000e+00   0.000000e+00   1.833133e+06   0.000000e+00   0.000000e+00   0.000000e+00
      368000   3.679990e-06   6.828931e+00   1.020419e+01   1.188208e+01   1.828514e+06  -8.711514e+04   9.655871e+04   0.000000e+00   0.000000e+00   0.000000e+00   1.833133e+06   0.000000e+00   0.000000e+00   0.000000e+00
      376000   3.759990e-06   6.975212e+00   1.019722e+01   1.188980e+01   1.828514e+06  -8.711514e+04   9.655871e+04   0.000000e+00   0.000000e+00   0.000000e+00   1.833133e+06   0.000000e+00   0.000000e+00   0.000000e+00
      384000   3.839990e-06   7.121493e+00   1.019025e+01   1.189753e+01   1.828514e+06  -8.711514e+04   9.655871e+04   0.000000e+00   0.000000e+00   0.000000e+00   1.833133e+06   0.000000e+00   0.000000e+00   0.000000e+00
      392000   3.919990e-06   7.267774e+00   1.018328e+01   1.190525e+01   1.828514e+06  -8.711514e+04   9.655871e+04   0.000000e+00   0.000000e+00   0.000000e+00   1.833133e+06   0.000000e+00   0.000000e+00   0.000000e+00
      400000   3.999990e-06   7.414055e+00   1.017631e+01   1.191298e+01   1.828514e+06  -8.711514e+04   9.655871e+04   0.000000e+00   0.000000e+00   0.000000e+00   1.833133e+06   0.000000e+00   0.000000e+00   0.000000e+00
      408000   4.079990e-06   7.560336e+00   1.016934e+01   1.192070e+01   1.828514e+06  -8.711514e+04   9.655871e+04   0.000000e+00   0.000000e+00   0.000000e+00   1.833133e+06   0.000000e+00   0.000000e+00   0.000000e+00
      416000   4.159990e-06   7.706617e+00   1.016238e+01   1.192843e+01   1.828514e+06  -8.711514e+04   9.655871e+04   0.000000e+00   0.000000e+00   0.000000e+00   1.833133e+06   0.000000e+00   0.000000e+00   0.000000e+00
      424000   4.239990e-06   7.852898e+00   1.015541e+01   1.193615e+01   1.828514e+06  -8.711514e+04   9.655871e+04   0.000000e+00   0.000000e+00   0.000000e+00   1.833133e+06   0.000000e+00   0.000000e+00   0.000000e+00
      432000   4.319990e-06   7.999179e+00   1.014844e+01   1.194388e+01   1.828514e+06  -8.711514e+04   9.655871e+04   0.000000e+00   0.000000e+00   0.000000e+00   1.833133e+06   0.000000e+00   0.000000e+00   0.000000e+00
      440000   4.399990e-06   8.145461e+00   1.014147e+01   1.195160e+01   1.828514e+06  -8.711514e+04   9.655871e+04   0.000000e+00   0.000000e+00   0.000000e+00   1.833133e+06   0.000000e+00   0.000000e+00   0.000000e+00
      448000   4.479990e-06   8.291742e+00   1.013450e+01   1.195933e+01   1.828514e+06  -8.711514e+04   9.655871e+04   0.000000e+00   0.000000e+00   0.000000e+00   1.833133e+06   0.000000e+00   0.000000e+00   0.000000e+00
      456000   4.559990e-06   8.438023e+00   1.012753e+01   1.196705e+01   1.828514e+06  -8.711514e+04   9.655871e+04   0.000000e+00   0.000000e+00   0.000000e+00   1.833133e+06   0.000000e+00   0.000000e+00   0.000000e+00
      464000   4.639990e-06   8.584304e+00   1.012056e+01   1.197477e+01   1.828514e+06  -8.711514e+04   9.655871e+04   0.000000e+00   0.000000e+00   0.000000e+00   1.833133e+06   0.000000e+00   0.000000e+00   0.000000e+00
      472000   4.719990e-06   8.730585e+00   1.011359e+01   1.198250e+01   1.828514e+06  -8.711514e+04   9.655871e+04   0.000000e+00   0.000000e+00   0.000000e+00   1.833133e+06   0.000000e+00   0.000000e+00   0.000000e+00
      480000   4.799990e-06   8.876866e+00   1.010662e+01   1.199022e+01   1.828514e+06  -8.711514e+04   9.655871e+04   0.000000e+00   0.000000e+00   0.000000e+00   1.833133e+06   0.000000e+00   0.000000e+00   0.000000e+00
      488000   4.879990e-06   9.023147e+00   1.009965e+01   1.199795e+01   1.828514e+06  -8.711514e+04   9.655871e+04   0.000000e+00   0.000000e+00   0.000000e+00   1.833133e+06   0.000000e+00   0.000000e+00   0.000000e+00
      496000   4.959990e-06   9.169428e+00   1.009268e+01   1.200567e+01   1.828514e+06  -8.711514e+04   9.655871e+04   0.000000e+00   0.000000e+00   0.000000e+00   1.833133e+06   0.000000e+00   0.000000e+00   0.000000e+00
      504000   5.039990e-06   9.315709e+00   1.008571e+01   1.201340e+01   1.828514e+06  -8.711514e+04   9.655871e+04   0.000000e+00   0.000000e+00   0.000000e+00   1.833133e+06   0.000000e+00   0.000000e+00   0.000000e+00
      512000   5.119990e-06   9.461991e+00   1.007874e+01   1.202112e+01   1.828514e+06  -8.711514e+04   9.655871e+04   0.000000e+00   0.000000e+00   0.000000e+00   1.833133e+06   0.000000e+00   0.000000e+00   0.000000e+00
      520000   5.199990e-06   9.608272e+00   1.007178e+01   1.202885e+01   1.828514e+06  -8.711514e+04   9.655871e+04   0.000000e+00   0.000000e+00   0.000000e+00   1.833133e+06   0.000000e+00   0.000000e+00   0.000000e+00
      528000   5.279990e-06   9.754553e+00   1.006481e+01   1.203657e+01   1.828514e+06  -8.711514e+04   9.655871e+04   0.000000e+00   0.000000e+00   0.000000e+00   1.833133e+06   0.000000e+00   0.000000e+00   0.000000e+00
      536000   5.359990e-06   9.900834e+00   1.005784e+01   1.204430e+01   1.828514e+06  -8.711514e+04   9.655871e+04   0.000000e+00   0.000000e+00   0.000000e+00   1.833133e+06   0.000000e+00   0.000000e+00   0.000000e+00
      544000   5.439990e-06   1.004711e+01   1.005087e+01   1.205202e+01   1.828514e+06  -8.711514e+04   9.655871e+04   0.000000e+00   0.000000e+00   0.000000e+00   1.833133e+06   0.000000e+00   0.000000e+00   0.000000e+00
      552000   5.519990e-06   1.019340e+01   1.004390e+01   1.205975e+01   1.828514e+06  -8.711514e+04   9.655871e+04   0.000000e+00   0.000000e+00   0.000000e+00   1.833133e+06   0.000000e+00   0.000000e+00   0.000000e+00
      560000   5.599990e-06   1.033968e+01   1.003693e+01   1.206747e+01   1.828514e+06  -8.711514e+04   9.655871e+04   0.000000e+00   0.000000e+00   0.000000e+00   1.833133e+06   0.000000e+00   0.000000e+00   0.000000e+00
      568000   5.679990e-06   1.048596e+01   1.002996e+01   1.207520e+01   1.828514e+06  -8.711514e+04   9.655871e+04   0.000000e+00   0.000000e+00   0.000000e+00   1.833133e+06   0.000000e+00   0.000000e+00   0.000000e+00
      576000   5.759990e-06   1.063224e+01   1.002299e+01   1.208292e+01   1.828514e+06  -8.711514e+04   9.655871e+04   0.000000e+00   0.000000e+00   0.000000e+00   1.833133e+06   0.000000e+00   0.000000e+00   0.000000e+00
      584000   5.839990e-06   1.077852e+01   1.001602e+01   1.209064e+01   1.828514e+06  -8.711514e+04   9.655871e+04   0.000000e+00   0.000000e+00   0.000000e+00   1.833133e+06   0.000000e+00   0.000000e+00   0.000000e+00
      592000   5.919990e-06   1.092480e+01   1.000905e+01   1.209837e+01   1.828514e+06  -8.711514e+04   9.655871e+04   0.000000e+00   0.000000e+00   0.000000e+00   1.833133e+06   0.000000e+00   0.000000e+00   0.000000e+00
      600000   5.999990e-06   1.107108e+01   1.000208e+01   1.210609e+01   1.828514e+06  -8.711514e+04   9.655871e+04   0.000000e+00   0.000000e+00   0.000000e+00   1.833133e+06   0.000000e+00   0.000000e+00   0.000000e+00
      608000   6.079990e-06   1.121736e+01   9.995114e+00   1.211382e+01   1.828514e+06  -8.711514e+04   9.655871e+04   0.000000e+00   0.000000e+00   0.000000e+00   1.833133e+06   0.000000e+00   0.000000e+00   0.000000e+00
      616000   6.159990e-06   1.136364e+01   9.988145e+00   1.212154e+01   1.828514e+06  -8.711514e+04   9.655871e+04   0.000000e+00   0.000000e+00   0.000000e+00   1.833133e+06   0.000000e+00   0.000000e+00   0.000000e+00
      624000   6.239990e-06   1.150993e+01   9.981176e+00   1.212927e+01   1.828514e+06  -8.711514e+04   9.655871e+04   0.000000e+00   0.000000e+00   0.000000e+00   1.833133e+06   0.000000e+00   0.000000e+00   0.000000e+00
      632000   6.319990e-06   1.165621e+01   9.974206e+00   1.213699e+01   1.828514e+06  -8.711514e+04   9.655871e+04   0.000000e+00   0.000000e+00   0.000000e+00   1.833133e+06   0.000000e+00   0.000000e+00   0.000000e+00
      640000   6.399990e-06   1.180249e+01   9.967237e+00   1.214472e+01   1.828514e+06  -8.711514e+04   9.655871e+04   0.000000e+00   0.000000e+00   0.000000e+00   1.833133e+06   0.000000e+00   0.000000e+00   0.000000e+00
      648000   6.479990e-06   1.194877e+01   9.960268e+00   1.215244e+01   1.828514e+06  -8.711514e+04   9.655871e+04   0.000000e+00   0.000000e+00   0.000000e+00   1.833133e+06   0.000000e+00   0.000000e+00   0.000000e+00
      656000   6.559990e-06   1.209505e+01   9.953299e+00   1.216017e+01   1.828514e+06  -8.711514e+04   9.655871e+04   0.000000e+00   0.000000e+00   0.000000e+00   1.833133e+06   0.000000e+00   0.000000e+00   0.000000e+00
      664000   6.639990e-06   1.224133e+01   9.946329e+00   1.216789e+01   1.828514e+06  -8.711514e+04   9.655871e+04   0.000000e+00   0.000000e+00   0.000000e+00   1.833133e+06   0.000000e+00   0.000000e+00   0.000000e+00
      672000   6.719990e-06   1.238761e+01   9.939360e+00   1.217562e+01   1.828514e+06  -8.711514e+04   9.655871e+04   0.000000e+00   0.000000e+00   0.000000e+00   1.833133e+06   0.000000e+00   0.000000e+00   0.000000e+00
      680000   6.799990e-06   1.253389e+01   9.932391e+00   1.218334e+01   1.828514e+06  -8.711514e+04   9.655871e+04   0.000000e+00   0.000000e+00   0.000000e+00   1.833133e+06   0.000000e+00   0.000000e+00   0.000000e+00
      688000   6.879990e-06   1.268017e+01   9.925422e+00   1.219107e+01   1.828514e+06  -8.711514e+04   9.655871e+04   0.000000e+00   0.000000e+00   0.000000e+00   1.833133e+06   0.000000e+00   0.000000e+00   0.000000e+00
      696000   6.959990e-06   1.282646e+01   9.918453e+00   1.219879e+01   1.828514e+06  -8.711514e+04   9.655871e+04   0.000000e+00   0.000000e+00   0.000000e+00   1.833133e+06   0.000000e+00   0.000000e+00   0.000000e+00
      704000   7.039990e-06   1.297274e+01   9.911483e+00   1.220652e+01   1.828514e+06  -8.711514e+04   9.655871e+04   0.000000e+00   0.000000e+00   0.000000e+00   1.833133e+06   0.000000e+00   0.000000e+00   0.000000e+00
      712000   7.119990e-06   1.311902e+01   9.904514e+00   1.221424e+01   1.828514e+06  -8.711514e+04   9.655871e+04   0.000000e+00   0.000000e+00   0.000000e+00   1.833133e+06   0.000000e+00   0.000000e+00   0.000000e+00
      720000   7.199990e-06   1.326530e+01   9.897545e+00   1.222196e+01   1.828514e+06  -8.711514e+04   9.655871e+04   0.000000e+00   0.000000e+00   0.000000e+00   1.833133e+06   0.000000e+00   0.000000e+00   0.000000e+00
      728000   7.279990e-06   1.341158e+01   9.890576e+00   1.222969e+01   1.828514e+06  -8.711514e+04   9.655871e+04   0.000000e+00   0.000000e+00   0.000000e+00   1.833133e+06   0.000000e+00   0.000000e+00   0.000000e+00
      736000   7.359990e-06   1.355786e+01   9.883607e+00   1.223741e+01   1.828514e+06  -8.711514e+04   9.655871e+04   0.000000e+00   0.000000e+00   0.000000e+00   1.833133e+06   0.000000e+00   0.000000e+00   0.000000e+00
      744000   7.439990e-06   1.370414e+01   9.876637e+00   1.224514e+01   1.828514e+06  -8.711514e+04   9.655871e+04   0.000000e+00   0.000000e+00   0.000000e+00   1.833133e+06   0.000000e+00   0.000000e+00   0.000000e+00
      752000   7.519990e-06   1.385042e+01   9.869668e+00   1.225286e+01   1.828514e+06  -8.711514e+04   9.655871e+04   0.000000e+00   0.000000e+00   0.000000e+00   1.833133e+06   0.000000e+00   0.000000e+00   0.000000e+00
      760000   7.599990e-06   1.399670e+01   9.862699e+00   1.226059e+01   1.828514e+06  -8.711514e+04   9.655871e+04   0.000000e+00   0.000000e+00   0.000000e+00   1.833133e+06   0.000000e+00   0.000000e+00   0.000000e+00
      768000   7.679990e-06   1.414299e+01   9.855730e+00   1.226831e+01   1.828514e+06  -8.711514e+04   9.655871e+04   0.000000e+00   0.000000e+00   0.000000e+00   1.833133e+06   0.000000e+00   0.000000e+00   0.000000e+00
      776000   7.759990e-06   1.428927e+01   9.848761e+00   1.227604e+01   1.828514e+06  -8.711514e+04   9.655871e+04   0.000000e+00   0.000000e+00   0.000000e+00   1.833133e+06   0.000000e+00   0.000000e+00   0.000000e+00
      784000   7.839990e-06   1.443555e+01   9.841791e+00   1.228376e+01   1.828514e+06  -8.711514e+04   9.655871e+04   0.000000e+00   0.000000e+00   0.000000e+00   1.833133e+06   0.000000e+00   0.000000e+00   0.000000e+00
      792000   7.919990e-06   1.458183e+01   9.834822e+00   1.229149e+01   1.828514e+06  -8.711514e+04   9.655871e+04   0.000000e+00   0.000000e+00   0.000000e+00   1.833133e+06   0.000000e+00   0.000000e+00   0.000000e+00
      800000   7.999990e-06   1.472811e+01   9.827853e+00   1.229921e+01   1.828514e+06  -8.711514e+04   9.655871e+04   0.000000e+00   0.000000e+00   0.000000e+00   1.833133e+06   0.000000e+00   0.000000e+00   0.000000e+00
      808000   8.079990e-06   1.487439e+01   9.820884e+00   1.230694e+01   1.828514e+06  -8.711514e+04   9.655871e+04   0.000000e+00   0.000000e+00   0.000000e+00   1.833133e+06   0.000000e+00   0.000000e+00   0.000000e+00
      816000   8.159990e-06   1.502067e+01   9.813914e+00   1.231466e+01   1.828514e+06  -8.711514e+04   9.655871e+04   0.000000e+00   0.000000e+00   0.000000e+00   1.833133e+06   0.000000e+00   0.000000e+00   0.000000e+00
      824000   8.239990e-06   1.516695e+01   9.806945e+00   1.232239e+01   1.828514e+06  -8.711514e+04   9.655871e+04   0.000000e+00   0.000000e+00   0.000000e+00   1.833133e+06   0.000000e+00   0.000000e+00   0.000000e+00
      832000   8.319990e-06   1.531323e+01   9.799976e+00   1.233011e+01   1.828514e+06  -8.711514e+04   9.655871e+04   0.000000e+00   0.000000e+00   0.000000e+00   1.833133e+06   0.000000e+00   0.000000e+00   0.000000e+00
      840000   8.399990e-06   1.545952e+01   9.793007e+00   1.233784e+01   1.828514e+06  -8.711514e+04   9.655871e+04   0.000000e+00   0.000000e+00   0.000000e+00   1.833133e+06   0.000000e+00   0.000000e+00   0.000000e+00
      848000   8.479990e-06   1.560580e+01   9.786038e+00   1.234556e+01   1.828514e+06  -8.711514e+04   9.655871e+04   0.000000e+00   0.000000e+00   0.000000e+00   1.833133e+06   0.000000e+00   0.000000e+00   0.000000e+00
      856000   8.559990e-06   1.575208e+01   9.779068e+00   1.235328e+01   1.828514e+06  -8.711514e+04   9.655871e+04   0.000000e+00   0.000000e+00   0.000000e+00   1.833133e+06   0.000000e+00   0.000000e+00   0.000000e+00
      864000   8.639990e-06   1.589836e+01   9.772099e+00   1.236101e+01   1.828514e+06  -8.711514e+04   9.655871e+04   0.000000e+00   0.000000e+00   0.000000e+00   1.833133e+06   0.000000e+00   0.000000e+00   0.000000e+00
      872000   8.719990e-06   1.604464e+01   9.765130e+00   1.236873e+01   1.828514e+06  -8.711514e+04   9.655871e+04   0.000000e+00   0.000000e+00   0.000000e+00   1.833133e+06   0.000000e+00   0.000000e+00   0.000000e+00
      880000   8.799990e-06   1.619092e+01   9.758161e+00   1.237646e+01   1.828514e+06  -8.711514e+04   9.655871e+04   0.000000e+00   0.000000e+00   0.000000e+00   1.833133e+06   0.000000e+00   0.000000e+00   0.000000e+00
      888000   8.879990e-06   1.633720e+01   9.751192e+00   1.238418e+01   1.828514e+06  -8.711514e+04   9.655871e+04   0.000000e+00   0.000000e+00   0.000000e+00   1.833133e+06   0.000000e+00   0.000000e+00   0.000000e+00
      896000   8.959990e-06   1.648348e+01   9.744222e+00   1.239191e+01   1.828514e+06  -8.711514e+04   9.655871e+04   0.000000e+00   0.000000e+00   0.000000e+00   1.833133e+06   0.000000e+00   0.000000e+00   0.000000e+00
      904000   9.039990e-06   1.662976e+01   9.737253e+00   1.239963e+01   1.828514e+06  -8.711514e+04   9.655871e+04   0.000000e+00   0.000000e+00   0.000000e+00   1.833133e+06   0.000000e+00   0.000000e+00   0.000000e+00
      912000   9.119990e-06   1.677605e+01   9.730284e+00   1.240736e+01   1.828514e+06  -8.711514e+04   9.655871e+04   0.000000e+00   0.000000e+00   0.000000e+00   1.833133e+06   0.000000e+00   0.000000e+00   0.000000e+00
      920000   9.199990e-06   1.692233e+01   9.723315e+00   1.241508e+01   1.828514e+06  -8.711514e+04   9.655871e+04   0.000000e+00   0.000000e+00   0.000000e+00   1.833133e+06   0.000000e+00   0.000000e+00   0.000000e+00
      928000   9.279990e-06   1.706861e+01   9.716345e+00   1.242281e+01   1.828514e+06  -8.711514e+04   9.655871e+04   0.000000e+00   0.000000e+00   0.000000e+00   1.833133e+06   0.000000e+00   0.000000e+00   0.000000e+00
      936000   9.359990e-06   1.721489e+01   9.709376e+00   1.243053e+01   1.828514e+06  -8.711514e+04   9.655871e+04   0.000000e+00   0.000000e+00   0.000000e+00   1.833133e+06   0.000000e+00   0.000000e+00   0.000000e+00
      944000   9.439990e-06   1.736117e+01   9.702407e+00   1.243826e+01   1.828514e+06  -8.711514e+04   9.655871e+04   0.000000e+00   0.000000e+00   0.000000e+00   1.833133e+06   0.000000e+00   0.000000e+00   0.000000e+00
      952000   9.519990e-06   1.750745e+01   9.695438e+00   1.244598e+01   1.828514e+06  -8.711514e+04   9.655871e+04   0.000000e+00   0.000000e+00   0.000000e+00   1.833133e+06   0.000000e+00   0.000000e+00   0.000000e+00
      960000   9.599990e-06   1.765373e+01   9.688469e+00   1.245371e+01   1.828514e+06  -8.711514e+04   9.655871e+04   0.000000e+00   0.000000e+00   0.000000e+00   1.833133e+06   0.000000e+00   0.000000e+00   0.000000e+00
      968000   9.679990e-06   1.780001e+01   9.681499e+00   1.246143e+01   1.828514e+06  -8.711514e+04   9.655871e+04   0.000000e+00   0.000000e+00   0.000000e+00   1.833133e+06   0.000000e+00   0.000000e+00   0.000000e+00
      976000   9.759990e-06   1.794629e+01   9.674530e+00   1.246916e+01   1.828514e+06  -8.711514e+04   9.655871e+04   0.000000e+00   0.000000e+00   0.000000e+00   1.833133e+06   0.000000e+00   0.000000e+00   0.000000e+00
      984000   9.839990e-06   1.809258e+01   9.667561e+00   1.247688e+01   1.828514e+06  -8.711514e+04   9.655871e+04   0.000000e+00   0.000000e+00   0.000000e+00   1.833133e+06   0.000000e+00   0.000000e+00   0.000000e+00
      992000   9.919990e-06   1.823886e+01   9.660592e+00   1.248460e+01   1.828514e+06  -8.711514e+04   9.655871e+04   0.000000e+00   0.000000e+00   0.000000e+00   1.833133e+06   0.000000e+00   0.000000e+00   0.000000e+00
     1000000   9.999990e-06   1.838514e+01   9.653623e+00   1.249233e+01   1.828514e+06  -8.711514e+04   9.655871e+04   0.000000e+00   0.000000e+00   0.000000e+00   1.833133e+06   0.000000e+00   0.000000e+00   0.000000e+00
     1008000   1.007999e-05   1.853142e+01   9.646653e+00   1.250005e+01   1.828514e+06  -8.711514e+04   9.655871e+04   0.000000e+00   0.000000e+00   0.000000e+00   1.833133e+06   0.000000e+00   0.000000e+00   0.000000e+00
     1016000   1.015999e-05   1.867770e+01   9.639684e+00   1.250778e+01   1.828514e+06  -8.711514e+04   9.655871e+04   0.000000e+00   0.000000e+00   0.000000e+00   1.833133e+06   0.000000e+00   0.000000e+00   0.000000e+00
     1024000   1.023999e-05   1.882398e+01   9.632715e+00   1.251550e+01   1.828514e+06  -8.711514e+04   9.655871e+04   0.000000e+00   0.000000e+00   0.000000e+00   1.833133e+06   0.000000e+00   0.000000e+00   0.000000e+00
     1032000   1.031999e-05   1.897026e+01   9.625746e+00   1.252323e+01   1.828514e+06  -8.711514e+04   9.655871e+04   0.000000e+00   0.000000e+00   0.000000e+00   1.833133e+06   0.000000e+00   0.000000e+00   0.000000e+00
     1040000   1.039999e-05   1.911654e+01   9.618777e+00   1.253095e+01   1.828514e+06  -8.711514e+04   9.655871e+04   0.000000e+00   0.000000e+00   0.000000e+00   1.833133e+06   0.000000e+00   0.000000e+00   0.000000e+00
     1048000   1.047999e-05   1.926282e+01   9.611807e+00   1.253868e+01   1.828514e+06  -8.711514e+04   9.655871e+04   0.000000e+00   0.000000e+00   0.000000e+00   1.833133e+06   0.000000e+00   0.000000e+00   0.000000e+00
     1056000   1.055999e-05   1.940911e+01   9.604838e+00   1.254640e+01   1.828514e+06  -8.711514e+04   9.655871e+04   0.000000e+00   0.000000e+00   0.000000e+00   1.833133e+06   0.000000e+00   0.000000e+00   0.000000e+00
     1064000   1.063999e-05   1.955539e+01   9.597869e+00   1.255413e+01   1.828514e+06  -8.711514e+04   9.655871e+04   0.000000e+00   0.000000e+00   0.000000e+00   1.833133e+06   0.000000e+00   0.000000e+00   0.000000e+00
     1072000   1.071999e-05   1.970167e+01   9.590900e+00   1.256185e+01   1.828514e+06  -8.711514e+04   9.655871e+04   0.000000e+00   0.000000e+00   0.000000e+00   1.833133e+06   0.000000e+00   0.000000e+00   0.000000e+00
     1080000   1.079999e-05   1.984795e+01   9.583930e+00   1.256958e+01   1.828514e+06  -8.711514e+04   9.655871e+04   0.000000e+00   0.000000e+00   0.000000e+00   1.833133e+06   0.000000e+00   0.000000e+00   0.000000e+00
     1088000   1.087999e-05   1.999423e+01   9.576961e+00   1.257730e+01   1.828514e+06  -8.711514e+04   9.655871e+04   0.000000e+00   0.000000e+00   0.000000e+00   1.833133e+06   0.000000e+00   0.000000e+00   0.000000e+00
     1096000   1.095999e-05   2.014051e+01   9.569992e+00   1.258503e+01   1.828514e+06  -8.711514e+04   9.655871e+04   0.000000e+00   0.000000e+00   0.000000e+00   1.833133e+06   0.000000e+00   0.000000e+00   0.000000e+00
     1104000   1.103999e-05   2.028679e+01   9.563023e+00   1.259275e+01   1.828514e+06  -8.711514e+04   9.655871e+04   0.000000e+00   0.000000e+00   0.000000e+00   1.833133e+06   0.000000e+00   0.000000e+00   0.000000e+00
     1112000   1.111999e-05   2.043307e+01   9.556054e+00   1.260047e+01   1.828514e+06  -8.711514e+04   9.655871e+04   0.000000e+00   0.000000e+00   0.000000e+00   1.833133e+06   0.000000e+00   0.000000e+00   0.000000e+00
     1120000   1.119999e-05   2.057935e+01   9.549084e+00   1.260820e+01   1.828514e+06  -8.711514e+04   9.655871e+04   0.000000e+00   0.000000e+00   0.000000e+00   1.833133e+06   0.000000e+00   0.000000e+00   0.000000e+00
     1128000   1.127999e-05   2.072564e+01   9.542115e+00   1.261592e+01   1.828514e+06  -8.711514e+04   9.655871e+04   0.000000e+00   0.000000e+00   0.000000e+00   1.833133e+06   0.000000e+00   0.000000e+00   0.000000e+00
     1136000   1.135999e-05   2.087192e+01   9.535146e+00   1.262365e+01   1.828514e+06  -8.711514e+04   9.655871e+04   0.000000e+00   0.000000e+00   0.000000e+00   1.833133e+06   0.000000e+00   0.000000e+00   0.000000e+00
     1144000   1.143999e-05   2.101820e+01   9.528177e+00   1.263137e+01   1.828514e+06  -8.711514e+04   9.655871e+04   0.000000e+00   0.000000e+00   0.000000e+00   1.833133e+06   0.000000e+00   0.000000e+00   0.000000e+00
     1152000   1.151999e-05   2.116448e+01   9.521208e+00   1.263910e+01   1.828514e+06  -8.711514e+04   9.655871e+04   0.000000e+00   0.000000e+00   0.000000e+00   1.833133e+06   0.000000e+00   0.000000e+00   0.000000e+00
     1160000   1.159999e-05   2.131076e+01   9.514238e+00   1.264682e+01   1.828514e+06  -8.711514e+04   9.655871e+04   0.000000e+00   0.000000e+00   0.000000e+00   1.833133e+06   0.000000e+00   0.000000e+00   0.000000e+00
     1168000   1.167999e-05   2.145704e+01   9.507269e+00   1.265455e+01   1.828514e+06  -8.711514e+04   9.655871e+04   0.000000e+00   0.000000e+00   0.000000e+00   1.833133e+06   0.000000e+00   0.000000e+00   0.000000e+00
     1176000   1.175999e-05   2.160332e+01   9.500300e+00   1.266227e+01   1.828514e+06  -8.711514e+04   9.655871e+04   0.000000e+00   0.000000e+00   0.000000e+00   1.833133e+06   0.000000e+00   0.000000e+00   0.000000e+00
     1184000   1.183999e-05   2.174960e+01   9.493331e+00   1.267000e+01   1.828514e+06  -8.711514e+04   9.655871e+04   0.000000e+00   0.000000e+00   0.000000e+00   1.833133e+06   0.000000e+00   0.000000e+00   0.000000e+00
     1192000   1.191999e-05   2.189588e+01   9.486362e+00   1.267772e+01   1.828514e+06  -8.711514e+04   9.655871e+04   0.000000e+00   0.000000e+00   0.000000e+00   1.833133e+06   0.000000e+00   0.000000e+00   0.000000e+00
     1200000   1.199999e-05   2.204217e+01   9.479392e+00   1.268545e+01   1.828514e+06  -8.711514e+04   9.655871e+04   0.000000e+00   0.000000e+00   0.000000e+00   1.833133e+06   0.000000e+00   0.000000e+00   0.000000e+00
     1208000   1.207999e-05   2.218845e+01   9.472423e+00   1.269317e+01   1.828514e+06  -8.711514e+04   9.655871e+04   0.000000e+00   0.000000e+00   0.000000e+00   1.833133e+06   0.000000e+00   0.000000e+00   0.000000e+00
     1216000   1.215999e-05   2.233473e+01   9.465454e+00   1.270090e+01   1.828514e+06  -8.711514e+04   9.655871e+04   0.000000e+00   0.000000e+00   0.000000e+00   1.833133e+06   0.000000e+00   0.000000e+00   0.000000e+00
     1224000   1.223999e-05   2.248101e+01   9.458485e+00   1.270862e+01   1.828514e+06  -8.711514e+04   9.655871e+04   0.000000e+00   0.000000e+00   0.000000e+00   1.833133e+06   0.000000e+00   0.000000e+00   0.000000e+00
     1232000   1.231999e-05   2.262729e+01   9.451515e+00   1.271635e+01   1.828514e+06  -8.711514e+04   9.655871e+04   0.000000e+00   0.000000e+00   0.000000e+00   1.833133e+06   0.000000e+00   0.000000e+00   0.000000e+00
     1240000   1.239999e-05   2.277357e+01   9.444546e+00   1.272407e+01   1.828514e+06  -8.711514e+04   9.655871e+04   0.000000e+00   0.000000e+00   0.000000e+00   1.833133e+06   0.000000e+00   0.000000e+00   0.000000e+00
     1248000   1.247999e-05   2.291985e+01   9.437577e+00   1.273179e+01   1.828514e+06  -8.711514e+04   9.655871e+04   0.000000e+00   0.000000e+00   0.000000e+00   1.833133e+06   0.000000e+00   0.000000e+00   0.000000e+00
     1256000   1.255999e-05   2.306613e+01   9.430608e+00   1.273952e+01   1.828514e+06  -8.711514e+04   9.655871e+04   0.000000e+00   0.000000e+00   0.000000e+00   1.833133e+06   0.000000e+00   0.000000e+00   0.000000e+00
     1264000   1.263999e-05   2.321241e+01   9.423639e+00   1.274724e+01   1.828514e+06  -8.711514e+04   9.655871e+04   0.000000e+00   0.000000e+00   0.000000e+00   1.833133e+06   0.000000e+00   0.000000e+00   0.000000e+00
     1272000   1.271999e-05   2.335870e+01   9.416669e+00   1.275497e+01   1.828514e+06  -8.711514e+04   9.655871e+04   0.000000e+00   0.000000e+00   0.000000e+00   1.833133e+06   0.000000e+00   0.000000e+00   0.000000e+00
     1280000   1.279999e-05   2.350498e+01   9.409700e+00   1.276269e+01   1.828514e+06  -8.711514e+04   9.655871e+04   0.000000e+00   0.000000e+00   0.000000e+00   1.833133e+06   0.000000e+00   0.000000e+00   0.000000e+00
     1288000   1.287999e-05   2.365126e+01   9.402731e+00   1.277042e+01   1.828514e+06  -8.711514e+04   9.655871e+04   0.000000e+00   0.000000e+00   0.000000e+00   1.833133e+06   0.000000e+00   0.000000e+00   0.000000e+00
     1296000   1.295999e-05   2.379754e+01   9.395762e+00   1.277814e+01   1.828514e+06  -8.711514e+04   9.655871e+04   0.000000e+00   0.000000e+00   0.000000e+00   1.833133e+06   0.000000e+00   0.000000e+00   0.000000e+00
     1304000   1.303999e-05   2.394382e+01   9.388793e+00   1.278587e+01   1.828514e+06  -8.711514e+04   9.655871e+04   0.000000e+00   0.000000e+00   0.000000e+00   1.833133e+06   0.000000e+00   0.000000e+00   0.000000e+00
     1312000   1.311999e-05   2.409010e+01   9.381823e+00   1.279359e+01   1.828514e+06  -8.711514e+04   9.655871e+04   0.000000e+00   0.000000e+00   0.000000e+00   1.833133e+06   0.000000e+00   0.000000e+00   0.000000e+00
     1320000   1.319999e-05   2.423638e+01   9.374854e+00   1.280132e+01   1.828514e+06  -8.711514e+04   9.655871e+04   0.000000e+00   0.000000e+00   0.000000e+00   1.833133e+06   0.000000e+00   0.000000e+00   0.000000e+00
     1328000   1.327999e-05   2.438266e+01   9.367885e+00   1.280904e+01   1.828514e+06  -8.711514e+04   9.655871e+04   0.000000e+00   0.000000e+00   0.000000e+00   1.833133e+06   0.000000e+00   0.000000e+00   0.000000e+00
     1336000   1.335999e-05   2.452894e+01   9.360916e+00   1.281677e+01   1.828514e+06  -8.711514e+04   9.655871e+04   0.000000e+00   0.000000e+00   0.000000e+00   1.833133e+06   0.000000e+00   0.000000e+00   0.000000e+00
     1344000   1.343999e-05   2.467523e+01   9.353947e+00   1.282449e+01   1.828514e+06  -8.711514e+04   9.655871e+04   0.000000e+00   0.000000e+00   0.000000e+00   1.833133e+06   0.000000e+00   0.000000e+00   0.000000e+00
     1352000   1.351999e-05   2.482151e+01   9.346977e+00   1.283222e+01   1.828514e+06  -8.711514e+04   9.655871e+04   0.000000e+00   0.000000e+00   0.000000e+00   1.833133e+06   0.000000e+00   0.000000e+00   0.000000e+00
     1360000   1.359999e-05   2.496779e+01   9.340008e+00   1.283994e+01   1.828514e+06  -8.711514e+04   9.655871e+04   0.000000e+00   0.000000e+00   0.000000e+00   1.833133e+06   0.000000e+00   0.000000e+00   0.000000e+00
     1368000   1.367999e-05   2.511407e+01   9.333039e+00   1.284767e+01   1.828514e+06  -8.711514e+04   9.655871e+04   0.000000e+00   0.000000e+00   0.000000e+00   1.833133e+06   0.000000e+00   0.000000e+00   0.000000e+00
     1376000   1.375999e-05   2.526035e+01   9.326070e+00   1.285539e+01   1.828514e+06  -8.711514e+04   9.655871e+04   0.000000e+00   0.000000e+00   0.000000e+00   1.833133e+06   0.000000e+00   0.000000e+00   0.000000e+00
     1384000   1.383999e-05   2.540663e+01   9.319100e+00   1.286311e+01   1.828514e+06  -8.711514e+04   9.655871e+04   0.000000e+00   0.000000e+00   0.000000e+00   1.833133e+06   0.000000e+00   0.000000e+00   0.000000e+00
     1392000   1.391999e-05   2.555291e+01   9.312131e+00   1.287084e+01   1.828514e+06  -8.711514e+04   9.655871e+04   0.000000e+00   0.000000e+00   0.000000e+00   1.833133e+06   0.000000e+00   0.000000e+00   0.000000e+00
     1400000   1.399999e-05   2.569919e+01   9.305162e+00   1.287856e+01   1.828514e+06  -8.711514e+04   9.655871e+04   0.000000e+00   0.000000e+00   0.000000e+00   1.833133e+06   0.000000e+00   0.000000e+00   0.000000e+00
     1408000   1.407999e-05   2.584547e+01   9.298193e+00   1.288629e+01   1.828514e+06  -8.711514e+04   9.655871e+04   0.000000e+00   0.000000e+00   0.000000e+00   1.833133e+06   0.000000e+00   0.000000e+00   0.000000e+00
     1416000   1.415999e-05   2.599175e+01   9.291224e+00   1.289401e+01   1.828514e+06  -8.711514e+04   9.655871e+04   0.000000e+00   0.000000e+00   0.000000e+00   1.833133e+06   0.000000e+00   0.000000e+00   0.000000e+00
     1424000   1.423999e-05   2.613804e+01   9.284254e+00   1.290174e+01   1.828514e+06  -8.711514e+04   9.655871e+04   0.000000e+00   0.000000e+00   0.000000e+00   1.833133e+06   0.000000e+00   0.000000e+00   0.000000e+00
     1432000   1.431999e-05   2.628432e+01   9.277285e+00   1.290946e+01   1.828514e+06  -8.711514e+04   9.655871e+04   0.000000e+00   0.000000e+00   0.000000e+00   1.833133e+06   0.000000e+00   0.000000e+00   0.000000e+00
     1440000   1.439999e-05   2.643060e+01   9.270316e+00   1.291719e+01   1.828514e+06  -8.711514e+04   9.655871e+04   0.000000e+00   0.000000e+00   0.000000e+00   1.833133e+06   0.000000e+00   0.000000e+00   0.000000e+00
     1448000   1.447999e-05   2.657688e+01   9.263347e+00   1.292491e+01   1.828514e+06  -8.711514e+04   9.655871e+04   0.000000e+00   0.000000e+00   0.000000e+00   1.833133e+06   0.000000e+00   0.000000e+00   0.000000e+00
     1456000   1.455999e-05   2.672316e+01   9.256378e+00   1.293264e+01   1.828514e+06  -8.711514e+04   9.655871e+04   0.000000e+00   0.000000e+00   0.000000e+00   1.833133e+06   0.000000e+00   0.000000e+00   0.000000e+00
     1464000   1.463999e-05   2.686944e+01   9.249408e+00   1.294036e+01   1.828514e+06  -8.711514e+04   9.655871e+04   0.000000e+00   0.000000e+00   0.000000e+00   1.833133e+06   0.000000e+00   0.000000e+00   0.000000e+00
     1472000   1.471999e-05   2.701572e+01   9.242439e+00   1.294809e+01   1.828514e+06  -8.711514e+04   9.655871e+04   0.000000e+00   0.000000e+00   0.000000e+00   1.833133e+06   0.000000e+00   0.000000e+00   0.000000e+00
     1480000   1.479999e-05   2.716200e+01   9.235470e+00   1.295581e+01   1.828514e+06  -8.711514e+04   9.655871e+04   0.000000e+00   0.000000e+00   0.000000e+00   1.833133e+06   0.000000e+00   0.000000e+00   0.000000e+00
     1488000   1.487999e-05   2.730828e+01   9.228501e+00   1.296354e+01   1.828514e+06  -8.711514e+04   9.655871e+04   0.000000e+00   0.000000e+00   0.000000e+00   1.833133e+06   0.000000e+00   0.000000e+00   0.000000e+00
     1496000   1.495999e-05   2.745457e+01   9.221531e+00   1.297126e+01   1.828514e+06  -8.711514e+04   9.655871e+04   0.000000e+00   0.000000e+00   0.000000e+00   1.833133e+06   0.000000e+00   0.000000e+00   0.000000e+00
     1504000   1.503999e-05   2.760085e+01   9.214562e+00   1.297899e+01   1.828514e+06  -8.711514e+04   9.655871e+04   0.000000e+00   0.000000e+00   0.000000e+00   1.833133e+06   0.000000e+00   0.000000e+00   0.000000e+00
     1512000   1.511999e-05   2.774713e+01   9.207593e+00   1.298671e+01   1.828514e+06  -8.711514e+04   9.655871e+04   0.000000e+00   0.000000e+00   0.000000e+00   1.833133e+06   0.000000e+00   0.000000e+00   0.000000e+00
     1520000   1.519999e-05   2.789341e+01   9.200624e+00   1.299443e+01   1.828514e+06  -8.711514e+04   9.655871e+04   0.000000e+00   0.000000e+00   0.000000e+00   1.833133e+06   0.000000e+00   0.000000e+00   0.000000e+00
     1528000   1.527999e-05   2.803969e+01   9.193655e+00   1.300216e+01   1.828514e+06  -8.711514e+04   9.655871e+04   0.000000e+00   0.000000e+00   0.000000e+00   1.833133e+06   0.000000e+00   0.000000e+00   0.000000e+00
     1536000   1.535999e-05   2.818597e+01   9.186685e+00   1.300988e+01   1.828514e+06  -8.711514e+04   9.655871e+04   0.000000e+00   0.000000e+00   0.000000e+00   1.833133e+06   0.000000e+00   0.000000e+00   0.000000e+00
     1544000   1.543999e-05   2.833225e+01   9.179716e+00   1.301761e+01   1.828514e+06  -8.711514e+04   9.655871e+04   0.000000e+00   0.000000e+00   0.000000e+00   1.833133e+06   0.000000e+00   0.000000e+00   0.000000e+00
     1552000   1.551999e-05   2.847853e+01   9.172747e+00   1.302533e+01   1.828514e+06  -8.711514e+04   9.655871e+04   0.000000e+00   0.000000e+00   0.000000e+00   1.833133e+06   0.000000e+00   0.000000e+00   0.000000e+00
     1560000   1.559999e-05   2.862481e+01   9.165778e+00   1.303306e+01   1.828514e+06  -8.711514e+04   9.655871e+04   0.000000e+00   0.000000e+00   0.000000e+00   1.833133e+06   0.000000e+00   0.000000e+00   0.000000e+00
     1568000   1.567999e-05   2.877110e+01   9.158809e+00   1.304078e+01   1.828514e+06  -8.711514e+04   9.655871e+04   0.000000e+00   0.000000e+00   0.000000e+00   1.833133e+06   0.000000e+00   0.000000e+00   0.000000e+00
     1576000   1.575999e-05   2.891738e+01   9.151839e+00   1.304851e+01   1.828514e+06  -8.711514e+04   9.655871e+04   0.000000e+00   0.000000e+00   0.000000e+00   1.833133e+06   0.000000e+00   0.000000e+00   0.000000e+00
     1584000   1.583999e-05   2.906366e+01   9.144870e+00   1.305623e+01   1.828514e+06  -8.711514e+04   9.655871e+04   0.000000e+00   0.000000e+00   0.000000e+00   1.833133e+06   0.000000e+00   0.000000e+00   0.000000e+00
     1592000   1.591999e-05   2.920994e+01   9.137901e+00   1.306396e+01   1.828514e+06  -8.711514e+04   9.655871e+04   0.000000e+00   0.000000e+00   0.000000e+00   1.833133e+06   0.000000e+00   0.000000e+00   0.000000e+00
     1600000   1.599999e-05   2.935622e+01   9.130932e+00   1.307168e+01   1.828514e+06  -8.711514e+04   9.655871e+04   0.000000e+00   0.000000e+00   0.000000e+00   1.833133e+06   0.000000e+00   0.000000e+00   0.000000e+00
     1608000   1.607999e-05   2.950250e+01   9.123963e+00   1.307941e+01   1.828514e+06  -8.711514e+04   9.655871e+04   0.000000e+00   0.000000e+00   0.000000e+00   1.833133e+06   0.000000e+00   0.000000e+00   0.000000e+00
     1616000   1.615999e-05   2.964878e+01   9.116993e+00   1.308713e+01   1.828514e+06  -8.711514e+04   9.655871e+04   0.000000e+00   0.000000e+00   0.000000e+00   1.833133e+06   0.000000e+00   0.000000e+00   0.000000e+00
     1624000   1.623999e-05   2.979506e+01   9.110024e+00   1.309486e+01   1.828514e+06  -8.711514e+04   9.655871e+04   0.000000e+00   0.000000e+00   0.000000e+00   1.833133e+06   0.000000e+00   0.000000e+00   0.000000e+00
     1632000   1.631999e-05   2.994134e+01   9.103055e+00   1.310258e+01   1.828514e+06  -8.711514e+04   9.655871e+04   0.000000e+00   0.000000e+00   0.000000e+00   1.833133e+06   0.000000e+00   0.000000e+00   0.000000e+00
     1640000   1.639999e-05   3.008763e+01   9.096086e+00   1.311030e+01   1.828514e+06  -8.711514e+04   9.655871e+04   0.000000e+00   0.000000e+00   0.000000e+00   1.833133e+06   0.000000e+00   0.000000e+00   0.000000e+00
     1648000   1.647999e-05   3.023391e+01   9.089116e+00   1.311803e+01   1.828514e+06  -8.711514e+04   9.655871e+04   0.000000e+00   0.000000e+00   0.000000e+00   1.833133e+06   0.000000e+00   0.000000e+00   0.000000e+00
     1656000   1.655999e-05   3.038019e+01   9.082147e+00   1.312575e+01   1.828514e+06  -8.711514e+04   9.655871e+04   0.000000e+00   0.000000e+00   0.000000e+00   1.833133e+06   0.000000e+00   0.000000e+00   0.000000e+00
     1664000   1.663999e-05   3.052647e+01   9.075178e+00   1.313348e+01   1.828514e+06  -8.711514e+04   9.655871e+04   0.000000e+00   0.000000e+00   0.000000e+00   1.833133e+06   0.000000e+00   0.000000e+00   0.000000e+00
     1672000   1.671999e-05   3.067275e+01   9.068209e+00   1.314120e+01   1.828514e+06  -8.711514e+04   9.655871e+04   0.000000e+00   0.000000e+00   0.000000e+00   1.833133e+06   0.000000e+00   0.000000e+00   0.000000e+00
     1680000   1.679999e-05   3.081903e+01   9.061240e+00   1.314893e+01   1.828514e+06  -8.711514e+04   9.655871e+04   0.000000e+00   0.000000e+00   0.000000e+00   1.833133e+06   0.000000e+00   0.000000e+00   0.000000e+00
     1688000   1.687999e-05   3.096531e+01   9.054270e+00   1.315665e+01   1.828514e+06  -8.711514e+04   9.655871e+04   0.000000e+00   0.000000e+00   0.000000e+00   1.833133e+06   0.000000e+00   0.000000e+00   0.000000e+00
     1696000   1.695999e-05   3.111159e+01   9.047301e+00   1.316438e+01   1.828514e+06  -8.711514e+04   9.655871e+04   0.000000e+00   0.000000e+00   0.000000e+00   1.833133e+06   0.000000e+00   0.000000e+00   0.000000e+00
     1704000   1.703999e-05   3.125787e+01   9.040332e+00   1.317210e+01   1.828514e+06  -8.711514e+04   9.655871e+04   0.000000e+00   0.000000e+00   0.000000e+00   1.833133e+06   0.000000e+00   0.000000e+00   0.000000e+00
     1712000   1.711999e-05   3.140416e+01   9.033363e+00   1.317983e+01   1.828514e+06  -8.711514e+04   9.655871e+04   0.000000e+00   0.000000e+00   0.000000e+00   1.833133e+06   0.000000e+00   0.000000e+00   0.000000e+00
     1720000   1.719999e-05   3.155044e+01   9.026394e+00   1.318755e+01   1.828514e+06  -8.711514e+04   9.655871e+04   0.000000e+00   0.000000e+00   0.000000e+00   1.833133e+06   0.000000e+00   0.000000e+00   0.000000e+00
     1728000   1.727999e-05   3.169672e+01   9.019424e+00   1.319528e+01   1.828514e+06  -8.711514e+04   9.655871e+04   0.000000e+00   0.000000e+00   0.000000e+00   1.833133e+06   0.000000e+00   0.000000e+00   0.000000e+00
     1736000   1.735999e-05   3.184300e+01   9.012455e+00   1.320300e+01   1.828514e+06  -8.711514e+04   9.655871e+04   0.000000e+00   0.000000e+00   0.000000e+00   1.833133e+06   0.000000e+00   0.000000e+00   0.000000e+00
     1744000   1.743999e-05   3.198928e+01   9.005486e+00   1.321073e+01   1.828514e+06  -8.711514e+04   9.655871e+04   0.000000e+00   0.000000e+00   0.000000e+00   1.833133e+06   0.000000e+00   0.000000e+00   0.000000e+00
     1752000   1.751999e-05   3.213556e+01   8.998517e+00   1.321845e+01   1.828514e+06  -8.711514e+04   9.655871e+04   0.000000e+00   0.000000e+00   0.000000e+00   1.833133e+06   0.000000e+00   0.000000e+00   0.000000e+00
     1760000   1.759999e-05   3.228184e+01   8.991548e+00   1.322618e+01   1.828514e+06  -8.711514e+04   9.655871e+04   0.000000e+00   0.000000e+00   0.000000e+00   1.833133e+06   0.000000e+00   0.000000e+00   0.000000e+00
     1768000   1.767999e-05   3.242812e+01   8.984578e+00   1.323390e+01   1.828514e+06  -8.711514e+04   9.655871e+04   0.000000e+00   0.000000e+00   0.000000e+00   1.833133e+06   0.000000e+00   0.000000e+00   0.000000e+00
     1776000   1.775999e-05   3.257440e+01   8.977609e+00   1.324162e+01   1.828514e+06  -8.711514e+04   9.655871e+04   0.000000e+00   0.000000e+00   0.000000e+00   1.833133e+06   0.000000e+00   0.000000e+00   0.000000e+00
     1784000   1.783999e-05   3.272069e+01   8.970640e+00   1.324935e+01   1.828514e+06  -8.711514e+04   9.655871e+04   0.000000e+00   0.000000e+00   0.000000e+00   1.833133e+06   0.000000e+00   0.000000e+00   0.000000e+00
     1792000   1.791999e-05   3.286697e+01   8.963671e+00   1.325707e+01   1.828514e+06  -8.711514e+04   9.655871e+04   0.000000e+00   0.000000e+00   0.000000e+00   1.833133e+06   0.000000e+00   0.000000e+00   0.000000e+00
     1800000   1.799999e-05   3.301325e+01   8.956701e+00   1.326480e+01   1.828514e+06  -8.711514e+04   9.655871e+04   0.000000e+00   0.000000e+00   0.000000e+00   1.833133e+06   0.000000e+00   0.000000e+00   0.000000e+00
     1808000   1.807999e-05   3.315953e+01   8.949732e+00   1.327252e+01   1.828514e+06  -8.711514e+04   9.655871e+04   0.000000e+00   0.000000e+00   0.000000e+00   1.833133e+06   0.000000e+00   0.000000e+00   0.000000e+00
     1816000   1.815999e-05   3.330581e+01   8.942763e+00   1.328025e+01   1.828514e+06  -8.711514e+04   9.655871e+04   0.000000e+00   0.000000e+00   0.000000e+00   1.833133e+06   0.000000e+00   0.000000e+00   0.000000e+00
     1824000   1.823999e-05   3.345209e+01   8.935794e+00   1.328797e+01   1.828514e+06  -8.711514e+04   9.655871e+04   0.000000e+00   0.000000e+00   0.000000e+00   1.833133e+06   0.000000e+00   0.000000e+00   0.000000e+00
     1832000   1.831999e-05   3.359837e+01   8.928825e+00   1.329570e+01   1.828514e+06  -8.711514e+04   9.655871e+04   0.000000e+00   0.000000e+00   0.000000e+00   1.833133e+06   0.000000e+00   0.000000e+00   0.000000e+00
     1840000   1.839999e-05   3.374465e+01   8.921855e+00   1.330342e+01   1.828514e+06  -8.711514e+04   9.655871e+04   0.000000e+00   0.000000e+00   0.000000e+00   1.833133e+06   0.000000e+00   0.000000e+00   0.000000e+00
     1848000   1.847999e-05   3.389093e+01   8.914886e+00   1.331115e+01   1.828514e+06  -8.711514e+04   9.655871e+04   0.000000e+00   0.000000e+00   0.000000e+00   1.833133e+06   0.000000e+00   0.000000e+00   0.000000e+00
     1856000   1.855999e-05   3.403722e+01   8.907917e+00   1.331887e+01   1.828514e+06  -8.711514e+04   9.655871e+04   0.000000e+00   0.000000e+00   0.000000e+00   1.833133e+06   0.000000e+00   0.000000e+00   0.000000e+00
     1864000   1.863999e-05   3.418350e+01   8.900948e+00   1.332660e+01   1.828514e+06  -8.711514e+04   9.655871e+04   0.000000e+00   0.000000e+00   0.000000e+00   1.833133e+06   0.000000e+00   0.000000e+00   0.000000e+00
     1872000   1.871999e-05   3.432978e+01   8.893979e+00   1.333432e+01   1.828514e+06  -8.711514e+04   9.655871e+04   0.000000e+00   0.000000e+00   0.000000e+00   1.833133e+06   0.000000e+00   0.000000e+00   0.000000e+00
     1880000   1.879999e-05   3.447606e+01   8.887009e+00   1.334205e+01   1.828514e+06  -8.711514e+04   9.655871e+04   0.000000e+00   0.000000e+00   0.000000e+00   1.833133e+06   0.000000e+00   0.000000e+00   0.000000e+00
     1888000   1.887999e-05   3.462234e+01   8.880040e+00   1.334977e+01   1.828514e+06  -8.711514e+04   9.655871e+04   0.000000e+00   0.000000e+00   0.000000e+00   1.833133e+06   0.000000e+00   0.000000e+00   0.000000e+00
     1896000   1.895999e-05   3.476862e+01   8.873071e+00   1.335750e+01   1.828514e+06  -8.711514e+04   9.655871e+04   0.000000e+00   0.000000e+00   0.000000e+00   1.833133e+06   0.000000e+00   0.000000e+00   0.000000e+00
     1904000   1.903999e-05   3.491490e+01   8.866102e+00   1.336522e+01   1.828514e+06  -8.711514e+04   9.655871e+04   0.000000e+00   0.000000e+00   0.000000e+00   1.833133e+06   0.000000e+00   0.000000e+00   0.000000e+00
     1912000   1.911999e-05   3.506118e+01   8.859132e+00   1.337294e+01   1.828514e+06  -8.711514e+04   9.655871e+04   0.000000e+00   0.000000e+00   0.000000e+00   1.833133e+06   0.000000e+00   0.000000e+00   0.000000e+00
     1920000   1.919999e-05   3.520746e+01   8.852163e+00   1.338067e+01   1.828514e+06  -8.711514e+04   9.655871e+04   0.000000e+00   0.000000e+00   0.000000e+00   1.833133e+06   0.000000e+00   0.000000e+00   0.000000e+00
     1928000   1.927999e-05   3.535375e+01   8.845194e+00   1.338839e+01   1.828514e+06  -8.711514e+04   9.655871e+04   0.000000e+00   0.000000e+00   0.000000e+00   1.833133e+06   0.000000e+00   0.000000e+00   0.000000e+00
     1936000   1.935999e-05   3.550003e+01   8.838225e+00   1.339612e+01   1.828514e+06  -8.711514e+04   9.655871e+04   0.000000e+00   0.000000e+00   0.000000e+00   1.833133e+06   0.000000e+00   0.000000e+00   0.000000e+00
     1944000   1.943999e-05   3.564631e+01   8.831256e+00   1.340384e+01   1.828514e+06  -8.711514e+04   9.655871e+04   0.000000e+00   0.000000e+00   0.000000e+00   1.833133e+06   0.000000e+00   0.000000e+00   0.000000e+00
     1952000   1.951999e-05   3.579259e+01   8.824286e+00   1.341157e+01   1.828514e+06  -8.711514e+04   9.655871e+04   0.000000e+00   0.000000e+00   0.000000e+00   1.833133e+06   0.000000e+00   0.000000e+00   0.000000e+00
     1960000   1.959999e-05   3.593887e+01   8.817317e+00   1.341929e+01   1.828514e+06  -8.711514e+04   9.655871e+04   0.000000e+00   0.000000e+00   0.000000e+00   1.833133e+06   0.000000e+00   0.000000e+00   0.000000e+00
     1968000   1.967999e-05   3.608515e+01   8.810348e+00   1.342702e+01   1.828514e+06  -8.711514e+04   9.655871e+04   0.000000e+00   0.000000e+00   0.000000e+00   1.833133e+06   0.000000e+00   0.000000e+00   0.000000e+00
     1976000   1.975999e-05   3.623143e+01   8.803379e+00   1.343474e+01   1.828514e+06  -8.711514e+04   9.655871e+04   0.000000e+00   0.000000e+00   0.000000e+00   1.833133e+06   0.000000e+00   0.000000e+00   0.000000e+00
     1984000   1.983999e-05   3.637771e+01   8.796410e+00   1.344247e+01   1.828514e+06  -8.711514e+04   9.655871e+04   0.000000e+00   0.000000e+00   0.000000e+00   1.833133e+06   0.000000e+00   0.000000e+00   0.000000e+00
     1992000   1.991999e-05   3.652399e+01   8.789440e+00   1.345019e+01   1.828514e+06  -8.711514e+04   9.655871e+04   0.000000e+00   0.000000e+00   0.000000e+00   1.833133e+06   0.000000e+00   0.000000e+00   0.000000e+00
     2000000   1.999999e-05   3.667028e+01   8.782471e+00   1.345792e+01   1.828514e+06  -8.711514e+04   9.655871e+04   0.000000e+00   0.000000e+00   0.000000e+00   1.833133e+06   0.000000e+00   0.000000e+00   0.000000e+00
     2008000   2.007999e-05   3.681656e+01   8.775502e+00   1.346564e+01   1.828514e+06  -8.711514e+04   9.655871e+04   0.000000e+00   0.000000e+00   0.000000e+00   1.833133e+06   0.000000e+00   0.000000e+00   0.000000e+00
     2016000   2.015999e-05   3.696284e+01   8.768533e+00   1.347337e+01   1.828514e+06  -8.711514e+04   9.655871e+04   0.000000e+00   0.000000e+00   0.000000e+00   1.833133e+06   0.000000e+00   0.000000e+00   0.000000e+00
     2024000   2.023999e-05   3.710912e+01   8.761564e+00   1.348109e+01   1.828514e+06  -8.711514e+04   9.655871e+04   0.000000e+00   0.000000e+00   0.000000e+00   1.833133e+06   0.000000e+00   0.000000e+00   0.000000e+00
     2032000   2.031999e-05   3.725540e+01   8.754594e+00   1.348881e+01   1.828514e+06  -8.711514e+04   9.655871e+04   0.000000e+00   0.000000e+00   0.000000e+00   1.833133e+06   0.000000e+00   0.000000e+00   0.000000e+00
     2040000   2.039999e-05   3.740168e+01   8.747625e+00   1.349654e+01   1.828514e+06  -8.711514e+04   9.655871e+04   0.000000e+00   0.000000e+00   0.000000e+00   1.833133e+06   0.000000e+00   0.000000e+00   0.000000e+00
     2048000   2.047999e-05   3.754796e+01   8.740656e+00   1.350426e+01   1.828514e+06  -8.711514e+04   9.655871e+04   0.000000e+00   0.000000e+00   0.000000e+00   1.833133e+06   0.000000e+00   0.000000e+00   0.000000e+00
     2056000   2.055999e-05   3.769424e+01   8.733687e+00   1.351199e+01   1.828514e+06  -8.711514e+04   9.655871e+04   0.000000e+00   0.000000e+00   0.000000e+00   1.833133e+06   0.000000e+00   0.000000e+00   0.000000e+00
     2064000   2.063999e-05   3.784052e+01   8.726717e+00   1.351971e+01   1.828514e+06  -8.711514e+04   9.655871e+04   0.000000e+00   0.000000e+00   0.000000e+00   1.833133e+06   0.000000e+00   0.000000e+00   0.000000e+00
     2072000   2.071999e-05   3.798681e+01   8.719748e+00   1.352744e+01   1.828514e+06  -8.711514e+04   9.655871e+04   0.000000e+00   0.000000e+00   0.000000e+00   1.833133e+06   0.000000e+00   0.000000e+00   0.000000e+00
     2080000   2.079999e-05   3.813309e+01   8.712779e+00   1.353516e+01   1.828514e+06  -8.711514e+04   9.655871e+04   0.000000e+00   0.000000e+00   0.000000e+00   1.833133e+06   0.000000e+00   0.000000e+00   0.000000e+00
     2088000   2.087999e-05   3.827937e+01   8.705810e+00   1.354289e+01   1.828514e+06  -8.711514e+04   9.655871e+04   0.000000e+00   0.000000e+00   0.000000e+00   1.833133e+06   0.000000e+00   0.000000e+00   0.000000e+00
     2096000   2.095999e-05   3.842565e+01   8.698841e+00   1.355061e+01   1.828514e+06  -8.711514e+04   9.655871e+04   0.000000e+00   0.000000e+00   0.000000e+00   1.833133e+06   0.000000e+00   0.000000e+00   0.000000e+00
     2104000   2.103999e-05   3.857193e+01   8.691871e+00   1.355834e+01   1.828514e+06  -8.711514e+04   9.655871e+04   0.000000e+00   0.000000e+00   0.000000e+00   1.833133e+06   0.000000e+00   0.000000e+00   0.000000e+00
     2112000   2.111999e-05   3.871821e+01   8.684902e+00   1.356606e+01   1.828514e+06  -8.711514e+04   9.655871e+04   0.000000e+00   0.000000e+00   0.000000e+00   1.833133e+06   0.000000e+00   0.000000e+00   0.000000e+00
     2120000   2.119999e-05   3.886449e+01   8.677933e+00   1.357379e+01   1.828514e+06  -8.711514e+04   9.655871e+04   0.000000e+00   0.000000e+00   0.000000e+00   1.833133e+06   0.000000e+00   0.000000e+00   0.000000e+00
     2128000   2.127999e-05   3.901077e+01   8.670964e+00   1.358151e+01   1.828514e+06  -8.711514e+04   9.655871e+04   0.000000e+00   0.000000e+00   0.000000e+00   1.833133e+06   0.000000e+00   0.000000e+00   0.000000e+00
     2136000   2.135999e-05   3.915705e+01   8.663995e+00   1.358924e+01   1.828514e+06  -8.711514e+04   9.655871e+04   0.000000e+00   0.000000e+00   0.000000e+00   1.833133e+06   0.000000e+00   0.000000e+00   0.000000e+00
     2144000   2.143999e-05   3.930334e+01   8.657025e+00   1.359696e+01   1.828514e+06  -8.711514e+04   9.655871e+04   0.000000e+00   0.000000e+00   0.000000e+00   1.833133e+06   0.000000e+00   0.000000e+00   0.000000e+00
     2152000   2.151999e-05   3.944962e+01   8.650056e+00   1.360469e+01   1.828514e+06  -8.711514e+04   9.655871e+04   0.000000e+00   0.000000e+00   0.000000e+00   1.833133e+06   0.000000e+00   0.000000e+00   0.000000e+00
     2160000   2.159999e-05   3.959590e+01   8.643087e+00   1.361241e+01   1.828514e+06  -8.711514e+04   9.655871e+04   0.000000e+00   0.000000e+00   0.000000e+00   1.833133e+06   0.000000e+00   0.000000e+00   0.000000e+00
     2168000   2.167999e-05   3.974218e+01   8.636118e+00   1.362013e+01   1.828514e+06  -8.711514e+04   9.655871e+04   0.000000e+00   0.000000e+00   0.000000e+00   1.833133e+06   0.000000e+00   0.000000e+00   0.000000e+00
     2176000   2.175999e-05   3.988846e+01   8.629149e+00   1.362786e+01   1.828514e+06  -8.711514e+04   9.655871e+04   0.000000e+00   0.000000e+00   0.000000e+00   1.833133e+06   0.000000e+00   0.000000e+00   0.000000e+00
     2184000   2.183999e-05   4.003474e+01   8.622179e+00   1.363558e+01   1.828514e+06  -8.711514e+04   9.655871e+04   0.000000e+00   0.000000e+00   0.000000e+00   1.833133e+06   0.000000e+00   0.000000e+00   0.000000e+00
     2192000   2.191999e-05   4.018102e+01   8.615210e+00   1.364331e+01   1.828514e+06  -8.711514e+04   9.655871e+04   0.000000e+00   0.000000e+00   0.000000e+00   1.833133e+06   0.000000e+00   0.000000e+00   0.000000e+00
     2200000   2.199999e-05   4.032730e+01   8.608241e+00   1.365103e+01   1.828514e+06  -8.711514e+04   9.655871e+04   0.000000e+00   0.000000e+00   0.000000e+00   1.833133e+06   0.000000e+00   0.000000e+00   0.000000e+00
     2208000   2.207999e-05   4.047358e+01   8.601272e+00   1.365876e+01   1.828514e+06  -8.711514e+04   9.655871e+04   0.000000e+00   0.000000e+00   0.000000e+00   1.833133e+06   0.000000e+00   0.000000e+00   0.000000e+00
     2216000   2.215999e-05   4.061987e+01   8.594302e+00   1.366648e+01   1.828514e+06  -8.711514e+04   9.655871e+04   0.000000e+00   0.000000e+00   0.000000e+00   1.833133e+06   0.000000e+00   0.000000e+00   0.000000e+00
     2224000   2.223999e-05   4.076615e+01   8.587333e+00   1.367421e+01   1.828514e+06  -8.711514e+04   9.655871e+04   0.000000e+00   0.000000e+00   0.000000e+00   1.833133e+06   0.000000e+00   0.000000e+00   0.000000e+00
     2232000   2.231999e-05   4.091243e+01   8.580364e+00   1.368193e+01   1.828514e+06  -8.711514e+04   9.655871e+04   0.000000e+00   0.000000e+00   0.000000e+00   1.833133e+06   0.000000e+00   0.000000e+00   0.000000e+00
     2240000   2.239999e-05   4.105871e+01   8.573395e+00   1.368966e+01   1.828514e+06  -8.711514e+04   9.655871e+04   0.000000e+00   0.000000e+00   0.000000e+00   1.833133e+06   0.000000e+00   0.000000e+00   0.000000e+00
     2248000   2.247999e-05   4.120499e+01   8.566426e+00   1.369738e+01   1.828514e+06  -8.711514e+04   9.655871e+04   0.000000e+00   0.000000e+00   0.000000e+00   1.833133e+06   0.000000e+00   0.000000e+00   0.000000e+00
     2256000   2.255999e-05   4.135127e+01   8.559456e+00   1.370511e+01   1.828514e+06  -8.711514e+04   9.655871e+04   0.000000e+00   0.000000e+00   0.000000e+00   1.833133e+06   0.000000e+00   0.000000e+00   0.000000e+00
     2264000   2.263999e-05   4.149755e+01   8.552487e+00   1.371283e+01   1.828514e+06  -8.711514e+04   9.655871e+04   0.000000e+00   0.000000e+00   0.000000e+00   1.833133e+06   0.000000e+00   0.000000e+00   0.000000e+00
     2272000   2.271999e-05   4.164383e+01   8.545518e+00   1.372056e+01   1.828514e+06  -8.711514e+04   9.655871e+04   0.000000e+00   0.000000e+00   0.000000e+00   1.833133e+06   0.000000e+00   0.000000e+00   0.000000e+00
     2280000   2.279999e-05   4.179011e+01   8.538549e+00   1.372828e+01   1.828514e+06  -8.711514e+04   9.655871e+04   0.000000e+00   0.000000e+00   0.000000e+00   1.833133e+06   0.000000e+00   0.000000e+00   0.000000e+00
     2288000   2.287999e-05   4.193640e+01   8.531580e+00   1.373601e+01   1.828514e+06  -8.711514e+04   9.655871e+04   0.000000e+00   0.000000e+00   0.000000e+00   1.833133e+06   0.000000e+00   0.000000e+00   0.000000e+00
     2296000   2.295999e-05   4.208268e+01   8.524610e+00   1.374373e+01   1.828514e+06  -8.711514e+04   9.655871e+04   0.000000e+00   0.000000e+00   0.000000e+00   1.833133e+06   0.000000e+00   0.000000e+00   0.000000e+00
     2304000   2.303999e-05   4.222896e+01   8.517641e+00   1.375145e+01   1.828514e+06  -8.711514e+04   9.655871e+04   0.000000e+00   0.000000e+00   0.000000e+00   1.833133e+06   0.000000e+00   0.000000e+00   0.000000e+00
     2312000   2.311999e-05   4.237524e+01   8.510672e+00   1.375918e+01   1.828514e+06  -8.711514e+04   9.655871e+04   0.000000e+00   0.000000e+00   0.000000e+00   1.833133e+06   0.000000e+00   0.000000e+00   0.000000e+00
     2320000   2.319999e-05   4.252152e+01   8.503703e+00   1.376690e+01   1.828514e+06  -8.711514e+04   9.655871e+04   0.000000e+00   0.000000e+00   0.000000e+00   1.833133e+06   0.000000e+00   0.000000e+00   0.000000e+00
     2328000   2.327999e-05   4.266780e+01   8.496734e+00   1.377463e+01   1.828514e+06  -8.711514e+04   9.655871e+04   0.000000e+00   0.000000e+00   0.000000e+00   1.833133e+06   0.000000e+00   0.000000e+00   0.000000e+00
     2336000   2.335999e-05   4.281408e+01   8.489764e+00   1.378235e+01   1.828514e+06  -8.711514e+04   9.655871e+04   0.000000e+00   0.000000e+00   0.000000e+00   1.833133e+06   0.000000e+00   0.000000e+00   0.000000e+00
     2344000   2.343999e-05   4.296036e+01   8.482795e+00   1.379008e+01   1.828514e+06  -8.711514e+04   9.655871e+04   0.000000e+00   0.000000e+00   0.000000e+00   1.833133e+06   0.000000e+00   0.000000e+00   0.000000e+00
     2352000   2.351999e-05   4.310664e+01   8.475826e+00   1.379780e+01   1.828514e+06  -8.711514e+04   9.655871e+04   0.000000e+00   0.000000e+00   0.000000e+00   1.833133e+06   0.000000e+00   0.000000e+00   0.000000e+00
     2360000   2.359999e-05   4.325292e+01   8.468857e+00   1.380553e+01   1.828514e+06  -8.711514e+04   9.655871e+04   0.000000e+00   0.000000e+00   0.000000e+00   1.833133e+06   0.000000e+00   0.000000e+00   0.000000e+00
     2368000   2.367999e-05   4.339921e+01   8.461887e+00   1.381325e+01   1.828514e+06  -8.711514e+04   9.655871e+04   0.000000e+00   0.000000e+00   0.000000e+00   1.833133e+06   0.000000e+00   0.000000e+00   0.000000e+00
     2376000   2.375999e-05   4.354549e+01   8.454918e+00   1.382098e+01   1.828514e+06  -8.711514e+04   9.655871e+04   0.000000e+00   0.000000e+00   0.000000e+00   1.833133e+06   0.000000e+00   0.000000e+00   0.000000e+00
     2384000   2.383999e-05   4.369177e+01   8.447949e+00   1.382870e+01   1.828514e+06  -8.711514e+04   9.655871e+04   0.000000e+00   0.000000e+00   0.000000e+00   1.833133e+06   0.000000e+00   0.000000e+00   0.000000e+00
     2392000   2.391999e-05   4.383805e+01   8.440980e+00   1.383643e+01   1.828514e+06  -8.711514e+04   9.655871e+04   0.000000e+00   0.000000e+00   0.000000e+00   1.833133e+06   0.000000e+00   0.000000e+00   0.000000e+00
     2400000   2.399999e-05   4.398433e+01   8.434011e+00   1.384415e+01   1.828514e+06  -8.711514e+04   9.655871e+04   0.000000e+00   0.000000e+00   0.000000e+00   1.833133e+06   0.000000e+00   0.000000e+00   0.000000e+00
     2408000   2.407999e-05   4.413061e+01   8.427041e+00   1.385188e+01   1.828514e+06  -8.711514e+04   9.655871e+04   0.000000e+00   0.000000e+00   0.000000e+00   1.833133e+06   0.000000e+00   0.000000e+00   0.000000e+00
     2416000   2.415999e-05   4.427689e+01   8.420072e+00   1.385960e+01   1.828514e+06  -8.711514e+04   9.655871e+04   0.000000e+00   0.000000e+00   0.000000e+00   1.833133e+06   0.000000e+00   0.000000e+00   0.000000e+00
     2424000   2.423999e-05   4.442317e+01   8.413103e+00   1.386733e+01   1.828514e+06  -8.711514e+04   9.655871e+04   0.000000e+00   0.000000e+00   0.000000e+00   1.833133e+06   0.000000e+00   0.000000e+00   0.000000e+00
     2432000   2.431999e-05   4.456945e+01   8.406134e+00   1.387505e+01   1.828514e+06  -8.711514e+04   9.655871e+04   0.000000e+00   0.000000e+00   0.000000e+00   1.833133e+06   0.000000e+00   0.000000e+00   0.000000e+00
     2440000   2.439999e-05   4.471574e+01   8.399165e+00   1.388277e+01   1.828514e+06  -8.711514e+04   9.655871e+04   0.000000e+00   0.000000e+00   0.000000e+00   1.833133e+06   0.000000e+00   0.000000e+00   0.000000e+00
     2448000   2.447999e-05   4.486202e+01   8.392195e+00   1.389050e+01   1.828514e+06  -8.711514e+04   9.655871e+04   0.000000e+00   0.000000e+00   0.000000e+00   1.833133e+06   0.000000e+00   0.000000e+00   0.000000e+00
     2456000   2.455999e-05   4.500830e+01   8.385226e+00   1.389822e+01   1.828514e+06  -8.711514e+04   9.655871e+04   0.000000e+00   0.000000e+00   0.000000e+00   1.833133e+06   0.000000e+00   0.000000e+00   0.000000e+00
     2464000   2.463999e-05   4.515458e+01   8.378257e+00   1.390595e+01   1.828514e+06  -8.711514e+04   9.655871e+04   0.000000e+00   0.000000e+00   0.000000e+00   1.833133e+06   0.000000e+00   0.000000e+00   0.000000e+00
     2472000   2.471999e-05   4.530086e+01   8.371288e+00   1.391367e+01   1.828514e+06  -8.711514e+04   9.655871e+04   0.000000e+00   0.000000e+00   0.000000e+00   1.833133e+06   0.000000e+00   0.000000e+00   0.000000e+00
     2480000   2.479999e-05   4.544714e+01   8.364318e+00   1.392140e+01   1.828514e+06  -8.711514e+04   9.655871e+04   0.000000e+00   0.000000e+00   0.000000e+00   1.833133e+06   0.000000e+00   0.000000e+00   0.000000e+00
     2488000   2.487999e-05   4.559342e+01   8.357349e+00   1.392912e+01   1.828514e+06  -8.711514e+04   9.655871e+04   0.000000e+00   0.000000e+00   0.000000e+00   1.833133e+06   0.000000e+00   0.000000e+00   0.000000e+00
     2496000   2.495999e-05   4.573970e+01   8.350380e+00   1.393685e+01   1.828514e+06  -8.711514e+04   9.655871e+04   0.000000e+00   0.000000e+00   0.000000e+00   1.833133e+06   0.000000e+00   0.000000e+00   0.000000e+00
     2504000   2.503999e-05   4.588598e+01   8.343411e+00   1.394457e+01   1.828514e+06  -8.711514e+04   9.655871e+04   0.000000e+00   0.000000e+00   0.000000e+00   1.833133e+06   0.000000e+00   0.000000e+00   0.000000e+00
     2512000   2.511999e-05   4.603227e+01   8.336442e+00   1.395230e+01   1.828514e+06  -8.711514e+04   9.655871e+04   0.000000e+00   0.000000e+00   0.000000e+00   1.833133e+06   0.000000e+00   0.000000e+00   0.000000e+00
     2520000   2.519999e-05   4.617855e+01   8.329472e+00   1.396002e+01   1.828514e+06  -8.711514e+04   9.655871e+04   0.000000e+00   0.000000e+00   0.000000e+00   1.833133e+06   0.000000e+00   0.000000e+00   0.000000e+00
     2528000   2.527999e-05   4.632483e+01   8.322503e+00   1.396775e+01   1.828514e+06  -8.711514e+04   9.655871e+04   0.000000e+00   0.000000e+00   0.000000e+00   1.833133e+06   0.000000e+00   0.000000e+00   0.000000e+00
     2536000   2.535999e-05   4.647111e+01   8.315534e+00   1.397547e+01   1.828514e+06  -8.711514e+04   9.655871e+04   0.000000e+00   0.000000e+00   0.000000e+00   1.833133e+06   0.000000e+00   0.000000e+00   0.000000e+00
     2544000   2.543999e-05   4.661739e+01   8.308565e+00   1.398320e+01   1.828514e+06  -8.711514e+04   9.655871e+04   0.000000e+00   0.000000e+00   0.000000e+00   1.833133e+06   0.000000e+00   0.000000e+00   0.000000e+00
     2552000   2.551999e-05   4.676367e+01   8.301596e+00   1.399092e+01   1.828514e+06  -8.711514e+04   9.655871e+04   0.000000e+00   0.000000e+00   0.000000e+00   1.833133e+06   0.000000e+00   0.000000e+00   0.000000e+00
     2560000   2.559999e-05   4.690995e+01   8.294626e+00   1.399864e+01   1.828514e+06  -8.711514e+04   9.655871e+04   0.000000e+00   0.000000e+00   0.000000e+00   1.833133e+06   0.000000e+00   0.000000e+00   0.000000e+00
     2568000   2.567999e-05   4.705623e+01   8.287657e+00   1.400637e+01   1.828514e+06  -8.711514e+04   9.655871e+04   0.000000e+00   0.000000e+00   0.000000e+00   1.833133e+06   0.000000e+00   0.000000e+00   0.000000e+00
     2576000   2.575999e-05   4.720251e+01   8.280688e+00   1.401409e+01   1.828514e+06  -8.711514e+04   9.655871e+04   0.000000e+00   0.000000e+00   0.000000e+00   1.833133e+06   0.000000e+00   0.000000e+00   0.000000e+00
     2584000   2.583999e-05   4.734880e+01   8.273719e+00   1.402182e+01   1.828514e+06  -8.711514e+04   9.655871e+04   0.000000e+00   0.000000e+00   0.000000e+00   1.833133e+06   0.000000e+00   0.000000e+00   0.000000e+00
     2592000   2.591999e-05   4.749508e+01   8.266750e+00   1.402954e+01   1.828514e+06  -8.711514e+04   9.655871e+04   0.000000e+00   0.000000e+00   0.000000e+00   1.833133e+06   0.000000e+00   0.000000e+00   0.000000e+00
     2600000   2.599999e-05   4.764136e+01   8.259780e+00   1.403727e+01   1.828514e+06  -8.711514e+04   9.655871e+04   0.000000e+00   0.000000e+00   0.000000e+00   1.833133e+06   0.000000e+00   0.000000e+00   0.000000e+00
     2608000   2.607999e-05   4.778764e+01   8.252811e+00   1.404499e+01   1.828514e+06  -8.711514e+04   9.655871e+04   0.000000e+00   0.000000e+00   0.000000e+00   1.833133e+06   0.000000e+00   0.000000e+00   0.000000e+00
     2616000   2.615999e-05   4.793392e+01   8.245842e+00   1.405272e+01   1.828514e+06  -8.711514e+04   9.655871e+04   0.000000e+00   0.000000e+00   0.000000e+00   1.833133e+06   0.000000e+00   0.000000e+00   0.000000e+00
     2624000   2.623999e-05   4.808020e+01   8.238873e+00   1.406044e+01   1.828514e+06  -8.711514e+04   9.655871e+04   0.000000e+00   0.000000e+00   0.000000e+00   1.833133e+06   0.000000e+00   0.000000e+00   0.000000e+00
     2632000   2.631999e-05   4.822648e+01   8.231903e+00   1.406817e+01   1.828514e+06  -8.711514e+04   9.655871e+04   0.000000e+00   0.000000e+00   0.000000e+00   1.833133e+06   0.000000e+00   0.000000e+00   0.000000e+00
     2640000   2.639999e-05   4.837276e+01   8.224934e+00   1.407589e+01   1.828514e+06  -8.711514e+04   9.655871e+04   0.000000e+00   0.000000e+00   0.000000e+00   1.833133e+06   0.000000e+00   0.000000e+00   0.000000e+00
     2648000   2.647999e-05   4.851904e+01   8.217965e+00   1.408362e+01   1.828514e+06  -8.711514e+04   9.655871e+04   0.000000e+00   0.000000e+00   0.000000e+00   1.833133e+06   0.000000e+00   0.000000e+00   0.000000e+00
     2656000   2.655999e-05   4.866533e+01   8.210996e+00   1.409134e+01   1.828514e+06  -8.711514e+04   9.655871e+04   0.000000e+00   0.000000e+00   0.000000e+00   1.833133e+06   0.000000e+00   0.000000e+00   0.000000e+00
     2664000   2.663999e-05   4.881161e+01   8.204027e+00   1.409907e+01   1.828514e+06  -8.711514e+04   9.655871e+04   0.000000e+00   0.000000e+00   0.000000e+00   1.833133e+06   0.000000e+00   0.000000e+00   0.000000e+00
     2672000   2.671999e-05   4.895789e+01   8.197057e+00   1.410679e+01   1.828514e+06  -8.711514e+04   9.655871e+04   0.000000e+00   0.000000e+00   0.000000e+00   1.833133e+06   0.000000e+00   0.000000e+00   0.000000e+00
     2680000   2.679999e-05   4.910417e+01   8.190088e+00   1.411452e+01   1.828514e+06  -8.711514e+04   9.655871e+04   0.000000e+00   0.000000e+00   0.000000e+00   1.833133e+06   0.000000e+00   0.000000e+00   0.000000e+00
     2688000   2.687999e-05   4.925045e+01   8.183119e+00   1.412224e+01   1.828514e+06  -8.711514e+04   9.655871e+04   0.000000e+00   0.000000e+00   0.000000e+00   1.833133e+06   0.000000e+00   0.000000e+00   0.000000e+00
     2696000   2.695999e-05   4.939673e+01   8.176150e+00   1.412996e+01   1.828514e+06  -8.711514e+04   9.655871e+04   0.000000e+00   0.000000e+00   0.000000e+00   1.833133e+06   0.000000e+00   0.000000e+00   0.000000e+00
     2704000   2.703999e-05   4.954301e+01   8.169181e+00   1.413769e+01   1.828514e+06  -8.711514e+04   9.655871e+04   0.000000e+00   0.000000e+00   0.000000e+00   1.833133e+06   0.000000e+00   0.000000e+00   0.000000e+00
     2712000   2.711999e-05   4.968929e+01   8.162211e+00   1.414541e+01   1.828514e+06  -8.711514e+04   9.655871e+04   0.000000e+00   0.000000e+00   0.000000e+00   1.833133e+06   0.000000e+00   0.000000e+00   0.000000e+00
     2720000   2.719999e-05   4.983557e+01   8.155242e+00   1.415314e+01   1.828514e+06  -8.711514e+04   9.655871e+04   0.000000e+00   0.000000e+00   0.000000e+00   1.833133e+06   0.000000e+00   0.000000e+00   0.000000e+00
     2728000   2.727999e-05   4.998186e+01   8.148273e+00   1.416086e+01   1.828514e+06  -8.711514e+04   9.655871e+04   0.000000e+00   0.000000e+00   0.000000e+00   1.833133e+06   0.000000e+00   0.000000e+00   0.000000e+00
