     timestep     time              x             y              z              vx             vy             vz             ax             ay             az         v_magnitude      ELoss        Electronic      Nuclear
           0   0.000000e+00   1.000000e-01   1.939049e+01   6.967394e+00   3.173963e+05   7.291995e+05  -3.504653e+05   0.000000e+00   0.000000e+00   0.000000e+00   8.690790e+05   0.000000e+00   0.000000e+00   0.000000e+00
        8000   7.999000e-08   1.253917e-01   1.944882e+01   6.939357e+00   3.173963e+05   7.291995e+05  -3.504653e+05   0.000000e+00   0.000000e+00   0.000000e+00   8.690790e+05   0.000000e+00   0.000000e+00   0.000000e+00
       16000   1.599900e-07   1.507834e-01   1.950716e+01   6.911320e+00   3.173963e+05   7.291995e+05  -3.504653e+05   0.000000e+00   0.000000e+00   0.000000e+00   8.690790e+05   0.000000e+00   0.000000e+00   0.000000e+00
       24000   2.399900e-07   1.761751e-01   1.956549e+01   6.883282e+00   3.173963e+05   7.291995e+05  -3.504653e+05   0.000000e+00   0.000000e+00   0.000000e+00   8.690790e+05   0.000000e+00   0.000000e+00   0.000000e+00
       32000   3.199900e-07   2.015668e-01   1.962383e+01   6.855245e+00   3.173963e+05   7.291995e+05  -3.504653e+05   0.000000e+00   0.000000e+00   0.000000e+00   8.690790e+05   0.000000e+00   0.000000e+00   0.000000e+00
       40000   3.999900e-07   2.269585e-01   1.968217e+01   6.827208e+00   3.173963e+05   7.291995e+05  -3.504653e+05   0.000000e+00   0.000000e+00   0.000000e+00   8.690790e+05   0.000000e+00   0.000000e+00   0.000000e+00
       48000   4.799900e-07   2.523502e-01   1.974050e+01   6.799171e+00   3.173963e+05   7.291995e+05  -3.504653e+05   0.000000e+00   0.000000e+00   0.000000e+00   8.690790e+05   0.000000e+00   0.000000e+00   0.000000e+00
       56000   5.599900e-07   2.777419e-01   1.979884e+01   6.771133e+00   3.173963e+05   7.291995e+05  -3.504653e+05   0.000000e+00   0.000000e+00   0.000000e+00   8.690790e+05   0.000000e+00   0.000000e+00   0.000000e+00
       64000   6.399900e-07   3.031337e-01   1.985717e+01   6.743096e+00   3.173963e+05   7.291995e+05  -3.504653e+05   0.000000e+00   0.000000e+00   0.000000e+00   8.690790e+05   0.000000e+00   0.000000e+00   0.000000e+00
       72000   7.199900e-07   3.285254e-01   1.991551e+01   6.715059e+00   3.173963e+05   7.291995e+05  -3.504653e+05   0.000000e+00   0.000000e+00   0.000000e+00   8.690790e+05   0.000000e+00   0.000000e+00   0.000000e+00
       80000   7.999900e-07   3.539171e-01   1.997385e+01   6.687022e+00   3.173963e+05   7.291995e+05  -3.504653e+05   0.000000e+00   0.000000e+00   0.000000e+00   8.690790e+05   0.000000e+00   0.000000e+00   0.000000e+00
       88000   8.799900e-07   3.793088e-01   2.003218e+01   6.658985e+00   3.173963e+05   7.291995e+05  -3.504653e+05   0.000000e+00   0.000000e+00   0.000000e+00   8.690790e+05   0.000000e+00   0.000000e+00   0.000000e+00
       96000   9.599900e-07   4.047005e-01   2.009052e+01   6.630947e+00   3.173963e+05   7.291995e+05  -3.504653e+05   0.000000e+00   0.000000e+00   0.000000e+00   8.690790e+05   0.000000e+00   0.000000e+00   0.000000e+00
      104000   1.039990e-06   4.300922e-01   2.014885e+01   6.602910e+00   3.173963e+05   7.291995e+05  -3.504653e+05   0.000000e+00   0.000000e+00   0.000000e+00   8.690790e+05   0.000000e+00   0.000000e+00   0.000000e+00
      112000   1.119990e-06   4.554839e-01   2.020719e+01   6.574873e+00   3.173963e+05   7.291995e+05  -3.504653e+05   0.000000e+00   0.000000e+00   0.000000e+00   8.690790e+05   0.000000e+00   0.000000e+00   0.000000e+00
      120000   1.199990e-06   4.808756e-01   2.026553e+01   6.546836e+00   3.173963e+05   7.291995e+05  -3.504653e+05   0.000000e+00   0.000000e+00   0.000000e+00   8.690790e+05   0.000000e+00   0.000000e+00   0.000000e+00
      128000   1.279990e-06   5.062673e-01   2.032386e+01   6.518798e+00   3.173963e+05   7.291995e+05  -3.504653e+05   0.000000e+00   0.000000e+00   0.000000e+00   8.690790e+05   0.000000e+00   0.000000e+00   0.000000e+00
      136000   1.359990e-06   5.316590e-01   2.038220e+01   6.490761e+00   3.173963e+05   7.291995e+05  -3.504653e+05   0.000000e+00   0.000000e+00   0.000000e+00   8.690790e+05   0.000000e+00   0.000000e+00   0.000000e+00
      144000   1.439990e-06   5.570507e-01   2.044053e+01   6.462724e+00   3.173963e+05   7.291995e+05  -3.504653e+05   0.000000e+00   0.000000e+00   0.000000e+00   8.690790e+05   0.000000e+00   0.000000e+00   0.000000e+00
      152000   1.519990e-06   5.824424e-01   2.049887e+01   6.434687e+00   3.173963e+05   7.291995e+05  -3.504653e+05   0.000000e+00   0.000000e+00   0.000000e+00   8.690790e+05   0.000000e+00   0.000000e+00   0.000000e+00
      160000   1.599990e-06   6.078341e-01   2.055721e+01   6.406649e+00   3.173963e+05   7.291995e+05  -3.504653e+05   0.000000e+00   0.000000e+00   0.000000e+00   8.690790e+05   0.000000e+00   0.000000e+00   0.000000e+00
      168000   1.679990e-06   6.332258e-01   2.061554e+01   6.378612e+00   3.173963e+05   7.291995e+05  -3.504653e+05   0.000000e+00   0.000000e+00   0.000000e+00   8.690790e+05   0.000000e+00   0.000000e+00   0.000000e+00
      176000   1.759990e-06   6.586175e-01   2.067388e+01   6.350575e+00   3.173963e+05   7.291995e+05  -3.504653e+05   0.000000e+00   0.000000e+00   0.000000e+00   8.690790e+05   0.000000e+00   0.000000e+00   0.000000e+00
      184000   1.839990e-06   6.840093e-01   2.073221e+01   6.322538e+00   3.173963e+05   7.291995e+05  -3.504653e+05   0.000000e+00   0.000000e+00   0.000000e+00   8.690790e+05   0.000000e+00   0.000000e+00   0.000000e+00
      192000   1.919990e-06   7.094010e-01   2.079055e+01   6.294501e+00   3.173963e+05   7.291995e+05  -3.504653e+05   0.000000e+00   0.000000e+00   0.000000e+00   8.690790e+05   0.000000e+00   0.000000e+00   0.000000e+00
      200000   1.999990e-06   7.347927e-01   2.084888e+01   6.266463e+00   3.173963e+05   7.291995e+05  -3.504653e+05   0.000000e+00   0.000000e+00   0.000000e+00   8.690790e+05   0.000000e+00   0.000000e+00   0.000000e+00
      208000   2.079990e-06   7.601844e-01   2.090722e+01   6.238426e+00   3.173963e+05   7.291995e+05  -3.504653e+05   0.000000e+00   0.000000e+00   0.000000e+00   8.690790e+05   0.000000e+00   0.000000e+00   0.000000e+00
      216000   2.159990e-06   7.855761e-01   2.096556e+01   6.210389e+00   3.173963e+05   7.291995e+05  -3.504653e+05   0.000000e+00   0.000000e+00   0.000000e+00   8.690790e+05   0.000000e+00   0.000000e+00   0.000000e+00
      224000   2.239990e-06   8.109678e-01   2.102389e+01   6.182352e+00   3.173963e+05   7.291995e+05  -3.504653e+05   0.000000e+00   0.000000e+00   0.000000e+00   8.690790e+05   0.000000e+00   0.000000e+00   0.000000e+00
      232000   2.319990e-06   8.363595e-01   2.108223e+01   6.154314e+00   3.173963e+05   7.291995e+05  -3.504653e+05   0.000000e+00   0.000000e+00   0.000000e+00   8.690790e+05   0.000000e+00   0.000000e+00   0.000000e+00
      240000   2.399990e-06   8.617512e-01   2.114056e+01   6.126277e+00   3.173963e+05   7.291995e+05  -3.504653e+05   0.000000e+00   0.000000e+00   0.000000e+00   8.690790e+05   0.000000e+00   0.000000e+00   0.000000e+00
      248000   2.479990e-06   8.871429e-01   2.119890e+01   6.098240e+00   3.173963e+05   7.291995e+05  -3.504653e+05   0.000000e+00   0.000000e+00   0.000000e+00   8.690790e+05   0.000000e+00   0.000000e+00   0.000000e+00
      256000   2.559990e-06   9.125346e-01   2.125724e+01   6.070203e+00   3.173963e+05   7.291995e+05  -3.504653e+05   0.000000e+00   0.000000e+00   0.000000e+00   8.690790e+05   0.000000e+00   0.000000e+00   0.000000e+00
      264000   2.639990e-06   9.379263e-01   2.131557e+01   6.042166e+00   3.173963e+05   7.291995e+05  -3.504653e+05   0.000000e+00   0.000000e+00   0.000000e+00   8.690790e+05   0.000000e+00   0.000000e+00   0.000000e+00
      272000   2.719990e-06   9.633180e-01   2.137391e+01   6.014128e+00   3.173963e+05   7.291995e+05  -3.504653e+05   0.000000e+00   0.000000e+00   0.000000e+00   8.690790e+05   0.000000e+00   0.000000e+00   0.000000e+00
      280000   2.799990e-06   9.887097e-01   2.143224e+01   5.986091e+00   3.173963e+05   7.291995e+05  -3.504653e+05   0.000000e+00   0.000000e+00   0.000000e+00   8.690790e+05   0.000000e+00   0.000000e+00   0.000000e+00
      288000   2.879990e-06   1.014101e+00   2.149058e+01   5.958054e+00   3.173963e+05   7.291995e+05  -3.504653e+05   0.000000e+00   0.000000e+00   0.000000e+00   8.690790e+05   0.000000e+00   0.000000e+00   0.000000e+00
      296000   2.959990e-06   1.039493e+00   2.154892e+01   5.930017e+00   3.173963e+05   7.291995e+05  -3.504653e+05   0.000000e+00   0.000000e+00   0.000000e+00   8.690790e+05   0.000000e+00   0.000000e+00   0.000000e+00
      304000   3.039990e-06   1.064885e+00   2.160725e+01   5.901979e+00   3.173963e+05   7.291995e+05  -3.504653e+05   0.000000e+00   0.000000e+00   0.000000e+00   8.690790e+05   0.000000e+00   0.000000e+00   0.000000e+00
      312000   3.119990e-06   1.090277e+00   2.166559e+01   5.873942e+00   3.173963e+05   7.291995e+05  -3.504653e+05   0.000000e+00   0.000000e+00   0.000000e+00   8.690790e+05   0.000000e+00   0.000000e+00   0.000000e+00
      320000   3.199990e-06   1.115668e+00   2.172392e+01   5.845905e+00   3.173963e+05   7.291995e+05  -3.504653e+05   0.000000e+00   0.000000e+00   0.000000e+00   8.690790e+05   0.000000e+00   0.000000e+00   0.000000e+00
      328000   3.279990e-06   1.141060e+00   2.178226e+01   5.817868e+00   3.173963e+05   7.291995e+05  -3.504653e+05   0.000000e+00   0.000000e+00   0.000000e+00   8.690790e+05   0.000000e+00   0.000000e+00   0.000000e+00
      336000   3.359990e-06   1.166452e+00   2.184060e+01   5.789831e+00   3.173963e+05   7.291995e+05  -3.504653e+05   0.000000e+00   0.000000e+00   0.000000e+00   8.690790e+05   0.000000e+00   0.000000e+00   0.000000e+00
      344000   3.439990e-06   1.191843e+00   2.189893e+01   5.761793e+00   3.173963e+05   7.291995e+05  -3.504653e+05   0.000000e+00   0.000000e+00   0.000000e+00   8.690790e+05   0.000000e+00   0.000000e+00   0.000000e+00
      352000   3.519990e-06   1.217235e+00   2.195727e+01   5.733756e+00   3.173963e+05   7.291995e+05  -3.504653e+05   0.000000e+00   0.000000e+00   0.000000e+00   8.690790e+05   0.000000e+00   0.000000e+00   0.000000e+00
      360000   3.599990e-06   1.242627e+00   2.201560e+01   5.705719e+00   3.173963e+05   7.291995e+05  -3.504653e+05   0.000000e+00   0.000000e+00   0.000000e+00   8.690790e+05   0.000000e+00   0.000000e+00   0.000000e+00
      368000   3.679990e-06   1.268019e+00   2.207394e+01   5.677682e+00   3.173963e+05   7.291995e+05  -3.504653e+05   0.000000e+00   0.000000e+00   0.000000e+00   8.690790e+05   0.000000e+00   0.000000e+00   0.000000e+00
      376000   3.759990e-06   1.293410e+00   2.213228e+01   5.649644e+00   3.173963e+05   7.291995e+05  -3.504653e+05   0.000000e+00   0.000000e+00   0.000000e+00   8.690790e+05   0.000000e+00   0.000000e+00   0.000000e+00
      384000   3.839990e-06   1.318802e+00   2.219061e+01   5.621607e+00   3.173963e+05   7.291995e+05  -3.504653e+05   0.000000e+00   0.000000e+00   0.000000e+00   8.690790e+05   0.000000e+00   0.000000e+00   0.000000e+00
      392000   3.919990e-06   1.344194e+00   2.224895e+01   5.593570e+00   3.173963e+05   7.291995e+05  -3.504653e+05   0.000000e+00   0.000000e+00   0.000000e+00   8.690790e+05   0.000000e+00   0.000000e+00   0.000000e+00
      400000   3.999990e-06   1.369585e+00   2.230728e+01   5.565533e+00   3.173963e+05   7.291995e+05  -3.504653e+05   0.000000e+00   0.000000e+00   0.000000e+00   8.690790e+05   0.000000e+00   0.000000e+00   0.000000e+00
      408000   4.079990e-06   1.394977e+00   2.236562e+01   5.537496e+00   3.173963e+05   7.291995e+05  -3.504653e+05   0.000000e+00   0.000000e+00   0.000000e+00   8.690790e+05   0.000000e+00   0.000000e+00   0.000000e+00
      416000   4.159990e-06   1.420369e+00   2.242396e+01   5.509458e+00   3.173963e+05   7.291995e+05  -3.504653e+05   0.000000e+00   0.000000e+00   0.000000e+00   8.690790e+05   0.000000e+00   0.000000e+00   0.000000e+00
      424000   4.239990e-06   1.445760e+00   2.248229e+01   5.481421e+00   3.173963e+05   7.291995e+05  -3.504653e+05   0.000000e+00   0.000000e+00   0.000000e+00   8.690790e+05   0.000000e+00   0.000000e+00   0.000000e+00
      432000   4.319990e-06   1.471152e+00   2.254063e+01   5.453384e+00   3.173963e+05   7.291995e+05  -3.504653e+05   0.000000e+00   0.000000e+00   0.000000e+00   8.690790e+05   0.000000e+00   0.000000e+00   0.000000e+00
      440000   4.399990e-06   1.496544e+00   2.259896e+01   5.425347e+00   3.173963e+05   7.291995e+05  -3.504653e+05   0.000000e+00   0.000000e+00   0.000000e+00   8.690790e+05   0.000000e+00   0.000000e+00   0.000000e+00
      448000   4.479990e-06   1.521936e+00   2.265730e+01   5.397309e+00   3.173963e+05   7.291995e+05  -3.504653e+05   0.000000e+00   0.000000e+00   0.000000e+00   8.690790e+05   0.000000e+00   0.000000e+00   0.000000e+00
      456000   4.559990e-06   1.547327e+00   2.271564e+01   5.369272e+00   3.173963e+05   7.291995e+05  -3.504653e+05   0.000000e+00   0.000000e+00   0.000000e+00   8.690790e+05   0.000000e+00   0.000000e+00   0.000000e+00
      464000   4.639990e-06   1.572719e+00   2.277397e+01   5.341235e+00   3.173963e+05   7.291995e+05  -3.504653e+05   0.000000e+00   0.000000e+00   0.000000e+00   8.690790e+05   0.000000e+00   0.000000e+00   0.000000e+00
      472000   4.719990e-06   1.598111e+00   2.283231e+01   5.313198e+00   3.173963e+05   7.291995e+05  -3.504653e+05   0.000000e+00   0.000000e+00   0.000000e+00   8.690790e+05   0.000000e+00   0.000000e+00   0.000000e+00
      480000   4.799990e-06   1.623502e+00   2.289064e+01   5.285160e+00   3.173963e+05   7.291995e+05  -3.504653e+05   0.000000e+00   0.000000e+00   0.000000e+00   8.690790e+05   0.000000e+00   0.000000e+00   0.000000e+00
      488000   4.879990e-06   1.648894e+00   2.294898e+01   5.257123e+00   3.173963e+05   7.291995e+05  -3.504653e+05   0.000000e+00   0.000000e+00   0.000000e+00   8.690790e+05   0.000000e+00   0.000000e+00   0.000000e+00
      496000   4.959990e-06   1.674286e+00   2.300732e+01   5.229086e+00   3.173963e+05   7.291995e+05  -3.504653e+05   0.000000e+00   0.000000e+00   0.000000e+00   8.690790e+05   0.000000e+00   0.000000e+00   0.000000e+00
      504000   5.039990e-06   1.699678e+00   2.306565e+01   5.201049e+00   3.173963e+05   7.291995e+05  -3.504653e+05   0.000000e+00   0.000000e+00   0.000000e+00   8.690790e+05   0.000000e+00   0.000000e+00   0.000000e+00
      512000   5.119990e-06   1.725069e+00   2.312399e+01   5.173012e+00   3.173963e+05   7.291995e+05  -3.504653e+05   0.000000e+00   0.000000e+00   0.000000e+00   8.690790e+05   0.000000e+00   0.000000e+00   0.000000e+00
      520000   5.199990e-06   1.750461e+00   2.318232e+01   5.144974e+00   3.173963e+05   7.291995e+05  -3.504653e+05   0.000000e+00   0.000000e+00   0.000000e+00   8.690790e+05   0.000000e+00   0.000000e+00   0.000000e+00
      528000   5.279990e-06   1.775853e+00   2.324066e+01   5.116937e+00   3.173963e+05   7.291995e+05  -3.504653e+05   0.000000e+00   0.000000e+00   0.000000e+00   8.690790e+05   0.000000e+00   0.000000e+00   0.000000e+00
      536000   5.359990e-06   1.801244e+00   2.329900e+01   5.088900e+00   3.173963e+05   7.291995e+05  -3.504653e+05   0.000000e+00   0.000000e+00   0.000000e+00   8.690790e+05   0.000000e+00   0.000000e+00   0.000000e+00
      544000   5.439990e-06   1.826636e+00   2.335733e+01   5.060863e+00   3.173963e+05   7.291995e+05  -3.504653e+05   0.000000e+00   0.000000e+00   0.000000e+00   8.690790e+05   0.000000e+00   0.000000e+00   0.000000e+00
      552000   5.519990e-06   1.852028e+00   2.341567e+01   5.032825e+00   3.173963e+05   7.291995e+05  -3.504653e+05   0.000000e+00   0.000000e+00   0.000000e+00   8.690790e+05   0.000000e+00   0.000000e+00   0.000000e+00
      560000   5.599990e-06   1.877419e+00   2.347400e+01   5.004788e+00   3.173963e+05   7.291995e+05  -3.504653e+05   0.000000e+00   0.000000e+00   0.000000e+00   8.690790e+05   0.000000e+00   0.000000e+00   0.000000e+00
      568000   5.679990e-06   1.902811e+00   2.353234e+01   4.976751e+00   3.173963e+05   7.291995e+05  -3.504653e+05   0.000000e+00   0.000000e+00   0.000000e+00   8.690790e+05   0.000000e+00   0.000000e+00   0.000000e+00
      576000   5.759990e-06   1.928203e+00   2.359068e+01   4.948714e+00   3.173963e+05   7.291995e+05  -3.504653e+05   0.000000e+00   0.000000e+00   0.000000e+00   8.690790e+05   0.000000e+00   0.000000e+00   0.000000e+00
      584000   5.839990e-06   1.953595e+00   2.364901e+01   4.920677e+00   3.173963e+05   7.291995e+05  -3.504653e+05   0.000000e+00   0.000000e+00   0.000000e+00   8.690790e+05   0.000000e+00   0.000000e+00   0.000000e+00
      592000   5.919990e-06   1.978986e+00   2.370735e+01   4.892639e+00   3.173963e+05   7.291995e+05  -3.504653e+05   0.000000e+00   0.000000e+00   0.000000e+00   8.690790e+05   0.000000e+00   0.000000e+00   0.000000e+00
      600000   5.999990e-06   2.004378e+00   2.376568e+01   4.864602e+00   3.173963e+05   7.291995e+05  -3.504653e+05   0.000000e+00   0.000000e+00   0.000000e+00   8.690790e+05   0.000000e+00   0.000000e+00   0.000000e+00
      608000   6.079990e-06   2.029770e+00   2.382402e+01   4.836565e+00   3.173963e+05   7.291995e+05  -3.504653e+05   0.000000e+00   0.000000e+00   0.000000e+00   8.690790e+05   0.000000e+00   0.000000e+00   0.000000e+00
      616000   6.159990e-06   2.055161e+00   2.388235e+01   4.808528e+00   3.173963e+05   7.291995e+05  -3.504653e+05   0.000000e+00   0.000000e+00   0.000000e+00   8.690790e+05   0.000000e+00   0.000000e+00   0.000000e+00
      624000   6.239990e-06   2.080553e+00   2.394069e+01   4.780490e+00   3.173963e+05   7.291995e+05  -3.504653e+05   0.000000e+00   0.000000e+00   0.000000e+00   8.690790e+05   0.000000e+00   0.000000e+00   0.000000e+00
      632000   6.319990e-06   2.105945e+00   2.399903e+01   4.752453e+00   3.173963e+05   7.291995e+05  -3.504653e+05   0.000000e+00   0.000000e+00   0.000000e+00   8.690790e+05   0.000000e+00   0.000000e+00   0.000000e+00
      640000   6.399990e-06   2.131337e+00   2.405736e+01   4.724416e+00   3.173963e+05   7.291995e+05  -3.504653e+05   0.000000e+00   0.000000e+00   0.000000e+00   8.690790e+05   0.000000e+00   0.000000e+00   0.000000e+00
      648000   6.479990e-06   2.156728e+00   2.411570e+01   4.696379e+00   3.173963e+05   7.291995e+05  -3.504653e+05   0.000000e+00   0.000000e+00   0.000000e+00   8.690790e+05   0.000000e+00   0.000000e+00   0.000000e+00
      656000   6.559990e-06   2.182120e+00   2.417403e+01   4.668342e+00   3.173963e+05   7.291995e+05  -3.504653e+05   0.000000e+00   0.000000e+00   0.000000e+00   8.690790e+05   0.000000e+00   0.000000e+00   0.000000e+00
      664000   6.639990e-06   2.207512e+00   2.423237e+01   4.640304e+00   3.173963e+05   7.291995e+05  -3.504653e+05   0.000000e+00   0.000000e+00   0.000000e+00   8.690790e+05   0.000000e+00   0.000000e+00   0.000000e+00
      672000   6.719990e-06   2.232903e+00   2.429071e+01   4.612267e+00   3.173963e+05   7.291995e+05  -3.504653e+05   0.000000e+00   0.000000e+00   0.000000e+00   8.690790e+05   0.000000e+00   0.000000e+00   0.000000e+00
      680000   6.799990e-06   2.258295e+00   2.434904e+01   4.584230e+00   3.173963e+05   7.291995e+05  -3.504653e+05   0.000000e+00   0.000000e+00   0.000000e+00   8.690790e+05   0.000000e+00   0.000000e+00   0.000000e+00
      688000   6.879990e-06   2.283687e+00   2.440738e+01   4.556193e+00   3.173963e+05   7.291995e+05  -3.504653e+05   0.000000e+00   0.000000e+00   0.000000e+00   8.690790e+05   0.000000e+00   0.000000e+00   0.000000e+00
      696000   6.959990e-06   2.309078e+00   2.446571e+01   4.528155e+00   3.173963e+05   7.291995e+05  -3.504653e+05   0.000000e+00   0.000000e+00   0.000000e+00   8.690790e+05   0.000000e+00   0.000000e+00   0.000000e+00
      704000   7.039990e-06   2.334470e+00   2.452405e+01   4.500118e+00   3.173963e+05   7.291995e+05  -3.504653e+05   0.000000e+00   0.000000e+00   0.000000e+00   8.690790e+05   0.000000e+00   0.000000e+00   0.000000e+00
      712000   7.119990e-06   2.359862e+00   2.458239e+01   4.472081e+00   3.173963e+05   7.291995e+05  -3.504653e+05   0.000000e+00   0.000000e+00   0.000000e+00   8.690790e+05   0.000000e+00   0.000000e+00   0.000000e+00
      720000   7.199990e-06   2.385254e+00   2.464072e+01   4.444044e+00   3.173963e+05   7.291995e+05  -3.504653e+05   0.000000e+00   0.000000e+00   0.000000e+00   8.690790e+05   0.000000e+00   0.000000e+00   0.000000e+00
      728000   7.279990e-06   2.410645e+00   2.469906e+01   4.416007e+00   3.173963e+05   7.291995e+05  -3.504653e+05   0.000000e+00   0.000000e+00   0.000000e+00   8.690790e+05   0.000000e+00   0.000000e+00   0.000000e+00
      736000   7.359990e-06   2.436037e+00   2.475739e+01   4.387969e+00   3.173963e+05   7.291995e+05  -3.504653e+05   0.000000e+00   0.000000e+00   0.000000e+00   8.690790e+05   0.000000e+00   0.000000e+00   0.000000e+00
      744000   7.439990e-06   2.461429e+00   2.481573e+01   4.359932e+00   3.173963e+05   7.291995e+05  -3.504653e+05   0.000000e+00   0.000000e+00   0.000000e+00   8.690790e+05   0.000000e+00   0.000000e+00   0.000000e+00
      752000   7.519990e-06   2.486820e+00   2.487407e+01   4.331895e+00   3.173963e+05   7.291995e+05  -3.504653e+05   0.000000e+00   0.000000e+00   0.000000e+00   8.690790e+05   0.000000e+00   0.000000e+00   0.000000e+00
      760000   7.599990e-06   2.512212e+00   2.493240e+01   4.303858e+00   3.173963e+05   7.291995e+05  -3.504653e+05   0.000000e+00   0.000000e+00   0.000000e+00   8.690790e+05   0.000000e+00   0.000000e+00   0.000000e+00
      768000   7.679990e-06   2.537604e+00   2.499074e+01   4.275820e+00   3.173963e+05   7.291995e+05  -3.504653e+05   0.000000e+00   0.000000e+00   0.000000e+00   8.690790e+05   0.000000e+00   0.000000e+00   0.000000e+00
      776000   7.759990e-06   2.562996e+00   2.504907e+01   4.247783e+00   3.173963e+05   7.291995e+05  -3.504653e+05   0.000000e+00   0.000000e+00   0.000000e+00   8.690790e+05   0.000000e+00   0.000000e+00   0.000000e+00
      784000   7.839990e-06   2.588387e+00   2.510741e+01   4.219746e+00   3.173963e+05   7.291995e+05  -3.504653e+05   0.000000e+00   0.000000e+00   0.000000e+00   8.690790e+05   0.000000e+00   0.000000e+00   0.000000e+00
      792000   7.919990e-06   2.613779e+00   2.516575e+01   4.191709e+00   3.173963e+05   7.291995e+05  -3.504653e+05   0.000000e+00   0.000000e+00   0.000000e+00   8.690790e+05   0.000000e+00   0.000000e+00   0.000000e+00
      800000   7.999990e-06   2.639171e+00   2.522408e+01   4.163671e+00   3.173963e+05   7.291995e+05  -3.504653e+05   0.000000e+00   0.000000e+00   0.000000e+00   8.690790e+05   0.000000e+00   0.000000e+00   0.000000e+00
      808000   8.079990e-06   2.664562e+00   2.528242e+01   4.135634e+00   3.173963e+05   7.291995e+05  -3.504653e+05   0.000000e+00   0.000000e+00   0.000000e+00   8.690790e+05   0.000000e+00   0.000000e+00   0.000000e+00
      816000   8.159990e-06   2.689954e+00   2.534075e+01   4.107597e+00   3.173963e+05   7.291995e+05  -3.504653e+05   0.000000e+00   0.000000e+00   0.000000e+00   8.690790e+05   0.000000e+00   0.000000e+00   0.000000e+00
      824000   8.239990e-06   2.715346e+00   2.539909e+01   4.079560e+00   3.173963e+05   7.291995e+05  -3.504653e+05   0.000000e+00   0.000000e+00   0.000000e+00   8.690790e+05   0.000000e+00   0.000000e+00   0.000000e+00
      832000   8.319990e-06   2.740737e+00   2.545743e+01   4.051523e+00   3.173963e+05   7.291995e+05  -3.504653e+05   0.000000e+00   0.000000e+00   0.000000e+00   8.690790e+05   0.000000e+00   0.000000e+00   0.000000e+00
      840000   8.399990e-06   2.766129e+00   2.551576e+01   4.023485e+00   3.173963e+05   7.291995e+05  -3.504653e+05   0.000000e+00   0.000000e+00   0.000000e+00   8.690790e+05   0.000000e+00   0.000000e+00   0.000000e+00
      848000   8.479990e-06   2.791521e+00   2.557410e+01   3.995448e+00   3.173963e+05   7.291995e+05  -3.504653e+05   0.000000e+00   0.000000e+00   0.000000e+00   8.690790e+05   0.000000e+00   0.000000e+00   0.000000e+00
      856000   8.559990e-06   2.816913e+00   2.563243e+01   3.967411e+00   3.173963e+05   7.291995e+05  -3.504653e+05   0.000000e+00   0.000000e+00   0.000000e+00   8.690790e+05   0.000000e+00   0.000000e+00   0.000000e+00
      864000   8.639990e-06   2.842304e+00   2.569077e+01   3.939374e+00   3.173963e+05   7.291995e+05  -3.504653e+05   0.000000e+00   0.000000e+00   0.000000e+00   8.690790e+05   0.000000e+00   0.000000e+00   0.000000e+00
      872000   8.719990e-06   2.867696e+00   2.574911e+01   3.911336e+00   3.173963e+05   7.291995e+05  -3.504653e+05   0.000000e+00   0.000000e+00   0.000000e+00   8.690790e+05   0.000000e+00   0.000000e+00   0.000000e+00
      880000   8.799990e-06   2.893088e+00   2.580744e+01   3.883299e+00   3.173963e+05   7.291995e+05  -3.504653e+05   0.000000e+00   0.000000e+00   0.000000e+00   8.690790e+05   0.000000e+00   0.000000e+00   0.000000e+00
      888000   8.879990e-06   2.918479e+00   2.586578e+01   3.855262e+00   3.173963e+05   7.291995e+05  -3.504653e+05   0.000000e+00   0.000000e+00   0.000000e+00   8.690790e+05   0.000000e+00   0.000000e+00   0.000000e+00
      896000   8.959990e-06   2.943871e+00   2.592411e+01   3.827225e+00   3.173963e+05   7.291995e+05  -3.504653e+05   0.000000e+00   0.000000e+00   0.000000e+00   8.690790e+05   0.000000e+00   0.000000e+00   0.000000e+00
      904000   9.039990e-06   2.969263e+00   2.598245e+01   3.799188e+00   3.173963e+05   7.291995e+05  -3.504653e+05   0.000000e+00   0.000000e+00   0.000000e+00   8.690790e+05   0.000000e+00   0.000000e+00   0.000000e+00
      912000   9.119990e-06   2.994655e+00   2.604079e+01   3.771150e+00   3.173963e+05   7.291995e+05  -3.504653e+05   0.000000e+00   0.000000e+00   0.000000e+00   8.690790e+05   0.000000e+00   0.000000e+00   0.000000e+00
      920000   9.199990e-06   3.020046e+00   2.609912e+01   3.743113e+00   3.173963e+05   7.291995e+05  -3.504653e+05   0.000000e+00   0.000000e+00   0.000000e+00   8.690790e+05   0.000000e+00   0.000000e+00   0.000000e+00
      928000   9.279990e-06   3.045438e+00   2.615746e+01   3.715076e+00   3.173963e+05   7.291995e+05  -3.504653e+05   0.000000e+00   0.000000e+00   0.000000e+00   8.690790e+05   0.000000e+00   0.000000e+00   0.000000e+00
      936000   9.359990e-06   3.070830e+00   2.621579e+01   3.687039e+00   3.173963e+05   7.291995e+05  -3.504653e+05   0.000000e+00   0.000000e+00   0.000000e+00   8.690790e+05   0.000000e+00   0.000000e+00   0.000000e+00
      944000   9.439990e-06   3.096221e+00   2.627413e+01   3.659001e+00   3.173963e+05   7.291995e+05  -3.504653e+05   0.000000e+00   0.000000e+00   0.000000e+00   8.690790e+05   0.000000e+00   0.000000e+00   0.000000e+00
      952000   9.519990e-06   3.121613e+00   2.633247e+01   3.630964e+00   3.173963e+05   7.291995e+05  -3.504653e+05   0.000000e+00   0.000000e+00   0.000000e+00   8.690790e+05   0.000000e+00   0.000000e+00   0.000000e+00
      960000   9.599990e-06   3.147005e+00   2.639080e+01   3.602927e+00   3.173963e+05   7.291995e+05  -3.504653e+05   0.000000e+00   0.000000e+00   0.000000e+00   8.690790e+05   0.000000e+00   0.000000e+00   0.000000e+00
      968000   9.679990e-06   3.172397e+00   2.644914e+01   3.574890e+00   3.173963e+05   7.291995e+05  -3.504653e+05   0.000000e+00   0.000000e+00   0.000000e+00   8.690790e+05   0.000000e+00   0.000000e+00   0.000000e+00
      976000   9.759990e-06   3.197788e+00   2.650747e+01   3.546853e+00   3.173963e+05   7.291995e+05  -3.504653e+05   0.000000e+00   0.000000e+00   0.000000e+00   8.690790e+05   0.000000e+00   0.000000e+00   0.000000e+00
      984000   9.839990e-06   3.223180e+00   2.656581e+01   3.518815e+00   3.173963e+05   7.291995e+05  -3.504653e+05   0.000000e+00   0.000000e+00   0.000000e+00   8.690790e+05   0.000000e+00   0.000000e+00   0.000000e+00
      992000   9.919990e-06   3.248572e+00   2.662415e+01   3.490778e+00   3.173963e+05   7.291995e+05  -3.504653e+05   0.000000e+00   0.000000e+00   0.000000e+00   8.690790e+05   0.000000e+00   0.000000e+00   0.000000e+00
     1000000   9.999990e-06   3.273963e+00   2.668248e+01   3.462741e+00   3.173963e+05   7.291995e+05  -3.504653e+05   0.000000e+00   0.000000e+00   0.000000e+00   8.690790e+05   0.000000e+00   0.000000e+00   0.000000e+00
     1008000   1.007999e-05   3.299355e+00   2.674082e+01   3.434704e+00   3.173963e+05   7.291995e+05  -3.504653e+05   0.000000e+00   0.000000e+00   0.000000e+00   8.690790e+05   0.000000e+00   0.000000e+00   0.000000e+00
     1016000   1.015999e-05   3.324747e+00   2.679915e+01   3.406666e+00   3.173963e+05   7.291995e+05  -3.504653e+05   0.000000e+00   0.000000e+00   0.000000e+00   8.690790e+05   0.000000e+00   0.000000e+00   0.000000e+00
     1024000   1.023999e-05   3.350138e+00   2.685749e+01   3.378629e+00   3.173963e+05   7.291995e+05  -3.504653e+05   0.000000e+00   0.000000e+00   0.000000e+00   8.690790e+05   0.000000e+00   0.000000e+00   0.000000e+00
     1032000   1.031999e-05   3.375530e+00   2.691582e+01   3.350592e+00   3.173963e+05   7.291995e+05  -3.504653e+05   0.000000e+00   0.000000e+00   0.000000e+00   8.690790e+05   0.000000e+00   0.000000e+00   0.000000e+00
     1040000   1.039999e-05   3.400922e+00   2.697416e+01   3.322555e+00   3.173963e+05   7.291995e+05  -3.504653e+05   0.000000e+00   0.000000e+00   0.000000e+00   8.690790e+05   0.000000e+00   0.000000e+00   0.000000e+00
     1048000   1.047999e-05   3.426314e+00   2.703250e+01   3.294517e+00   3.173963e+05   7.291995e+05  -3.504653e+05   0.000000e+00   0.000000e+00   0.000000e+00   8.690790e+05   0.000000e+00   0.000000e+00   0.000000e+00
     1056000   1.055999e-05   3.451705e+00   2.709083e+01   3.266480e+00   3.173963e+05   7.291995e+05  -3.504653e+05   0.000000e+00   0.000000e+00   0.000000e+00   8.690790e+05   0.000000e+00   0.000000e+00   0.000000e+00
     1064000   1.063999e-05   3.477097e+00   2.714917e+01   3.238443e+00   3.173963e+05   7.291995e+05  -3.504653e+05   0.000000e+00   0.000000e+00   0.000000e+00   8.690790e+05   0.000000e+00   0.000000e+00   0.000000e+00
     1072000   1.071999e-05   3.502489e+00   2.720750e+01   3.210406e+00   3.173963e+05   7.291995e+05  -3.504653e+05   0.000000e+00   0.000000e+00   0.000000e+00   8.690790e+05   0.000000e+00   0.000000e+00   0.000000e+00
     1080000   1.079999e-05   3.527880e+00   2.726584e+01   3.182369e+00   3.173963e+05   7.291995e+05  -3.504653e+05   0.000000e+00   0.000000e+00   0.000000e+00   8.690790e+05   0.000000e+00   0.000000e+00   0.000000e+00
     1088000   1.087999e-05   3.553272e+00   2.732418e+01   3.154331e+00   3.173963e+05   7.291995e+05  -3.504653e+05   0.000000e+00   0.000000e+00   0.000000e+00   8.690790e+05   0.000000e+00   0.000000e+00   0.000000e+00
     1096000   1.095999e-05   3.578664e+00   2.738251e+01   3.126294e+00   3.173963e+05   7.291995e+05  -3.504653e+05   0.000000e+00   0.000000e+00   0.000000e+00   8.690790e+05   0.000000e+00   0.000000e+00   0.000000e+00
     1104000   1.103999e-05   3.604056e+00   2.744085e+01   3.098257e+00   3.173963e+05   7.291995e+05  -3.504653e+05   0.000000e+00   0.000000e+00   0.000000e+00   8.690790e+05   0.000000e+00   0.000000e+00   0.000000e+00
     1112000   1.111999e-05   3.629447e+00   2.749918e+01   3.070220e+00   3.173963e+05   7.291995e+05  -3.504653e+05   0.000000e+00   0.000000e+00   0.000000e+00   8.690790e+05   0.000000e+00   0.000000e+00   0.000000e+00
     1120000   1.119999e-05   3.654839e+00   2.755752e+01   3.042182e+00   3.173963e+05   7.291995e+05  -3.504653e+05   0.000000e+00   0.000000e+00   0.000000e+00   8.690790e+05   0.000000e+00   0.000000e+00   0.000000e+00
     1128000   1.127999e-05   3.680231e+00   2.761586e+01   3.014145e+00   3.173963e+05   7.291995e+05  -3.504653e+05   0.000000e+00   0.000000e+00   0.000000e+00   8.690790e+05   0.000000e+00   0.000000e+00   0.000000e+00
     1136000   1.135999e-05   3.705622e+00   2.767419e+01   2.986108e+00   3.173963e+05   7.291995e+05  -3.504653e+05   0.000000e+00   0.000000e+00   0.000000e+00   8.690790e+05   0.000000e+00   0.000000e+00   0.000000e+00
     1144000   1.143999e-05   3.731014e+00   2.773253e+01   2.958071e+00   3.173963e+05   7.291995e+05  -3.504653e+05   0.000000e+00   0.000000e+00   0.000000e+00   8.690790e+05   0.000000e+00   0.000000e+00   0.000000e+00
     1152000   1.151999e-05   3.756406e+00   2.779086e+01   2.930034e+00   3.173963e+05   7.291995e+05  -3.504653e+05   0.000000e+00   0.000000e+00   0.000000e+00   8.690790e+05   0.000000e+00   0.000000e+00   0.000000e+00
     1160000   1.159999e-05   3.781797e+00   2.784920e+01   2.901996e+00   3.173963e+05   7.291995e+05  -3.504653e+05   0.000000e+00   0.000000e+00   0.000000e+00   8.690790e+05   0.000000e+00   0.000000e+00   0.000000e+00
     1168000   1.167999e-05   3.807189e+00   2.790754e+01   2.873959e+00   3.173963e+05   7.291995e+05  -3.504653e+05   0.000000e+00   0.000000e+00   0.000000e+00   8.690790e+05   0.000000e+00   0.000000e+00   0.000000e+00
     1176000   1.175999e-05   3.832581e+00   2.796587e+01   2.845922e+00   3.173963e+05   7.291995e+05  -3.504653e+05   0.000000e+00   0.000000e+00   0.000000e+00   8.690790e+05   0.000000e+00   0.000000e+00   0.000000e+00
     1184000   1.183999e-05   3.857973e+00   2.802421e+01   2.817885e+00   3.173963e+05   7.291995e+05  -3.504653e+05   0.000000e+00   0.000000e+00   0.000000e+00   8.690790e+05   0.000000e+00   0.000000e+00   0.000000e+00
     1192000   1.191999e-05   3.883364e+00   2.808254e+01   2.789847e+00   3.173963e+05   7.291995e+05  -3.504653e+05   0.000000e+00   0.000000e+00   0.000000e+00   8.690790e+05   0.000000e+00   0.000000e+00   0.000000e+00
     1200000   1.199999e-05   3.908756e+00   2.814088e+01   2.761810e+00   3.173963e+05   7.291995e+05  -3.504653e+05   0.000000e+00   0.000000e+00   0.000000e+00   8.690790e+05   0.000000e+00   0.000000e+00   0.000000e+00
     1208000   1.207999e-05   3.934148e+00   2.819922e+01   2.733773e+00   3.173963e+05   7.291995e+05  -3.504653e+05   0.000000e+00   0.000000e+00   0.000000e+00   8.690790e+05   0.000000e+00   0.000000e+00   0.000000e+00
     1216000   1.215999e-05   3.959539e+00   2.825755e+01   2.705736e+00   3.173963e+05   7.291995e+05  -3.504653e+05   0.000000e+00   0.000000e+00   0.000000e+00   8.690790e+05   0.000000e+00   0.000000e+00   0.000000e+00
     1224000   1.223999e-05   3.984931e+00   2.831589e+01   2.677699e+00   3.173963e+05   7.291995e+05  -3.504653e+05   0.000000e+00   0.000000e+00   0.000000e+00   8.690790e+05   0.000000e+00   0.000000e+00   0.000000e+00
     1232000   1.231999e-05   4.010323e+00   2.837422e+01   2.649661e+00   3.173963e+05   7.291995e+05  -3.504653e+05   0.000000e+00   0.000000e+00   0.000000e+00   8.690790e+05   0.000000e+00   0.000000e+00   0.000000e+00
     1240000   1.239999e-05   4.035715e+00   2.843256e+01   2.621624e+00   3.173963e+05   7.291995e+05  -3.504653e+05   0.000000e+00   0.000000e+00   0.000000e+00   8.690790e+05   0.000000e+00   0.000000e+00   0.000000e+00
     1248000   1.247999e-05   4.061106e+00   2.849090e+01   2.593587e+00   3.173963e+05   7.291995e+05  -3.504653e+05   0.000000e+00   0.000000e+00   0.000000e+00   8.690790e+05   0.000000e+00   0.000000e+00   0.000000e+00
     1256000   1.255999e-05   4.086498e+00   2.854923e+01   2.565550e+00   3.173963e+05   7.291995e+05  -3.504653e+05   0.000000e+00   0.000000e+00   0.000000e+00   8.690790e+05   0.000000e+00   0.000000e+00   0.000000e+00
     1264000   1.263999e-05   4.111890e+00   2.860757e+01   2.537512e+00   3.173963e+05   7.291995e+05  -3.504653e+05   0.000000e+00   0.000000e+00   0.000000e+00   8.690790e+05   0.000000e+00   0.000000e+00   0.000000e+00
     1272000   1.271999e-05   4.137281e+00   2.866590e+01   2.509475e+00   3.173963e+05   7.291995e+05  -3.504653e+05   0.000000e+00   0.000000e+00   0.000000e+00   8.690790e+05   0.000000e+00   0.000000e+00   0.000000e+00
     1280000   1.279999e-05   4.162673e+00   2.872424e+01   2.481438e+00   3.173963e+05   7.291995e+05  -3.504653e+05   0.000000e+00   0.000000e+00   0.000000e+00   8.690790e+05   0.000000e+00   0.000000e+00   0.000000e+00
     1288000   1.287999e-05   4.188065e+00   2.878258e+01   2.453401e+00   3.173963e+05   7.291995e+05  -3.504653e+05   0.000000e+00   0.000000e+00   0.000000e+00   8.690790e+05   0.000000e+00   0.000000e+00   0.000000e+00
     1296000   1.295999e-05   4.213456e+00   2.884091e+01   2.425364e+00   3.173963e+05   7.291995e+05  -3.504653e+05   0.000000e+00   0.000000e+00   0.000000e+00   8.690790e+05   0.000000e+00   0.000000e+00   0.000000e+00
     1304000   1.303999e-05   4.238848e+00   2.889925e+01   2.397326e+00   3.173963e+05   7.291995e+05  -3.504653e+05   0.000000e+00   0.000000e+00   0.000000e+00   8.690790e+05   0.000000e+00   0.000000e+00   0.000000e+00
     1312000   1.311999e-05   4.264240e+00   2.895758e+01   2.369289e+00   3.173963e+05   7.291995e+05  -3.504653e+05   0.000000e+00   0.000000e+00   0.000000e+00   8.690790e+05   0.000000e+00   0.000000e+00   0.000000e+00
     1320000   1.319999e-05   4.289632e+00   2.901592e+01   2.341252e+00   3.173963e+05   7.291995e+05  -3.504653e+05   0.000000e+00   0.000000e+00   0.000000e+00   8.690790e+05   0.000000e+00   0.000000e+00   0.000000e+00
     1328000   1.327999e-05   4.315023e+00   2.907426e+01   2.313215e+00   3.173963e+05   7.291995e+05  -3.504653e+05   0.000000e+00   0.000000e+00   0.000000e+00   8.690790e+05   0.000000e+00   0.000000e+00   0.000000e+00
     1336000   1.335999e-05   4.340415e+00   2.913259e+01   2.285177e+00   3.173963e+05   7.291995e+05  -3.504653e+05   0.000000e+00   0.000000e+00   0.000000e+00   8.690790e+05   0.000000e+00   0.000000e+00   0.000000e+00
     1344000   1.343999e-05   4.365807e+00   2.919093e+01   2.257140e+00   3.173963e+05   7.291995e+05  -3.504653e+05   0.000000e+00   0.000000e+00   0.000000e+00   8.690790e+05   0.000000e+00   0.000000e+00   0.000000e+00
     1352000   1.351999e-05   4.391198e+00   2.924926e+01   2.229103e+00   3.173963e+05   7.291995e+05  -3.504653e+05   0.000000e+00   0.000000e+00   0.000000e+00   8.690790e+05   0.000000e+00   0.000000e+00   0.000000e+00
     1360000   1.359999e-05   4.416590e+00   2.930760e+01   2.201066e+00   3.173963e+05   7.291995e+05  -3.504653e+05   0.000000e+00   0.000000e+00   0.000000e+00   8.690790e+05   0.000000e+00   0.000000e+00   0.000000e+00
     1368000   1.367999e-05   4.441982e+00   2.936594e+01   2.173028e+00   3.173963e+05   7.291995e+05  -3.504653e+05   0.000000e+00   0.000000e+00   0.000000e+00   8.690790e+05   0.000000e+00   0.000000e+00   0.000000e+00
     1376000   1.375999e-05   4.467374e+00   2.942427e+01   2.144991e+00   3.173963e+05   7.291995e+05  -3.504653e+05   0.000000e+00   0.000000e+00   0.000000e+00   8.690790e+05   0.000000e+00   0.000000e+00   0.000000e+00
     1384000   1.383999e-05   4.492765e+00   2.948261e+01   2.116954e+00   3.173963e+05   7.291995e+05  -3.504653e+05   0.000000e+00   0.000000e+00   0.000000e+00   8.690790e+05   0.000000e+00   0.000000e+00   0.000000e+00
     1392000   1.391999e-05   4.518157e+00   2.954094e+01   2.088917e+00   3.173963e+05   7.291995e+05  -3.504653e+05   0.000000e+00   0.000000e+00   0.000000e+00   8.690790e+05   0.000000e+00   0.000000e+00   0.000000e+00
     1400000   1.399999e-05   4.543549e+00   2.959928e+01   2.060880e+00   3.173963e+05   7.291995e+05  -3.504653e+05   0.000000e+00   0.000000e+00   0.000000e+00   8.690790e+05   0.000000e+00   0.000000e+00   0.000000e+00
     1408000   1.407999e-05   4.568940e+00   2.965761e+01   2.032842e+00   3.173963e+05   7.291995e+05  -3.504653e+05   0.000000e+00   0.000000e+00   0.000000e+00   8.690790e+05   0.000000e+00   0.000000e+00   0.000000e+00
     1416000   1.415999e-05   4.594332e+00   2.971595e+01   2.004805e+00   3.173963e+05   7.291995e+05  -3.504653e+05   0.000000e+00   0.000000e+00   0.000000e+00   8.690790e+05   0.000000e+00   0.000000e+00   0.000000e+00
     1424000   1.423999e-05   4.619724e+00   2.977429e+01   1.976768e+00   3.173963e+05   7.291995e+05  -3.504653e+05   0.000000e+00   0.000000e+00   0.000000e+00   8.690790e+05   0.000000e+00   0.000000e+00   0.000000e+00
     1432000   1.431999e-05   4.645115e+00   2.983262e+01   1.948731e+00   3.173963e+05   7.291995e+05  -3.504653e+05   0.000000e+00   0.000000e+00   0.000000e+00   8.690790e+05   0.000000e+00   0.000000e+00   0.000000e+00
     1440000   1.439999e-05   4.670507e+00   2.989096e+01   1.920693e+00   3.173963e+05   7.291995e+05  -3.504653e+05   0.000000e+00   0.000000e+00   0.000000e+00   8.690790e+05   0.000000e+00   0.000000e+00   0.000000e+00
     1448000   1.447999e-05   4.695899e+00   2.994929e+01   1.892656e+00   3.173963e+05   7.291995e+05  -3.504653e+05   0.000000e+00   0.000000e+00   0.000000e+00   8.690790e+05   0.000000e+00   0.000000e+00   0.000000e+00
     1456000   1.455999e-05   4.721291e+00   3.000763e+01   1.864619e+00   3.173963e+05   7.291995e+05  -3.504653e+05   0.000000e+00   0.000000e+00   0.000000e+00   8.690790e+05   0.000000e+00   0.000000e+00   0.000000e+00
     1464000   1.463999e-05   4.746682e+00   3.006597e+01   1.836582e+00   3.173963e+05   7.291995e+05  -3.504653e+05   0.000000e+00   0.000000e+00   0.000000e+00   8.690790e+05   0.000000e+00   0.000000e+00   0.000000e+00
     1472000   1.471999e-05   4.772074e+00   3.012430e+01   1.808545e+00   3.173963e+05   7.291995e+05  -3.504653e+05   0.000000e+00   0.000000e+00   0.000000e+00   8.690790e+05   0.000000e+00   0.000000e+00   0.000000e+00
     1480000   1.479999e-05   4.797466e+00   3.018264e+01   1.780507e+00   3.173963e+05   7.291995e+05  -3.504653e+05   0.000000e+00   0.000000e+00   0.000000e+00   8.690790e+05   0.000000e+00   0.000000e+00   0.000000e+00
     1488000   1.487999e-05   4.822857e+00   3.024097e+01   1.752470e+00   3.173963e+05   7.291995e+05  -3.504653e+05   0.000000e+00   0.000000e+00   0.000000e+00   8.690790e+05   0.000000e+00   0.000000e+00   0.000000e+00
     1496000   1.495999e-05   4.848249e+00   3.029931e+01   1.724433e+00   3.173963e+05   7.291995e+05  -3.504653e+05   0.000000e+00   0.000000e+00   0.000000e+00   8.690790e+05   0.000000e+00   0.000000e+00   0.000000e+00
     1504000   1.503999e-05   4.873641e+00   3.035765e+01   1.696396e+00   3.173963e+05   7.291995e+05  -3.504653e+05   0.000000e+00   0.000000e+00   0.000000e+00   8.690790e+05   0.000000e+00   0.000000e+00   0.000000e+00
     1512000   1.511999e-05   4.899033e+00   3.041598e+01   1.668358e+00   3.173963e+05   7.291995e+05  -3.504653e+05   0.000000e+00   0.000000e+00   0.000000e+00   8.690790e+05   0.000000e+00   0.000000e+00   0.000000e+00
     1520000   1.519999e-05   4.924424e+00   3.047432e+01   1.640321e+00   3.173963e+05   7.291995e+05  -3.504653e+05   0.000000e+00   0.000000e+00   0.000000e+00   8.690790e+05   0.000000e+00   0.000000e+00   0.000000e+00
     1528000   1.527999e-05   4.949816e+00   3.053265e+01   1.612284e+00   3.173963e+05   7.291995e+05  -3.504653e+05   0.000000e+00   0.000000e+00   0.000000e+00   8.690790e+05   0.000000e+00   0.000000e+00   0.000000e+00
     1536000   1.535999e-05   4.975208e+00   3.059099e+01   1.584247e+00   3.173963e+05   7.291995e+05  -3.504653e+05   0.000000e+00   0.000000e+00   0.000000e+00   8.690790e+05   0.000000e+00   0.000000e+00   0.000000e+00
     1544000   1.543999e-05   5.000599e+00   3.064933e+01   1.556210e+00   3.173963e+05   7.291995e+05  -3.504653e+05   0.000000e+00   0.000000e+00   0.000000e+00   8.690790e+05   0.000000e+00   0.000000e+00   0.000000e+00
     1552000   1.551999e-05   5.025991e+00   3.070766e+01   1.528172e+00   3.173963e+05   7.291995e+05  -3.504653e+05   0.000000e+00   0.000000e+00   0.000000e+00   8.690790e+05   0.000000e+00   0.000000e+00   0.000000e+00
     1560000   1.559999e-05   5.051383e+00   3.076600e+01   1.500135e+00   3.173963e+05   7.291995e+05  -3.504653e+05   0.000000e+00   0.000000e+00   0.000000e+00   8.690790e+05   0.000000e+00   0.000000e+00   0.000000e+00
     1568000   1.567999e-05   5.076775e+00   3.082433e+01   1.472098e+00   3.173963e+05   7.291995e+05  -3.504653e+05   0.000000e+00   0.000000e+00   0.000000e+00   8.690790e+05   0.000000e+00   0.000000e+00   0.000000e+00
     1576000   1.575999e-05   5.102166e+00   3.088267e+01   1.444061e+00   3.173963e+05   7.291995e+05  -3.504653e+05   0.000000e+00   0.000000e+00   0.000000e+00   8.690790e+05   0.000000e+00   0.000000e+00   0.000000e+00
     1584000   1.583999e-05   5.127558e+00   3.094101e+01   1.416023e+00   3.173963e+05   7.291995e+05  -3.504653e+05   0.000000e+00   0.000000e+00   0.000000e+00   8.690790e+05   0.000000e+00   0.000000e+00   0.000000e+00
     1592000   1.591999e-05   5.152950e+00   3.099934e+01   1.387986e+00   3.173963e+05   7.291995e+05  -3.504653e+05   0.000000e+00   0.000000e+00   0.000000e+00   8.690790e+05   0.000000e+00   0.000000e+00   0.000000e+00
     1600000   1.599999e-05   5.178341e+00   3.105768e+01   1.359949e+00   3.173963e+05   7.291995e+05  -3.504653e+05   0.000000e+00   0.000000e+00   0.000000e+00   8.690790e+05   0.000000e+00   0.000000e+00   0.000000e+00
     1608000   1.607999e-05   5.203733e+00   3.111601e+01   1.331912e+00   3.173963e+05   7.291995e+05  -3.504653e+05   0.000000e+00   0.000000e+00   0.000000e+00   8.690790e+05   0.000000e+00   0.000000e+00   0.000000e+00
     1616000   1.615999e-05   5.229125e+00   3.117435e+01   1.303875e+00   3.173963e+05   7.291995e+05  -3.504653e+05   0.000000e+00   0.000000e+00   0.000000e+00   8.690790e+05   0.000000e+00   0.000000e+00   0.000000e+00
     1624000   1.623999e-05   5.254516e+00   3.123269e+01   1.275837e+00   3.173963e+05   7.291995e+05  -3.504653e+05   0.000000e+00   0.000000e+00   0.000000e+00   8.690790e+05   0.000000e+00   0.000000e+00   0.000000e+00
     1632000   1.631999e-05   5.279908e+00   3.129102e+01   1.247800e+00   3.173963e+05   7.291995e+05  -3.504653e+05   0.000000e+00   0.000000e+00   0.000000e+00   8.690790e+05   0.000000e+00   0.000000e+00   0.000000e+00
     1640000   1.639999e-05   5.305300e+00   3.134936e+01   1.219763e+00   3.173963e+05   7.291995e+05  -3.504653e+05   0.000000e+00   0.000000e+00   0.000000e+00   8.690790e+05   0.000000e+00   0.000000e+00   0.000000e+00
     1648000   1.647999e-05   5.330692e+00   3.140769e+01   1.191726e+00   3.173963e+05   7.291995e+05  -3.504653e+05   0.000000e+00   0.000000e+00   0.000000e+00   8.690790e+05   0.000000e+00   0.000000e+00   0.000000e+00
     1656000   1.655999e-05   5.356083e+00   3.146603e+01   1.163688e+00   3.173963e+05   7.291995e+05  -3.504653e+05   0.000000e+00   0.000000e+00   0.000000e+00   8.690790e+05   0.000000e+00   0.000000e+00   0.000000e+00
     1664000   1.663999e-05   5.381475e+00   3.152437e+01   1.135651e+00   3.173963e+05   7.291995e+05  -3.504653e+05   0.000000e+00   0.000000e+00   0.000000e+00   8.690790e+05   0.000000e+00   0.000000e+00   0.000000e+00
     1672000   1.671999e-05   5.406867e+00   3.158270e+01   1.107614e+00   3.173963e+05   7.291995e+05  -3.504653e+05   0.000000e+00   0.000000e+00   0.000000e+00   8.690790e+05   0.000000e+00   0.000000e+00   0.000000e+00
     1680000   1.679999e-05   5.432258e+00   3.164104e+01   1.079577e+00   3.173963e+05   7.291995e+05  -3.504653e+05   0.000000e+00   0.000000e+00   0.000000e+00   8.690790e+05   0.000000e+00   0.000000e+00   0.000000e+00
     1688000   1.687999e-05   5.457650e+00   3.169937e+01   1.051539e+00   3.173963e+05   7.291995e+05  -3.504653e+05   0.000000e+00   0.000000e+00   0.000000e+00   8.690790e+05   0.000000e+00   0.000000e+00   0.000000e+00
     1696000   1.695999e-05   5.483042e+00   3.175771e+01   1.023502e+00   3.173963e+05   7.291995e+05  -3.504653e+05   0.000000e+00   0.000000e+00   0.000000e+00   8.690790e+05   0.000000e+00   0.000000e+00   0.000000e+00
     1704000   1.703999e-05   5.508434e+00   3.181605e+01   9.954650e-01   3.173963e+05   7.291995e+05  -3.504653e+05   0.000000e+00   0.000000e+00   0.000000e+00   8.690790e+05   0.000000e+00   0.000000e+00   0.000000e+00
     1712000   1.711999e-05   5.533825e+00   3.187438e+01   9.674278e-01   3.173963e+05   7.291995e+05  -3.504653e+05   0.000000e+00   0.000000e+00   0.000000e+00   8.690790e+05   0.000000e+00   0.000000e+00   0.000000e+00
     1720000   1.719999e-05   5.559217e+00   3.193272e+01   9.393906e-01   3.173963e+05   7.291995e+05  -3.504653e+05   0.000000e+00   0.000000e+00   0.000000e+00   8.690790e+05   0.000000e+00   0.000000e+00   0.000000e+00
     1728000   1.727999e-05   5.584609e+00   3.199105e+01   9.113534e-01   3.173963e+05   7.291995e+05  -3.504653e+05   0.000000e+00   0.000000e+00   0.000000e+00   8.690790e+05   0.000000e+00   0.000000e+00   0.000000e+00
     1736000   1.735999e-05   5.610000e+00   3.204939e+01   8.833161e-01   3.173963e+05   7.291995e+05  -3.504653e+05   0.000000e+00   0.000000e+00   0.000000e+00   8.690790e+05   0.000000e+00   0.000000e+00   0.000000e+00
     1744000   1.743999e-05   5.635392e+00   3.210773e+01   8.552789e-01   3.173963e+05   7.291995e+05  -3.504653e+05   0.000000e+00   0.000000e+00   0.000000e+00   8.690790e+05   0.000000e+00   0.000000e+00   0.000000e+00
     1752000   1.751999e-05   5.660784e+00   3.216606e+01   8.272417e-01   3.173963e+05   7.291995e+05  -3.504653e+05   0.000000e+00   0.000000e+00   0.000000e+00   8.690790e+05   0.000000e+00   0.000000e+00   0.000000e+00
     1760000   1.759999e-05   5.686175e+00   3.222440e+01   7.992044e-01   3.173963e+05   7.291995e+05  -3.504653e+05   0.000000e+00   0.000000e+00   0.000000e+00   8.690790e+05   0.000000e+00   0.000000e+00   0.000000e+00
     1768000   1.767999e-05   5.711567e+00   3.228273e+01   7.711672e-01   3.173963e+05   7.291995e+05  -3.504653e+05   0.000000e+00   0.000000e+00   0.000000e+00   8.690790e+05   0.000000e+00   0.000000e+00   0.000000e+00
     1776000   1.775999e-05   5.736959e+00   3.234107e+01   7.431300e-01   3.173963e+05   7.291995e+05  -3.504653e+05   0.000000e+00   0.000000e+00   0.000000e+00   8.690790e+05   0.000000e+00   0.000000e+00   0.000000e+00
     1784000   1.783999e-05   5.762351e+00   3.239941e+01   7.150928e-01   3.173963e+05   7.291995e+05  -3.504653e+05   0.000000e+00   0.000000e+00   0.000000e+00   8.690790e+05   0.000000e+00   0.000000e+00   0.000000e+00
     1792000   1.791999e-05   5.787742e+00   3.245774e+01   6.870555e-01   3.173963e+05   7.291995e+05  -3.504653e+05   0.000000e+00   0.000000e+00   0.000000e+00   8.690790e+05   0.000000e+00   0.000000e+00   0.000000e+00
     1800000   1.799999e-05   5.813134e+00   3.251608e+01   6.590183e-01   3.173963e+05   7.291995e+05  -3.504653e+05   0.000000e+00   0.000000e+00   0.000000e+00   8.690790e+05   0.000000e+00   0.000000e+00   0.000000e+00
     1808000   1.807999e-05   5.838526e+00   3.257441e+01   6.309811e-01   3.173963e+05   7.291995e+05  -3.504653e+05   0.000000e+00   0.000000e+00   0.000000e+00   8.690790e+05   0.000000e+00   0.000000e+00   0.000000e+00
     1816000   1.815999e-05   5.863917e+00   3.263275e+01   6.029439e-01   3.173963e+05   7.291995e+05  -3.504653e+05   0.000000e+00   0.000000e+00   0.000000e+00   8.690790e+05   0.000000e+00   0.000000e+00   0.000000e+00
     1824000   1.823999e-05   5.889309e+00   3.269108e+01   5.749066e-01   3.173963e+05   7.291995e+05  -3.504653e+05   0.000000e+00   0.000000e+00   0.000000e+00   8.690790e+05   0.000000e+00   0.000000e+00   0.000000e+00
     1832000   1.831999e-05   5.914701e+00   3.274942e+01   5.468694e-01   3.173963e+05   7.291995e+05  -3.504653e+05   0.000000e+00   0.000000e+00   0.000000e+00   8.690790e+05   0.000000e+00   0.000000e+00   0.000000e+00
     1840000   1.839999e-05   5.940093e+00   3.280776e+01   5.188322e-01   3.173963e+05   7.291995e+05  -3.504653e+05   0.000000e+00   0.000000e+00   0.000000e+00   8.690790e+05   0.000000e+00   0.000000e+00   0.000000e+00
     1848000   1.847999e-05   5.965484e+00   3.286609e+01   4.907950e-01   3.173963e+05   7.291995e+05  -3.504653e+05   0.000000e+00   0.000000e+00   0.000000e+00   8.690790e+05   0.000000e+00   0.000000e+00   0.000000e+00
     1856000   1.855999e-05   5.990876e+00   3.292443e+01   4.627577e-01   3.173963e+05   7.291995e+05  -3.504653e+05   0.000000e+00   0.000000e+00   0.000000e+00   8.690790e+05   0.000000e+00   0.000000e+00   0.000000e+00
     1864000   1.863999e-05   6.016268e+00   3.298276e+01   4.347205e-01   3.173963e+05   7.291995e+05  -3.504653e+05   0.000000e+00   0.000000e+00   0.000000e+00   8.690790e+05   0.000000e+00   0.000000e+00   0.000000e+00
     1872000   1.871999e-05   6.041659e+00   3.304110e+01   4.066833e-01   3.173963e+05   7.291995e+05  -3.504653e+05   0.000000e+00   0.000000e+00   0.000000e+00   8.690790e+05   0.000000e+00   0.000000e+00   0.000000e+00
     1880000   1.879999e-05   6.067051e+00   3.309944e+01   3.786461e-01   3.173963e+05   7.291995e+05  -3.504653e+05   0.000000e+00   0.000000e+00   0.000000e+00   8.690790e+05   0.000000e+00   0.000000e+00   0.000000e+00
     1888000   1.887999e-05   6.092443e+00   3.315777e+01   3.506088e-01   3.173963e+05   7.291995e+05  -3.504653e+05   0.000000e+00   0.000000e+00   0.000000e+00   8.690790e+05   0.000000e+00   0.000000e+00   0.000000e+00
     1896000   1.895999e-05   6.117834e+00   3.321611e+01   3.225716e-01   3.173963e+05   7.291995e+05  -3.504653e+05   0.000000e+00   0.000000e+00   0.000000e+00   8.690790e+05   0.000000e+00   0.000000e+00   0.000000e+00
     1904000   1.903999e-05   6.143226e+00   3.327444e+01   2.945344e-01   3.173963e+05   7.291995e+05  -3.504653e+05   0.000000e+00   0.000000e+00   0.000000e+00   8.690790e+05   0.000000e+00   0.000000e+00   0.000000e+00
     1912000   1.911999e-05   6.168618e+00   3.333278e+01   2.664972e-01   3.173963e+05   7.291995e+05  -3.504653e+05   0.000000e+00   0.000000e+00   0.000000e+00   8.690790e+05   0.000000e+00   0.000000e+00   0.000000e+00
     1920000   1.919999e-05   6.194010e+00   3.339112e+01   2.384599e-01   3.173963e+05   7.291995e+05  -3.504653e+05   0.000000e+00   0.000000e+00   0.000000e+00   8.690790e+05   0.000000e+00   0.000000e+00   0.000000e+00
     1928000   1.927999e-05   6.219401e+00   3.344945e+01   2.104227e-01   3.173963e+05   7.291995e+05  -3.504653e+05   0.000000e+00   0.000000e+00   0.000000e+00   8.690790e+05   0.000000e+00   0.000000e+00   0.000000e+00
     1936000   1.935999e-05   6.244793e+00   3.350779e+01   1.823855e-01   3.173963e+05   7.291995e+05  -3.504653e+05   0.000000e+00   0.000000e+00   0.000000e+00   8.690790e+05   0.000000e+00   0.000000e+00   0.000000e+00
     1944000   1.943999e-05   6.270185e+00   3.356612e+01   1.543483e-01   3.173963e+05   7.291995e+05  -3.504653e+05   0.000000e+00   0.000000e+00   0.000000e+00   8.690790e+05   0.000000e+00   0.000000e+00   0.000000e+00
     1952000   1.951999e-05   6.295576e+00   3.362446e+01   1.263110e-01   3.173963e+05   7.291995e+05  -3.504653e+05   0.000000e+00   0.000000e+00   0.000000e+00   8.690790e+05   0.000000e+00   0.000000e+00   0.000000e+00
     1960000   1.959999e-05   6.320968e+00   3.368280e+01   9.827382e-02   3.173963e+05   7.291995e+05  -3.504653e+05   0.000000e+00   0.000000e+00   0.000000e+00   8.690790e+05   0.000000e+00   0.000000e+00   0.000000e+00
     1968000   1.967999e-05   6.346360e+00   3.374113e+01   7.023659e-02   3.173963e+05   7.291995e+05  -3.504653e+05   0.000000e+00   0.000000e+00   0.000000e+00   8.690790e+05   0.000000e+00   0.000000e+00   0.000000e+00
     1976000   1.975999e-05   6.371752e+00   3.379947e+01   4.219937e-02   3.173963e+05   7.291995e+05  -3.504653e+05   0.000000e+00   0.000000e+00   0.000000e+00   8.690790e+05   0.000000e+00   0.000000e+00   0.000000e+00
     1984000   1.983999e-05   6.397143e+00   3.385780e+01   1.416214e-02   3.173963e+05   7.291995e+05  -3.504653e+05   0.000000e+00   0.000000e+00   0.000000e+00   8.690790e+05   0.000000e+00   0.000000e+00   0.000000e+00
