     timestep     time              x             y              z              vx             vy             vz             ax             ay             az         v_magnitude      ELoss        Electronic      Nuclear
           0   0.000000e+00   1.000000e-01   1.988972e+01   8.622504e+00   7.175097e+05   1.629604e+06  -4.358266e+05   0.000000e+00   0.000000e+00   0.000000e+00   1.833133e+06   0.000000e+00   0.000000e+00   0.000000e+00
        8000   7.999000e-08   1.574008e-01   2.002009e+01   8.587638e+00   7.175097e+05   1.629604e+06  -4.358266e+05   0.000000e+00   0.000000e+00   0.000000e+00   1.833133e+06   0.000000e+00   0.000000e+00   0.000000e+00
       16000   1.599900e-07   2.148016e-01   2.015046e+01   8.552772e+00   7.175097e+05   1.629604e+06  -4.358266e+05   0.000000e+00   0.000000e+00   0.000000e+00   1.833133e+06   0.000000e+00   0.000000e+00   0.000000e+00
       24000   2.399900e-07   2.722023e-01   2.028083e+01   8.517906e+00   7.175097e+05   1.629604e+06  -4.358266e+05   0.000000e+00   0.000000e+00   0.000000e+00   1.833133e+06   0.000000e+00   0.000000e+00   0.000000e+00
       32000   3.199900e-07   3.296031e-01   2.041120e+01   8.483039e+00   7.175097e+05   1.629604e+06  -4.358266e+05   0.000000e+00   0.000000e+00   0.000000e+00   1.833133e+06   0.000000e+00   0.000000e+00   0.000000e+00
       40000   3.999900e-07   3.870039e-01   2.054157e+01   8.448173e+00   7.175097e+05   1.629604e+06  -4.358266e+05   0.000000e+00   0.000000e+00   0.000000e+00   1.833133e+06   0.000000e+00   0.000000e+00   0.000000e+00
       48000   4.799900e-07   4.444047e-01   2.067193e+01   8.413307e+00   7.175097e+05   1.629604e+06  -4.358266e+05   0.000000e+00   0.000000e+00   0.000000e+00   1.833133e+06   0.000000e+00   0.000000e+00   0.000000e+00
       56000   5.599900e-07   5.018055e-01   2.080230e+01   8.378441e+00   7.175097e+05   1.629604e+06  -4.358266e+05   0.000000e+00   0.000000e+00   0.000000e+00   1.833133e+06   0.000000e+00   0.000000e+00   0.000000e+00
       64000   6.399900e-07   5.592062e-01   2.093267e+01   8.343575e+00   7.175097e+05   1.629604e+06  -4.358266e+05   0.000000e+00   0.000000e+00   0.000000e+00   1.833133e+06   0.000000e+00   0.000000e+00   0.000000e+00
       72000   7.199900e-07   6.166070e-01   2.106304e+01   8.308709e+00   7.175097e+05   1.629604e+06  -4.358266e+05   0.000000e+00   0.000000e+00   0.000000e+00   1.833133e+06   0.000000e+00   0.000000e+00   0.000000e+00
       80000   7.999900e-07   6.740078e-01   2.119341e+01   8.273843e+00   7.175097e+05   1.629604e+06  -4.358266e+05   0.000000e+00   0.000000e+00   0.000000e+00   1.833133e+06   0.000000e+00   0.000000e+00   0.000000e+00
       88000   8.799900e-07   7.314086e-01   2.132378e+01   8.238977e+00   7.175097e+05   1.629604e+06  -4.358266e+05   0.000000e+00   0.000000e+00   0.000000e+00   1.833133e+06   0.000000e+00   0.000000e+00   0.000000e+00
       96000   9.599900e-07   7.888093e-01   2.145414e+01   8.204110e+00   7.175097e+05   1.629604e+06  -4.358266e+05   0.000000e+00   0.000000e+00   0.000000e+00   1.833133e+06   0.000000e+00   0.000000e+00   0.000000e+00
      104000   1.039990e-06   8.462101e-01   2.158451e+01   8.169244e+00   7.175097e+05   1.629604e+06  -4.358266e+05   0.000000e+00   0.000000e+00   0.000000e+00   1.833133e+06   0.000000e+00   0.000000e+00   0.000000e+00
      112000   1.119990e-06   9.036109e-01   2.171488e+01   8.134378e+00   7.175097e+05   1.629604e+06  -4.358266e+05   0.000000e+00   0.000000e+00   0.000000e+00   1.833133e+06   0.000000e+00   0.000000e+00   0.000000e+00
      120000   1.199990e-06   9.610117e-01   2.184525e+01   8.099512e+00   7.175097e+05   1.629604e+06  -4.358266e+05   0.000000e+00   0.000000e+00   0.000000e+00   1.833133e+06   0.000000e+00   0.000000e+00   0.000000e+00
      128000   1.279990e-06   1.018412e+00   2.197562e+01   8.064646e+00   7.175097e+05   1.629604e+06  -4.358266e+05   0.000000e+00   0.000000e+00   0.000000e+00   1.833133e+06   0.000000e+00   0.000000e+00   0.000000e+00
      136000   1.359990e-06   1.075813e+00   2.210599e+01   8.029780e+00   7.175097e+05   1.629604e+06  -4.358266e+05   0.000000e+00   0.000000e+00   0.000000e+00   1.833133e+06   0.000000e+00   0.000000e+00   0.000000e+00
      144000   1.439990e-06   1.133214e+00   2.223635e+01   7.994914e+00   7.175097e+05   1.629604e+06  -4.358266e+05   0.000000e+00   0.000000e+00   0.000000e+00   1.833133e+06   0.000000e+00   0.000000e+00   0.000000e+00
      152000   1.519990e-06   1.190615e+00   2.236672e+01   7.960048e+00   7.175097e+05   1.629604e+06  -4.358266e+05   0.000000e+00   0.000000e+00   0.000000e+00   1.833133e+06   0.000000e+00   0.000000e+00   0.000000e+00
      160000   1.599990e-06   1.248016e+00   2.249709e+01   7.925181e+00   7.175097e+05   1.629604e+06  -4.358266e+05   0.000000e+00   0.000000e+00   0.000000e+00   1.833133e+06   0.000000e+00   0.000000e+00   0.000000e+00
      168000   1.679990e-06   1.305416e+00   2.262746e+01   7.890315e+00   7.175097e+05   1.629604e+06  -4.358266e+05   0.000000e+00   0.000000e+00   0.000000e+00   1.833133e+06   0.000000e+00   0.000000e+00   0.000000e+00
      176000   1.759990e-06   1.362817e+00   2.275783e+01   7.855449e+00   7.175097e+05   1.629604e+06  -4.358266e+05   0.000000e+00   0.000000e+00   0.000000e+00   1.833133e+06   0.000000e+00   0.000000e+00   0.000000e+00
      184000   1.839990e-06   1.420218e+00   2.288820e+01   7.820583e+00   7.175097e+05   1.629604e+06  -4.358266e+05   0.000000e+00   0.000000e+00   0.000000e+00   1.833133e+06   0.000000e+00   0.000000e+00   0.000000e+00
      192000   1.919990e-06   1.477619e+00   2.301856e+01   7.785717e+00   7.175097e+05   1.629604e+06  -4.358266e+05   0.000000e+00   0.000000e+00   0.000000e+00   1.833133e+06   0.000000e+00   0.000000e+00   0.000000e+00
      200000   1.999990e-06   1.535019e+00   2.314893e+01   7.750851e+00   7.175097e+05   1.629604e+06  -4.358266e+05   0.000000e+00   0.000000e+00   0.000000e+00   1.833133e+06   0.000000e+00   0.000000e+00   0.000000e+00
      208000   2.079990e-06   1.592420e+00   2.327930e+01   7.715985e+00   7.175097e+05   1.629604e+06  -4.358266e+05   0.000000e+00   0.000000e+00   0.000000e+00   1.833133e+06   0.000000e+00   0.000000e+00   0.000000e+00
      216000   2.159990e-06   1.649821e+00   2.340967e+01   7.681118e+00   7.175097e+05   1.629604e+06  -4.358266e+05   0.000000e+00   0.000000e+00   0.000000e+00   1.833133e+06   0.000000e+00   0.000000e+00   0.000000e+00
      224000   2.239990e-06   1.707222e+00   2.354004e+01   7.646252e+00   7.175097e+05   1.629604e+06  -4.358266e+05   0.000000e+00   0.000000e+00   0.000000e+00   1.833133e+06   0.000000e+00   0.000000e+00   0.000000e+00
      232000   2.319990e-06   1.764623e+00   2.367041e+01   7.611386e+00   7.175097e+05   1.629604e+06  -4.358266e+05   0.000000e+00   0.000000e+00   0.000000e+00   1.833133e+06   0.000000e+00   0.000000e+00   0.000000e+00
      240000   2.399990e-06   1.822023e+00   2.380077e+01   7.576520e+00   7.175097e+05   1.629604e+06  -4.358266e+05   0.000000e+00   0.000000e+00   0.000000e+00   1.833133e+06   0.000000e+00   0.000000e+00   0.000000e+00
      248000   2.479990e-06   1.879424e+00   2.393114e+01   7.541654e+00   7.175097e+05   1.629604e+06  -4.358266e+05   0.000000e+00   0.000000e+00   0.000000e+00   1.833133e+06   0.000000e+00   0.000000e+00   0.000000e+00
      256000   2.559990e-06   1.936825e+00   2.406151e+01   7.506788e+00   7.175097e+05   1.629604e+06  -4.358266e+05   0.000000e+00   0.000000e+00   0.000000e+00   1.833133e+06   0.000000e+00   0.000000e+00   0.000000e+00
      264000   2.639990e-06   1.994226e+00   2.419188e+01   7.471922e+00   7.175097e+05   1.629604e+06  -4.358266e+05   0.000000e+00   0.000000e+00   0.000000e+00   1.833133e+06   0.000000e+00   0.000000e+00   0.000000e+00
      272000   2.719990e-06   2.051626e+00   2.432225e+01   7.437056e+00   7.175097e+05   1.629604e+06  -4.358266e+05   0.000000e+00   0.000000e+00   0.000000e+00   1.833133e+06   0.000000e+00   0.000000e+00   0.000000e+00
      280000   2.799990e-06   2.109027e+00   2.445262e+01   7.402189e+00   7.175097e+05   1.629604e+06  -4.358266e+05   0.000000e+00   0.000000e+00   0.000000e+00   1.833133e+06   0.000000e+00   0.000000e+00   0.000000e+00
      288000   2.879990e-06   2.166428e+00   2.458298e+01   7.367323e+00   7.175097e+05   1.629604e+06  -4.358266e+05   0.000000e+00   0.000000e+00   0.000000e+00   1.833133e+06   0.000000e+00   0.000000e+00   0.000000e+00
      296000   2.959990e-06   2.223829e+00   2.471335e+01   7.332457e+00   7.175097e+05   1.629604e+06  -4.358266e+05   0.000000e+00   0.000000e+00   0.000000e+00   1.833133e+06   0.000000e+00   0.000000e+00   0.000000e+00
      304000   3.039990e-06   2.281230e+00   2.484372e+01   7.297591e+00   7.175097e+05   1.629604e+06  -4.358266e+05   0.000000e+00   0.000000e+00   0.000000e+00   1.833133e+06   0.000000e+00   0.000000e+00   0.000000e+00
      312000   3.119990e-06   2.338630e+00   2.497409e+01   7.262725e+00   7.175097e+05   1.629604e+06  -4.358266e+05   0.000000e+00   0.000000e+00   0.000000e+00   1.833133e+06   0.000000e+00   0.000000e+00   0.000000e+00
      320000   3.199990e-06   2.396031e+00   2.510446e+01   7.227859e+00   7.175097e+05   1.629604e+06  -4.358266e+05   0.000000e+00   0.000000e+00   0.000000e+00   1.833133e+06   0.000000e+00   0.000000e+00   0.000000e+00
      328000   3.279990e-06   2.453432e+00   2.523483e+01   7.192993e+00   7.175097e+05   1.629604e+06  -4.358266e+05   0.000000e+00   0.000000e+00   0.000000e+00   1.833133e+06   0.000000e+00   0.000000e+00   0.000000e+00
      336000   3.359990e-06   2.510833e+00   2.536519e+01   7.158127e+00   7.175097e+05   1.629604e+06  -4.358266e+05   0.000000e+00   0.000000e+00   0.000000e+00   1.833133e+06   0.000000e+00   0.000000e+00   0.000000e+00
      344000   3.439990e-06   2.568233e+00   2.549556e+01   7.123260e+00   7.175097e+05   1.629604e+06  -4.358266e+05   0.000000e+00   0.000000e+00   0.000000e+00   1.833133e+06   0.000000e+00   0.000000e+00   0.000000e+00
      352000   3.519990e-06   2.625634e+00   2.562593e+01   7.088394e+00   7.175097e+05   1.629604e+06  -4.358266e+05   0.000000e+00   0.000000e+00   0.000000e+00   1.833133e+06   0.000000e+00   0.000000e+00   0.000000e+00
      360000   3.599990e-06   2.683035e+00   2.575630e+01   7.053528e+00   7.175097e+05   1.629604e+06  -4.358266e+05   0.000000e+00   0.000000e+00   0.000000e+00   1.833133e+06   0.000000e+00   0.000000e+00   0.000000e+00
      368000   3.679990e-06   2.740436e+00   2.588667e+01   7.018662e+00   7.175097e+05   1.629604e+06  -4.358266e+05   0.000000e+00   0.000000e+00   0.000000e+00   1.833133e+06   0.000000e+00   0.000000e+00   0.000000e+00
      376000   3.759990e-06   2.797837e+00   2.601704e+01   6.983796e+00   7.175097e+05   1.629604e+06  -4.358266e+05   0.000000e+00   0.000000e+00   0.000000e+00   1.833133e+06   0.000000e+00   0.000000e+00   0.000000e+00
      384000   3.839990e-06   2.855237e+00   2.614740e+01   6.948930e+00   7.175097e+05   1.629604e+06  -4.358266e+05   0.000000e+00   0.000000e+00   0.000000e+00   1.833133e+06   0.000000e+00   0.000000e+00   0.000000e+00
      392000   3.919990e-06   2.912638e+00   2.627777e+01   6.914064e+00   7.175097e+05   1.629604e+06  -4.358266e+05   0.000000e+00   0.000000e+00   0.000000e+00   1.833133e+06   0.000000e+00   0.000000e+00   0.000000e+00
      400000   3.999990e-06   2.970039e+00   2.640814e+01   6.879197e+00   7.175097e+05   1.629604e+06  -4.358266e+05   0.000000e+00   0.000000e+00   0.000000e+00   1.833133e+06   0.000000e+00   0.000000e+00   0.000000e+00
      408000   4.079990e-06   3.027440e+00   2.653851e+01   6.844331e+00   7.175097e+05   1.629604e+06  -4.358266e+05   0.000000e+00   0.000000e+00   0.000000e+00   1.833133e+06   0.000000e+00   0.000000e+00   0.000000e+00
      416000   4.159990e-06   3.084840e+00   2.666888e+01   6.809465e+00   7.175097e+05   1.629604e+06  -4.358266e+05   0.000000e+00   0.000000e+00   0.000000e+00   1.833133e+06   0.000000e+00   0.000000e+00   0.000000e+00
      424000   4.239990e-06   3.142241e+00   2.679925e+01   6.774599e+00   7.175097e+05   1.629604e+06  -4.358266e+05   0.000000e+00   0.000000e+00   0.000000e+00   1.833133e+06   0.000000e+00   0.000000e+00   0.000000e+00
      432000   4.319990e-06   3.199642e+00   2.692961e+01   6.739733e+00   7.175097e+05   1.629604e+06  -4.358266e+05   0.000000e+00   0.000000e+00   0.000000e+00   1.833133e+06   0.000000e+00   0.000000e+00   0.000000e+00
      440000   4.399990e-06   3.257043e+00   2.705998e+01   6.704867e+00   7.175097e+05   1.629604e+06  -4.358266e+05   0.000000e+00   0.000000e+00   0.000000e+00   1.833133e+06   0.000000e+00   0.000000e+00   0.000000e+00
      448000   4.479990e-06   3.314444e+00   2.719035e+01   6.670001e+00   7.175097e+05   1.629604e+06  -4.358266e+05   0.000000e+00   0.000000e+00   0.000000e+00   1.833133e+06   0.000000e+00   0.000000e+00   0.000000e+00
      456000   4.559990e-06   3.371844e+00   2.732072e+01   6.635135e+00   7.175097e+05   1.629604e+06  -4.358266e+05   0.000000e+00   0.000000e+00   0.000000e+00   1.833133e+06   0.000000e+00   0.000000e+00   0.000000e+00
      464000   4.639990e-06   3.429245e+00   2.745109e+01   6.600268e+00   7.175097e+05   1.629604e+06  -4.358266e+05   0.000000e+00   0.000000e+00   0.000000e+00   1.833133e+06   0.000000e+00   0.000000e+00   0.000000e+00
      472000   4.719990e-06   3.486646e+00   2.758146e+01   6.565402e+00   7.175097e+05   1.629604e+06  -4.358266e+05   0.000000e+00   0.000000e+00   0.000000e+00   1.833133e+06   0.000000e+00   0.000000e+00   0.000000e+00
      480000   4.799990e-06   3.544047e+00   2.771182e+01   6.530536e+00   7.175097e+05   1.629604e+06  -4.358266e+05   0.000000e+00   0.000000e+00   0.000000e+00   1.833133e+06   0.000000e+00   0.000000e+00   0.000000e+00
      488000   4.879990e-06   3.601448e+00   2.784219e+01   6.495670e+00   7.175097e+05   1.629604e+06  -4.358266e+05   0.000000e+00   0.000000e+00   0.000000e+00   1.833133e+06   0.000000e+00   0.000000e+00   0.000000e+00
      496000   4.959990e-06   3.658848e+00   2.797256e+01   6.460804e+00   7.175097e+05   1.629604e+06  -4.358266e+05   0.000000e+00   0.000000e+00   0.000000e+00   1.833133e+06   0.000000e+00   0.000000e+00   0.000000e+00
      504000   5.039990e-06   3.716249e+00   2.810293e+01   6.425938e+00   7.175097e+05   1.629604e+06  -4.358266e+05   0.000000e+00   0.000000e+00   0.000000e+00   1.833133e+06   0.000000e+00   0.000000e+00   0.000000e+00
      512000   5.119990e-06   3.773650e+00   2.823330e+01   6.391072e+00   7.175097e+05   1.629604e+06  -4.358266e+05   0.000000e+00   0.000000e+00   0.000000e+00   1.833133e+06   0.000000e+00   0.000000e+00   0.000000e+00
      520000   5.199990e-06   3.831051e+00   2.836367e+01   6.356206e+00   7.175097e+05   1.629604e+06  -4.358266e+05   0.000000e+00   0.000000e+00   0.000000e+00   1.833133e+06   0.000000e+00   0.000000e+00   0.000000e+00
      528000   5.279990e-06   3.888451e+00   2.849403e+01   6.321339e+00   7.175097e+05   1.629604e+06  -4.358266e+05   0.000000e+00   0.000000e+00   0.000000e+00   1.833133e+06   0.000000e+00   0.000000e+00   0.000000e+00
      536000   5.359990e-06   3.945852e+00   2.862440e+01   6.286473e+00   7.175097e+05   1.629604e+06  -4.358266e+05   0.000000e+00   0.000000e+00   0.000000e+00   1.833133e+06   0.000000e+00   0.000000e+00   0.000000e+00
      544000   5.439990e-06   4.003253e+00   2.875477e+01   6.251607e+00   7.175097e+05   1.629604e+06  -4.358266e+05   0.000000e+00   0.000000e+00   0.000000e+00   1.833133e+06   0.000000e+00   0.000000e+00   0.000000e+00
      552000   5.519990e-06   4.060654e+00   2.888514e+01   6.216741e+00   7.175097e+05   1.629604e+06  -4.358266e+05   0.000000e+00   0.000000e+00   0.000000e+00   1.833133e+06   0.000000e+00   0.000000e+00   0.000000e+00
      560000   5.599990e-06   4.118055e+00   2.901551e+01   6.181875e+00   7.175097e+05   1.629604e+06  -4.358266e+05   0.000000e+00   0.000000e+00   0.000000e+00   1.833133e+06   0.000000e+00   0.000000e+00   0.000000e+00
      568000   5.679990e-06   4.175455e+00   2.914588e+01   6.147009e+00   7.175097e+05   1.629604e+06  -4.358266e+05   0.000000e+00   0.000000e+00   0.000000e+00   1.833133e+06   0.000000e+00   0.000000e+00   0.000000e+00
      576000   5.759990e-06   4.232856e+00   2.927624e+01   6.112143e+00   7.175097e+05   1.629604e+06  -4.358266e+05   0.000000e+00   0.000000e+00   0.000000e+00   1.833133e+06   0.000000e+00   0.000000e+00   0.000000e+00
      584000   5.839990e-06   4.290257e+00   2.940661e+01   6.077276e+00   7.175097e+05   1.629604e+06  -4.358266e+05   0.000000e+00   0.000000e+00   0.000000e+00   1.833133e+06   0.000000e+00   0.000000e+00   0.000000e+00
      592000   5.919990e-06   4.347658e+00   2.953698e+01   6.042410e+00   7.175097e+05   1.629604e+06  -4.358266e+05   0.000000e+00   0.000000e+00   0.000000e+00   1.833133e+06   0.000000e+00   0.000000e+00   0.000000e+00
      600000   5.999990e-06   4.405058e+00   2.966735e+01   6.007544e+00   7.175097e+05   1.629604e+06  -4.358266e+05   0.000000e+00   0.000000e+00   0.000000e+00   1.833133e+06   0.000000e+00   0.000000e+00   0.000000e+00
      608000   6.079990e-06   4.462459e+00   2.979772e+01   5.972678e+00   7.175097e+05   1.629604e+06  -4.358266e+05   0.000000e+00   0.000000e+00   0.000000e+00   1.833133e+06   0.000000e+00   0.000000e+00   0.000000e+00
      616000   6.159990e-06   4.519860e+00   2.992809e+01   5.937812e+00   7.175097e+05   1.629604e+06  -4.358266e+05   0.000000e+00   0.000000e+00   0.000000e+00   1.833133e+06   0.000000e+00   0.000000e+00   0.000000e+00
      624000   6.239990e-06   4.577261e+00   3.005845e+01   5.902946e+00   7.175097e+05   1.629604e+06  -4.358266e+05   0.000000e+00   0.000000e+00   0.000000e+00   1.833133e+06   0.000000e+00   0.000000e+00   0.000000e+00
      632000   6.319990e-06   4.634662e+00   3.018882e+01   5.868080e+00   7.175097e+05   1.629604e+06  -4.358266e+05   0.000000e+00   0.000000e+00   0.000000e+00   1.833133e+06   0.000000e+00   0.000000e+00   0.000000e+00
      640000   6.399990e-06   4.692062e+00   3.031919e+01   5.833214e+00   7.175097e+05   1.629604e+06  -4.358266e+05   0.000000e+00   0.000000e+00   0.000000e+00   1.833133e+06   0.000000e+00   0.000000e+00   0.000000e+00
      648000   6.479990e-06   4.749463e+00   3.044956e+01   5.798347e+00   7.175097e+05   1.629604e+06  -4.358266e+05   0.000000e+00   0.000000e+00   0.000000e+00   1.833133e+06   0.000000e+00   0.000000e+00   0.000000e+00
      656000   6.559990e-06   4.806864e+00   3.057993e+01   5.763481e+00   7.175097e+05   1.629604e+06  -4.358266e+05   0.000000e+00   0.000000e+00   0.000000e+00   1.833133e+06   0.000000e+00   0.000000e+00   0.000000e+00
      664000   6.639990e-06   4.864265e+00   3.071030e+01   5.728615e+00   7.175097e+05   1.629604e+06  -4.358266e+05   0.000000e+00   0.000000e+00   0.000000e+00   1.833133e+06   0.000000e+00   0.000000e+00   0.000000e+00
      672000   6.719990e-06   4.921665e+00   3.084066e+01   5.693749e+00   7.175097e+05   1.629604e+06  -4.358266e+05   0.000000e+00   0.000000e+00   0.000000e+00   1.833133e+06   0.000000e+00   0.000000e+00   0.000000e+00
      680000   6.799990e-06   4.979066e+00   3.097103e+01   5.658883e+00   7.175097e+05   1.629604e+06  -4.358266e+05   0.000000e+00   0.000000e+00   0.000000e+00   1.833133e+06   0.000000e+00   0.000000e+00   0.000000e+00
      688000   6.879990e-06   5.036467e+00   3.110140e+01   5.624017e+00   7.175097e+05   1.629604e+06  -4.358266e+05   0.000000e+00   0.000000e+00   0.000000e+00   1.833133e+06   0.000000e+00   0.000000e+00   0.000000e+00
      696000   6.959990e-06   5.093868e+00   3.123177e+01   5.589151e+00   7.175097e+05   1.629604e+06  -4.358266e+05   0.000000e+00   0.000000e+00   0.000000e+00   1.833133e+06   0.000000e+00   0.000000e+00   0.000000e+00
      704000   7.039990e-06   5.151269e+00   3.136214e+01   5.554285e+00   7.175097e+05   1.629604e+06  -4.358266e+05   0.000000e+00   0.000000e+00   0.000000e+00   1.833133e+06   0.000000e+00   0.000000e+00   0.000000e+00
      712000   7.119990e-06   5.208669e+00   3.149251e+01   5.519418e+00   7.175097e+05   1.629604e+06  -4.358266e+05   0.000000e+00   0.000000e+00   0.000000e+00   1.833133e+06   0.000000e+00   0.000000e+00   0.000000e+00
      720000   7.199990e-06   5.266070e+00   3.162287e+01   5.484552e+00   7.175097e+05   1.629604e+06  -4.358266e+05   0.000000e+00   0.000000e+00   0.000000e+00   1.833133e+06   0.000000e+00   0.000000e+00   0.000000e+00
      728000   7.279990e-06   5.323471e+00   3.175324e+01   5.449686e+00   7.175097e+05   1.629604e+06  -4.358266e+05   0.000000e+00   0.000000e+00   0.000000e+00   1.833133e+06   0.000000e+00   0.000000e+00   0.000000e+00
      736000   7.359990e-06   5.380872e+00   3.188361e+01   5.414820e+00   7.175097e+05   1.629604e+06  -4.358266e+05   0.000000e+00   0.000000e+00   0.000000e+00   1.833133e+06   0.000000e+00   0.000000e+00   0.000000e+00
      744000   7.439990e-06   5.438272e+00   3.201398e+01   5.379954e+00   7.175097e+05   1.629604e+06  -4.358266e+05   0.000000e+00   0.000000e+00   0.000000e+00   1.833133e+06   0.000000e+00   0.000000e+00   0.000000e+00
      752000   7.519990e-06   5.495673e+00   3.214435e+01   5.345088e+00   7.175097e+05   1.629604e+06  -4.358266e+05   0.000000e+00   0.000000e+00   0.000000e+00   1.833133e+06   0.000000e+00   0.000000e+00   0.000000e+00
      760000   7.599990e-06   5.553074e+00   3.227472e+01   5.310222e+00   7.175097e+05   1.629604e+06  -4.358266e+05   0.000000e+00   0.000000e+00   0.000000e+00   1.833133e+06   0.000000e+00   0.000000e+00   0.000000e+00
      768000   7.679990e-06   5.610475e+00   3.240509e+01   5.275356e+00   7.175097e+05   1.629604e+06  -4.358266e+05   0.000000e+00   0.000000e+00   0.000000e+00   1.833133e+06   0.000000e+00   0.000000e+00   0.000000e+00
      776000   7.759990e-06   5.667876e+00   3.253545e+01   5.240489e+00   7.175097e+05   1.629604e+06  -4.358266e+05   0.000000e+00   0.000000e+00   0.000000e+00   1.833133e+06   0.000000e+00   0.000000e+00   0.000000e+00
      784000   7.839990e-06   5.725276e+00   3.266582e+01   5.205623e+00   7.175097e+05   1.629604e+06  -4.358266e+05   0.000000e+00   0.000000e+00   0.000000e+00   1.833133e+06   0.000000e+00   0.000000e+00   0.000000e+00
      792000   7.919990e-06   5.782677e+00   3.279619e+01   5.170757e+00   7.175097e+05   1.629604e+06  -4.358266e+05   0.000000e+00   0.000000e+00   0.000000e+00   1.833133e+06   0.000000e+00   0.000000e+00   0.000000e+00
      800000   7.999990e-06   5.840078e+00   3.292656e+01   5.135891e+00   7.175097e+05   1.629604e+06  -4.358266e+05   0.000000e+00   0.000000e+00   0.000000e+00   1.833133e+06   0.000000e+00   0.000000e+00   0.000000e+00
      808000   8.079990e-06   5.897479e+00   3.305693e+01   5.101025e+00   7.175097e+05   1.629604e+06  -4.358266e+05   0.000000e+00   0.000000e+00   0.000000e+00   1.833133e+06   0.000000e+00   0.000000e+00   0.000000e+00
      816000   8.159990e-06   5.954879e+00   3.318730e+01   5.066159e+00   7.175097e+05   1.629604e+06  -4.358266e+05   0.000000e+00   0.000000e+00   0.000000e+00   1.833133e+06   0.000000e+00   0.000000e+00   0.000000e+00
      824000   8.239990e-06   6.012280e+00   3.331766e+01   5.031293e+00   7.175097e+05   1.629604e+06  -4.358266e+05   0.000000e+00   0.000000e+00   0.000000e+00   1.833133e+06   0.000000e+00   0.000000e+00   0.000000e+00
      832000   8.319990e-06   6.069681e+00   3.344803e+01   4.996426e+00   7.175097e+05   1.629604e+06  -4.358266e+05   0.000000e+00   0.000000e+00   0.000000e+00   1.833133e+06   0.000000e+00   0.000000e+00   0.000000e+00
      840000   8.399990e-06   6.127082e+00   3.357840e+01   4.961560e+00   7.175097e+05   1.629604e+06  -4.358266e+05   0.000000e+00   0.000000e+00   0.000000e+00   1.833133e+06   0.000000e+00   0.000000e+00   0.000000e+00
      848000   8.479990e-06   6.184483e+00   3.370877e+01   4.926694e+00   7.175097e+05   1.629604e+06  -4.358266e+05   0.000000e+00   0.000000e+00   0.000000e+00   1.833133e+06   0.000000e+00   0.000000e+00   0.000000e+00
      856000   8.559990e-06   6.241883e+00   3.383914e+01   4.891828e+00   7.175097e+05   1.629604e+06  -4.358266e+05   0.000000e+00   0.000000e+00   0.000000e+00   1.833133e+06   0.000000e+00   0.000000e+00   0.000000e+00
      864000   8.639990e-06   6.299284e+00   3.396951e+01   4.856962e+00   7.175097e+05   1.629604e+06  -4.358266e+05   0.000000e+00   0.000000e+00   0.000000e+00   1.833133e+06   0.000000e+00   0.000000e+00   0.000000e+00
      872000   8.719990e-06   6.356685e+00   3.409987e+01   4.822096e+00   7.175097e+05   1.629604e+06  -4.358266e+05   0.000000e+00   0.000000e+00   0.000000e+00   1.833133e+06   0.000000e+00   0.000000e+00   0.000000e+00
      880000   8.799990e-06   6.414086e+00   3.423024e+01   4.787230e+00   7.175097e+05   1.629604e+06  -4.358266e+05   0.000000e+00   0.000000e+00   0.000000e+00   1.833133e+06   0.000000e+00   0.000000e+00   0.000000e+00
      888000   8.879990e-06   6.471486e+00   3.436061e+01   4.752364e+00   7.175097e+05   1.629604e+06  -4.358266e+05   0.000000e+00   0.000000e+00   0.000000e+00   1.833133e+06   0.000000e+00   0.000000e+00   0.000000e+00
      896000   8.959990e-06   6.528887e+00   3.449098e+01   4.717497e+00   7.175097e+05   1.629604e+06  -4.358266e+05   0.000000e+00   0.000000e+00   0.000000e+00   1.833133e+06   0.000000e+00   0.000000e+00   0.000000e+00
      904000   9.039990e-06   6.586288e+00   3.462135e+01   4.682631e+00   7.175097e+05   1.629604e+06  -4.358266e+05   0.000000e+00   0.000000e+00   0.000000e+00   1.833133e+06   0.000000e+00   0.000000e+00   0.000000e+00
      912000   9.119990e-06   6.643689e+00   3.475172e+01   4.647765e+00   7.175097e+05   1.629604e+06  -4.358266e+05   0.000000e+00   0.000000e+00   0.000000e+00   1.833133e+06   0.000000e+00   0.000000e+00   0.000000e+00
      920000   9.199990e-06   6.701090e+00   3.488208e+01   4.612899e+00   7.175097e+05   1.629604e+06  -4.358266e+05   0.000000e+00   0.000000e+00   0.000000e+00   1.833133e+06   0.000000e+00   0.000000e+00   0.000000e+00
      928000   9.279990e-06   6.758490e+00   3.501245e+01   4.578033e+00   7.175097e+05   1.629604e+06  -4.358266e+05   0.000000e+00   0.000000e+00   0.000000e+00   1.833133e+06   0.000000e+00   0.000000e+00   0.000000e+00
      936000   9.359990e-06   6.815891e+00   3.514282e+01   4.543167e+00   7.175097e+05   1.629604e+06  -4.358266e+05   0.000000e+00   0.000000e+00   0.000000e+00   1.833133e+06   0.000000e+00   0.000000e+00   0.000000e+00
      944000   9.439990e-06   6.873292e+00   3.527319e+01   4.508301e+00   7.175097e+05   1.629604e+06  -4.358266e+05   0.000000e+00   0.000000e+00   0.000000e+00   1.833133e+06   0.000000e+00   0.000000e+00   0.000000e+00
      952000   9.519990e-06   6.930693e+00   3.540356e+01   4.473435e+00   7.175097e+05   1.629604e+06  -4.358266e+05   0.000000e+00   0.000000e+00   0.000000e+00   1.833133e+06   0.000000e+00   0.000000e+00   0.000000e+00
      960000   9.599990e-06   6.988093e+00   3.553393e+01   4.438568e+00   7.175097e+05   1.629604e+06  -4.358266e+05   0.000000e+00   0.000000e+00   0.000000e+00   1.833133e+06   0.000000e+00   0.000000e+00   0.000000e+00
      968000   9.679990e-06   7.045494e+00   3.566429e+01   4.403702e+00   7.175097e+05   1.629604e+06  -4.358266e+05   0.000000e+00   0.000000e+00   0.000000e+00   1.833133e+06   0.000000e+00   0.000000e+00   0.000000e+00
      976000   9.759990e-06   7.102895e+00   3.579466e+01   4.368836e+00   7.175097e+05   1.629604e+06  -4.358266e+05   0.000000e+00   0.000000e+00   0.000000e+00   1.833133e+06   0.000000e+00   0.000000e+00   0.000000e+00
      984000   9.839990e-06   7.160296e+00   3.592503e+01   4.333970e+00   7.175097e+05   1.629604e+06  -4.358266e+05   0.000000e+00   0.000000e+00   0.000000e+00   1.833133e+06   0.000000e+00   0.000000e+00   0.000000e+00
      992000   9.919990e-06   7.217697e+00   3.605540e+01   4.299104e+00   7.175097e+05   1.629604e+06  -4.358266e+05   0.000000e+00   0.000000e+00   0.000000e+00   1.833133e+06   0.000000e+00   0.000000e+00   0.000000e+00
     1000000   9.999990e-06   7.275097e+00   3.618577e+01   4.264238e+00   7.175097e+05   1.629604e+06  -4.358266e+05   0.000000e+00   0.000000e+00   0.000000e+00   1.833133e+06   0.000000e+00   0.000000e+00   0.000000e+00
     1008000   1.007999e-05   7.332498e+00   3.631614e+01   4.229372e+00   7.175097e+05   1.629604e+06  -4.358266e+05   0.000000e+00   0.000000e+00   0.000000e+00   1.833133e+06   0.000000e+00   0.000000e+00   0.000000e+00
     1016000   1.015999e-05   7.389899e+00   3.644650e+01   4.194505e+00   7.175097e+05   1.629604e+06  -4.358266e+05   0.000000e+00   0.000000e+00   0.000000e+00   1.833133e+06   0.000000e+00   0.000000e+00   0.000000e+00
     1024000   1.023999e-05   7.447300e+00   3.657687e+01   4.159639e+00   7.175097e+05   1.629604e+06  -4.358266e+05   0.000000e+00   0.000000e+00   0.000000e+00   1.833133e+06   0.000000e+00   0.000000e+00   0.000000e+00
     1032000   1.031999e-05   7.504700e+00   3.670724e+01   4.124773e+00   7.175097e+05   1.629604e+06  -4.358266e+05   0.000000e+00   0.000000e+00   0.000000e+00   1.833133e+06   0.000000e+00   0.000000e+00   0.000000e+00
     1040000   1.039999e-05   7.562101e+00   3.683761e+01   4.089907e+00   7.175097e+05   1.629604e+06  -4.358266e+05   0.000000e+00   0.000000e+00   0.000000e+00   1.833133e+06   0.000000e+00   0.000000e+00   0.000000e+00
     1048000   1.047999e-05   7.619502e+00   3.696798e+01   4.055041e+00   7.175097e+05   1.629604e+06  -4.358266e+05   0.000000e+00   0.000000e+00   0.000000e+00   1.833133e+06   0.000000e+00   0.000000e+00   0.000000e+00
     1056000   1.055999e-05   7.676903e+00   3.709835e+01   4.020175e+00   7.175097e+05   1.629604e+06  -4.358266e+05   0.000000e+00   0.000000e+00   0.000000e+00   1.833133e+06   0.000000e+00   0.000000e+00   0.000000e+00
     1064000   1.063999e-05   7.734304e+00   3.722871e+01   3.985309e+00   7.175097e+05   1.629604e+06  -4.358266e+05   0.000000e+00   0.000000e+00   0.000000e+00   1.833133e+06   0.000000e+00   0.000000e+00   0.000000e+00
     1072000   1.071999e-05   7.791704e+00   3.735908e+01   3.950443e+00   7.175097e+05   1.629604e+06  -4.358266e+05   0.000000e+00   0.000000e+00   0.000000e+00   1.833133e+06   0.000000e+00   0.000000e+00   0.000000e+00
     1080000   1.079999e-05   7.849105e+00   3.748945e+01   3.915576e+00   7.175097e+05   1.629604e+06  -4.358266e+05   0.000000e+00   0.000000e+00   0.000000e+00   1.833133e+06   0.000000e+00   0.000000e+00   0.000000e+00
     1088000   1.087999e-05   7.906506e+00   3.761982e+01   3.880710e+00   7.175097e+05   1.629604e+06  -4.358266e+05   0.000000e+00   0.000000e+00   0.000000e+00   1.833133e+06   0.000000e+00   0.000000e+00   0.000000e+00
     1096000   1.095999e-05   7.963907e+00   3.775019e+01   3.845844e+00   7.175097e+05   1.629604e+06  -4.358266e+05   0.000000e+00   0.000000e+00   0.000000e+00   1.833133e+06   0.000000e+00   0.000000e+00   0.000000e+00
     1104000   1.103999e-05   8.021307e+00   3.788056e+01   3.810978e+00   7.175097e+05   1.629604e+06  -4.358266e+05   0.000000e+00   0.000000e+00   0.000000e+00   1.833133e+06   0.000000e+00   0.000000e+00   0.000000e+00
     1112000   1.111999e-05   8.078708e+00   3.801092e+01   3.776112e+00   7.175097e+05   1.629604e+06  -4.358266e+05   0.000000e+00   0.000000e+00   0.000000e+00   1.833133e+06   0.000000e+00   0.000000e+00   0.000000e+00
     1120000   1.119999e-05   8.136109e+00   3.814129e+01   3.741246e+00   7.175097e+05   1.629604e+06  -4.358266e+05   0.000000e+00   0.000000e+00   0.000000e+00   1.833133e+06   0.000000e+00   0.000000e+00   0.000000e+00
     1128000   1.127999e-05   8.193510e+00   3.827166e+01   3.706380e+00   7.175097e+05   1.629604e+06  -4.358266e+05   0.000000e+00   0.000000e+00   0.000000e+00   1.833133e+06   0.000000e+00   0.000000e+00   0.000000e+00
     1136000   1.135999e-05   8.250911e+00   3.840203e+01   3.671514e+00   7.175097e+05   1.629604e+06  -4.358266e+05   0.000000e+00   0.000000e+00   0.000000e+00   1.833133e+06   0.000000e+00   0.000000e+00   0.000000e+00
     1144000   1.143999e-05   8.308311e+00   3.853240e+01   3.636647e+00   7.175097e+05   1.629604e+06  -4.358266e+05   0.000000e+00   0.000000e+00   0.000000e+00   1.833133e+06   0.000000e+00   0.000000e+00   0.000000e+00
     1152000   1.151999e-05   8.365712e+00   3.866277e+01   3.601781e+00   7.175097e+05   1.629604e+06  -4.358266e+05   0.000000e+00   0.000000e+00   0.000000e+00   1.833133e+06   0.000000e+00   0.000000e+00   0.000000e+00
     1160000   1.159999e-05   8.423113e+00   3.879313e+01   3.566915e+00   7.175097e+05   1.629604e+06  -4.358266e+05   0.000000e+00   0.000000e+00   0.000000e+00   1.833133e+06   0.000000e+00   0.000000e+00   0.000000e+00
     1168000   1.167999e-05   8.480514e+00   3.892350e+01   3.532049e+00   7.175097e+05   1.629604e+06  -4.358266e+05   0.000000e+00   0.000000e+00   0.000000e+00   1.833133e+06   0.000000e+00   0.000000e+00   0.000000e+00
     1176000   1.175999e-05   8.537914e+00   3.905387e+01   3.497183e+00   7.175097e+05   1.629604e+06  -4.358266e+05   0.000000e+00   0.000000e+00   0.000000e+00   1.833133e+06   0.000000e+00   0.000000e+00   0.000000e+00
     1184000   1.183999e-05   8.595315e+00   3.918424e+01   3.462317e+00   7.175097e+05   1.629604e+06  -4.358266e+05   0.000000e+00   0.000000e+00   0.000000e+00   1.833133e+06   0.000000e+00   0.000000e+00   0.000000e+00
     1192000   1.191999e-05   8.652716e+00   3.931461e+01   3.427451e+00   7.175097e+05   1.629604e+06  -4.358266e+05   0.000000e+00   0.000000e+00   0.000000e+00   1.833133e+06   0.000000e+00   0.000000e+00   0.000000e+00
     1200000   1.199999e-05   8.710117e+00   3.944498e+01   3.392584e+00   7.175097e+05   1.629604e+06  -4.358266e+05   0.000000e+00   0.000000e+00   0.000000e+00   1.833133e+06   0.000000e+00   0.000000e+00   0.000000e+00
     1208000   1.207999e-05   8.767518e+00   3.957534e+01   3.357718e+00   7.175097e+05   1.629604e+06  -4.358266e+05   0.000000e+00   0.000000e+00   0.000000e+00   1.833133e+06   0.000000e+00   0.000000e+00   0.000000e+00
     1216000   1.215999e-05   8.824918e+00   3.970571e+01   3.322852e+00   7.175097e+05   1.629604e+06  -4.358266e+05   0.000000e+00   0.000000e+00   0.000000e+00   1.833133e+06   0.000000e+00   0.000000e+00   0.000000e+00
     1224000   1.223999e-05   8.882319e+00   3.983608e+01   3.287986e+00   7.175097e+05   1.629604e+06  -4.358266e+05   0.000000e+00   0.000000e+00   0.000000e+00   1.833133e+06   0.000000e+00   0.000000e+00   0.000000e+00
     1232000   1.231999e-05   8.939720e+00   3.996645e+01   3.253120e+00   7.175097e+05   1.629604e+06  -4.358266e+05   0.000000e+00   0.000000e+00   0.000000e+00   1.833133e+06   0.000000e+00   0.000000e+00   0.000000e+00
     1240000   1.239999e-05   8.997121e+00   4.009682e+01   3.218254e+00   7.175097e+05   1.629604e+06  -4.358266e+05   0.000000e+00   0.000000e+00   0.000000e+00   1.833133e+06   0.000000e+00   0.000000e+00   0.000000e+00
     1248000   1.247999e-05   9.054521e+00   4.022719e+01   3.183388e+00   7.175097e+05   1.629604e+06  -4.358266e+05   0.000000e+00   0.000000e+00   0.000000e+00   1.833133e+06   0.000000e+00   0.000000e+00   0.000000e+00
     1256000   1.255999e-05   9.111922e+00   4.035755e+01   3.148522e+00   7.175097e+05   1.629604e+06  -4.358266e+05   0.000000e+00   0.000000e+00   0.000000e+00   1.833133e+06   0.000000e+00   0.000000e+00   0.000000e+00
     1264000   1.263999e-05   9.169323e+00   4.048792e+01   3.113655e+00   7.175097e+05   1.629604e+06  -4.358266e+05   0.000000e+00   0.000000e+00   0.000000e+00   1.833133e+06   0.000000e+00   0.000000e+00   0.000000e+00
     1272000   1.271999e-05   9.226724e+00   4.061829e+01   3.078789e+00   7.175097e+05   1.629604e+06  -4.358266e+05   0.000000e+00   0.000000e+00   0.000000e+00   1.833133e+06   0.000000e+00   0.000000e+00   0.000000e+00
     1280000   1.279999e-05   9.284125e+00   4.074866e+01   3.043923e+00   7.175097e+05   1.629604e+06  -4.358266e+05   0.000000e+00   0.000000e+00   0.000000e+00   1.833133e+06   0.000000e+00   0.000000e+00   0.000000e+00
     1288000   1.287999e-05   9.341525e+00   4.087903e+01   3.009057e+00   7.175097e+05   1.629604e+06  -4.358266e+05   0.000000e+00   0.000000e+00   0.000000e+00   1.833133e+06   0.000000e+00   0.000000e+00   0.000000e+00
     1296000   1.295999e-05   9.398926e+00   4.100940e+01   2.974191e+00   7.175097e+05   1.629604e+06  -4.358266e+05   0.000000e+00   0.000000e+00   0.000000e+00   1.833133e+06   0.000000e+00   0.000000e+00   0.000000e+00
     1304000   1.303999e-05   9.456327e+00   4.113976e+01   2.939325e+00   7.175097e+05   1.629604e+06  -4.358266e+05   0.000000e+00   0.000000e+00   0.000000e+00   1.833133e+06   0.000000e+00   0.000000e+00   0.000000e+00
     1312000   1.311999e-05   9.513728e+00   4.127013e+01   2.904459e+00   7.175097e+05   1.629604e+06  -4.358266e+05   0.000000e+00   0.000000e+00   0.000000e+00   1.833133e+06   0.000000e+00   0.000000e+00   0.000000e+00
     1320000   1.319999e-05   9.571129e+00   4.140050e+01   2.869593e+00   7.175097e+05   1.629604e+06  -4.358266e+05   0.000000e+00   0.000000e+00   0.000000e+00   1.833133e+06   0.000000e+00   0.000000e+00   0.000000e+00
     1328000   1.327999e-05   9.628529e+00   4.153087e+01   2.834726e+00   7.175097e+05   1.629604e+06  -4.358266e+05   0.000000e+00   0.000000e+00   0.000000e+00   1.833133e+06   0.000000e+00   0.000000e+00   0.000000e+00
     1336000   1.335999e-05   9.685930e+00   4.166124e+01   2.799860e+00   7.175097e+05   1.629604e+06  -4.358266e+05   0.000000e+00   0.000000e+00   0.000000e+00   1.833133e+06   0.000000e+00   0.000000e+00   0.000000e+00
     1344000   1.343999e-05   9.743331e+00   4.179161e+01   2.764994e+00   7.175097e+05   1.629604e+06  -4.358266e+05   0.000000e+00   0.000000e+00   0.000000e+00   1.833133e+06   0.000000e+00   0.000000e+00   0.000000e+00
     1352000   1.351999e-05   9.800732e+00   4.192197e+01   2.730128e+00   7.175097e+05   1.629604e+06  -4.358266e+05   0.000000e+00   0.000000e+00   0.000000e+00   1.833133e+06   0.000000e+00   0.000000e+00   0.000000e+00
     1360000   1.359999e-05   9.858132e+00   4.205234e+01   2.695262e+00   7.175097e+05   1.629604e+06  -4.358266e+05   0.000000e+00   0.000000e+00   0.000000e+00   1.833133e+06   0.000000e+00   0.000000e+00   0.000000e+00
     1368000   1.367999e-05   9.915533e+00   4.218271e+01   2.660396e+00   7.175097e+05   1.629604e+06  -4.358266e+05   0.000000e+00   0.000000e+00   0.000000e+00   1.833133e+06   0.000000e+00   0.000000e+00   0.000000e+00
     1376000   1.375999e-05   9.972934e+00   4.231308e+01   2.625530e+00   7.175097e+05   1.629604e+06  -4.358266e+05   0.000000e+00   0.000000e+00   0.000000e+00   1.833133e+06   0.000000e+00   0.000000e+00   0.000000e+00
     1384000   1.383999e-05   1.003033e+01   4.244345e+01   2.590663e+00   7.175097e+05   1.629604e+06  -4.358266e+05   0.000000e+00   0.000000e+00   0.000000e+00   1.833133e+06   0.000000e+00   0.000000e+00   0.000000e+00
     1392000   1.391999e-05   1.008774e+01   4.257382e+01   2.555797e+00   7.175097e+05   1.629604e+06  -4.358266e+05   0.000000e+00   0.000000e+00   0.000000e+00   1.833133e+06   0.000000e+00   0.000000e+00   0.000000e+00
     1400000   1.399999e-05   1.014514e+01   4.270418e+01   2.520931e+00   7.175097e+05   1.629604e+06  -4.358266e+05   0.000000e+00   0.000000e+00   0.000000e+00   1.833133e+06   0.000000e+00   0.000000e+00   0.000000e+00
     1408000   1.407999e-05   1.020254e+01   4.283455e+01   2.486065e+00   7.175097e+05   1.629604e+06  -4.358266e+05   0.000000e+00   0.000000e+00   0.000000e+00   1.833133e+06   0.000000e+00   0.000000e+00   0.000000e+00
     1416000   1.415999e-05   1.025994e+01   4.296492e+01   2.451199e+00   7.175097e+05   1.629604e+06  -4.358266e+05   0.000000e+00   0.000000e+00   0.000000e+00   1.833133e+06   0.000000e+00   0.000000e+00   0.000000e+00
     1424000   1.423999e-05   1.031734e+01   4.309529e+01   2.416333e+00   7.175097e+05   1.629604e+06  -4.358266e+05   0.000000e+00   0.000000e+00   0.000000e+00   1.833133e+06   0.000000e+00   0.000000e+00   0.000000e+00
     1432000   1.431999e-05   1.037474e+01   4.322566e+01   2.381467e+00   7.175097e+05   1.629604e+06  -4.358266e+05   0.000000e+00   0.000000e+00   0.000000e+00   1.833133e+06   0.000000e+00   0.000000e+00   0.000000e+00
     1440000   1.439999e-05   1.043214e+01   4.335603e+01   2.346601e+00   7.175097e+05   1.629604e+06  -4.358266e+05   0.000000e+00   0.000000e+00   0.000000e+00   1.833133e+06   0.000000e+00   0.000000e+00   0.000000e+00
     1448000   1.447999e-05   1.048954e+01   4.348639e+01   2.311734e+00   7.175097e+05   1.629604e+06  -4.358266e+05   0.000000e+00   0.000000e+00   0.000000e+00   1.833133e+06   0.000000e+00   0.000000e+00   0.000000e+00
     1456000   1.455999e-05   1.054694e+01   4.361676e+01   2.276868e+00   7.175097e+05   1.629604e+06  -4.358266e+05   0.000000e+00   0.000000e+00   0.000000e+00   1.833133e+06   0.000000e+00   0.000000e+00   0.000000e+00
     1464000   1.463999e-05   1.060434e+01   4.374713e+01   2.242002e+00   7.175097e+05   1.629604e+06  -4.358266e+05   0.000000e+00   0.000000e+00   0.000000e+00   1.833133e+06   0.000000e+00   0.000000e+00   0.000000e+00
     1472000   1.471999e-05   1.066174e+01   4.387750e+01   2.207136e+00   7.175097e+05   1.629604e+06  -4.358266e+05   0.000000e+00   0.000000e+00   0.000000e+00   1.833133e+06   0.000000e+00   0.000000e+00   0.000000e+00
     1480000   1.479999e-05   1.071914e+01   4.400787e+01   2.172270e+00   7.175097e+05   1.629604e+06  -4.358266e+05   0.000000e+00   0.000000e+00   0.000000e+00   1.833133e+06   0.000000e+00   0.000000e+00   0.000000e+00
     1488000   1.487999e-05   1.077654e+01   4.413824e+01   2.137404e+00   7.175097e+05   1.629604e+06  -4.358266e+05   0.000000e+00   0.000000e+00   0.000000e+00   1.833133e+06   0.000000e+00   0.000000e+00   0.000000e+00
     1496000   1.495999e-05   1.083395e+01   4.426860e+01   2.102538e+00   7.175097e+05   1.629604e+06  -4.358266e+05   0.000000e+00   0.000000e+00   0.000000e+00   1.833133e+06   0.000000e+00   0.000000e+00   0.000000e+00
     1504000   1.503999e-05   1.089135e+01   4.439897e+01   2.067672e+00   7.175097e+05   1.629604e+06  -4.358266e+05   0.000000e+00   0.000000e+00   0.000000e+00   1.833133e+06   0.000000e+00   0.000000e+00   0.000000e+00
     1512000   1.511999e-05   1.094875e+01   4.452934e+01   2.032805e+00   7.175097e+05   1.629604e+06  -4.358266e+05   0.000000e+00   0.000000e+00   0.000000e+00   1.833133e+06   0.000000e+00   0.000000e+00   0.000000e+00
     1520000   1.519999e-05   1.100615e+01   4.465971e+01   1.997939e+00   7.175097e+05   1.629604e+06  -4.358266e+05   0.000000e+00   0.000000e+00   0.000000e+00   1.833133e+06   0.000000e+00   0.000000e+00   0.000000e+00
     1528000   1.527999e-05   1.106355e+01   4.479008e+01   1.963073e+00   7.175097e+05   1.629604e+06  -4.358266e+05   0.000000e+00   0.000000e+00   0.000000e+00   1.833133e+06   0.000000e+00   0.000000e+00   0.000000e+00
     1536000   1.535999e-05   1.112095e+01   4.492045e+01   1.928207e+00   7.175097e+05   1.629604e+06  -4.358266e+05   0.000000e+00   0.000000e+00   0.000000e+00   1.833133e+06   0.000000e+00   0.000000e+00   0.000000e+00
     1544000   1.543999e-05   1.117835e+01   4.505081e+01   1.893341e+00   7.175097e+05   1.629604e+06  -4.358266e+05   0.000000e+00   0.000000e+00   0.000000e+00   1.833133e+06   0.000000e+00   0.000000e+00   0.000000e+00
     1552000   1.551999e-05   1.123575e+01   4.518118e+01   1.858475e+00   7.175097e+05   1.629604e+06  -4.358266e+05   0.000000e+00   0.000000e+00   0.000000e+00   1.833133e+06   0.000000e+00   0.000000e+00   0.000000e+00
     1560000   1.559999e-05   1.129315e+01   4.531155e+01   1.823609e+00   7.175097e+05   1.629604e+06  -4.358266e+05   0.000000e+00   0.000000e+00   0.000000e+00   1.833133e+06   0.000000e+00   0.000000e+00   0.000000e+00
     1568000   1.567999e-05   1.135055e+01   4.544192e+01   1.788742e+00   7.175097e+05   1.629604e+06  -4.358266e+05   0.000000e+00   0.000000e+00   0.000000e+00   1.833133e+06   0.000000e+00   0.000000e+00   0.000000e+00
     1576000   1.575999e-05   1.140795e+01   4.557229e+01   1.753876e+00   7.175097e+05   1.629604e+06  -4.358266e+05   0.000000e+00   0.000000e+00   0.000000e+00   1.833133e+06   0.000000e+00   0.000000e+00   0.000000e+00
     1584000   1.583999e-05   1.146535e+01   4.570266e+01   1.719010e+00   7.175097e+05   1.629604e+06  -4.358266e+05   0.000000e+00   0.000000e+00   0.000000e+00   1.833133e+06   0.000000e+00   0.000000e+00   0.000000e+00
     1592000   1.591999e-05   1.152275e+01   4.583302e+01   1.684144e+00   7.175097e+05   1.629604e+06  -4.358266e+05   0.000000e+00   0.000000e+00   0.000000e+00   1.833133e+06   0.000000e+00   0.000000e+00   0.000000e+00
     1600000   1.599999e-05   1.158016e+01   4.596339e+01   1.649278e+00   7.175097e+05   1.629604e+06  -4.358266e+05   0.000000e+00   0.000000e+00   0.000000e+00   1.833133e+06   0.000000e+00   0.000000e+00   0.000000e+00
     1608000   1.607999e-05   1.163756e+01   4.609376e+01   1.614412e+00   7.175097e+05   1.629604e+06  -4.358266e+05   0.000000e+00   0.000000e+00   0.000000e+00   1.833133e+06   0.000000e+00   0.000000e+00   0.000000e+00
     1616000   1.615999e-05   1.169496e+01   4.622413e+01   1.579546e+00   7.175097e+05   1.629604e+06  -4.358266e+05   0.000000e+00   0.000000e+00   0.000000e+00   1.833133e+06   0.000000e+00   0.000000e+00   0.000000e+00
     1624000   1.623999e-05   1.175236e+01   4.635450e+01   1.544680e+00   7.175097e+05   1.629604e+06  -4.358266e+05   0.000000e+00   0.000000e+00   0.000000e+00   1.833133e+06   0.000000e+00   0.000000e+00   0.000000e+00
     1632000   1.631999e-05   1.180976e+01   4.648487e+01   1.509813e+00   7.175097e+05   1.629604e+06  -4.358266e+05   0.000000e+00   0.000000e+00   0.000000e+00   1.833133e+06   0.000000e+00   0.000000e+00   0.000000e+00
     1640000   1.639999e-05   1.186716e+01   4.661523e+01   1.474947e+00   7.175097e+05   1.629604e+06  -4.358266e+05   0.000000e+00   0.000000e+00   0.000000e+00   1.833133e+06   0.000000e+00   0.000000e+00   0.000000e+00
     1648000   1.647999e-05   1.192456e+01   4.674560e+01   1.440081e+00   7.175097e+05   1.629604e+06  -4.358266e+05   0.000000e+00   0.000000e+00   0.000000e+00   1.833133e+06   0.000000e+00   0.000000e+00   0.000000e+00
     1656000   1.655999e-05   1.198196e+01   4.687597e+01   1.405215e+00   7.175097e+05   1.629604e+06  -4.358266e+05   0.000000e+00   0.000000e+00   0.000000e+00   1.833133e+06   0.000000e+00   0.000000e+00   0.000000e+00
     1664000   1.663999e-05   1.203936e+01   4.700634e+01   1.370349e+00   7.175097e+05   1.629604e+06  -4.358266e+05   0.000000e+00   0.000000e+00   0.000000e+00   1.833133e+06   0.000000e+00   0.000000e+00   0.000000e+00
     1672000   1.671999e-05   1.209676e+01   4.713671e+01   1.335483e+00   7.175097e+05   1.629604e+06  -4.358266e+05   0.000000e+00   0.000000e+00   0.000000e+00   1.833133e+06   0.000000e+00   0.000000e+00   0.000000e+00
     1680000   1.679999e-05   1.215416e+01   4.726708e+01   1.300617e+00   7.175097e+05   1.629604e+06  -4.358266e+05   0.000000e+00   0.000000e+00   0.000000e+00   1.833133e+06   0.000000e+00   0.000000e+00   0.000000e+00
     1688000   1.687999e-05   1.221156e+01   4.739744e+01   1.265751e+00   7.175097e+05   1.629604e+06  -4.358266e+05   0.000000e+00   0.000000e+00   0.000000e+00   1.833133e+06   0.000000e+00   0.000000e+00   0.000000e+00
     1696000   1.695999e-05   1.226897e+01   4.752781e+01   1.230884e+00   7.175097e+05   1.629604e+06  -4.358266e+05   0.000000e+00   0.000000e+00   0.000000e+00   1.833133e+06   0.000000e+00   0.000000e+00   0.000000e+00
     1704000   1.703999e-05   1.232637e+01   4.765818e+01   1.196018e+00   7.175097e+05   1.629604e+06  -4.358266e+05   0.000000e+00   0.000000e+00   0.000000e+00   1.833133e+06   0.000000e+00   0.000000e+00   0.000000e+00
     1712000   1.711999e-05   1.238377e+01   4.778855e+01   1.161152e+00   7.175097e+05   1.629604e+06  -4.358266e+05   0.000000e+00   0.000000e+00   0.000000e+00   1.833133e+06   0.000000e+00   0.000000e+00   0.000000e+00
     1720000   1.719999e-05   1.244117e+01   4.791892e+01   1.126286e+00   7.175097e+05   1.629604e+06  -4.358266e+05   0.000000e+00   0.000000e+00   0.000000e+00   1.833133e+06   0.000000e+00   0.000000e+00   0.000000e+00
     1728000   1.727999e-05   1.249857e+01   4.804929e+01   1.091420e+00   7.175097e+05   1.629604e+06  -4.358266e+05   0.000000e+00   0.000000e+00   0.000000e+00   1.833133e+06   0.000000e+00   0.000000e+00   0.000000e+00
     1736000   1.735999e-05   1.255597e+01   4.817965e+01   1.056554e+00   7.175097e+05   1.629604e+06  -4.358266e+05   0.000000e+00   0.000000e+00   0.000000e+00   1.833133e+06   0.000000e+00   0.000000e+00   0.000000e+00
     1744000   1.743999e-05   1.261337e+01   4.831002e+01   1.021688e+00   7.175097e+05   1.629604e+06  -4.358266e+05   0.000000e+00   0.000000e+00   0.000000e+00   1.833133e+06   0.000000e+00   0.000000e+00   0.000000e+00
     1752000   1.751999e-05   1.267077e+01   4.844039e+01   9.868215e-01   7.175097e+05   1.629604e+06  -4.358266e+05   0.000000e+00   0.000000e+00   0.000000e+00   1.833133e+06   0.000000e+00   0.000000e+00   0.000000e+00
     1760000   1.759999e-05   1.272817e+01   4.857076e+01   9.519554e-01   7.175097e+05   1.629604e+06  -4.358266e+05   0.000000e+00   0.000000e+00   0.000000e+00   1.833133e+06   0.000000e+00   0.000000e+00   0.000000e+00
     1768000   1.767999e-05   1.278557e+01   4.870113e+01   9.170892e-01   7.175097e+05   1.629604e+06  -4.358266e+05   0.000000e+00   0.000000e+00   0.000000e+00   1.833133e+06   0.000000e+00   0.000000e+00   0.000000e+00
     1776000   1.775999e-05   1.284297e+01   4.883150e+01   8.822231e-01   7.175097e+05   1.629604e+06  -4.358266e+05   0.000000e+00   0.000000e+00   0.000000e+00   1.833133e+06   0.000000e+00   0.000000e+00   0.000000e+00
     1784000   1.783999e-05   1.290037e+01   4.896186e+01   8.473570e-01   7.175097e+05   1.629604e+06  -4.358266e+05   0.000000e+00   0.000000e+00   0.000000e+00   1.833133e+06   0.000000e+00   0.000000e+00   0.000000e+00
     1792000   1.791999e-05   1.295777e+01   4.909223e+01   8.124908e-01   7.175097e+05   1.629604e+06  -4.358266e+05   0.000000e+00   0.000000e+00   0.000000e+00   1.833133e+06   0.000000e+00   0.000000e+00   0.000000e+00
     1800000   1.799999e-05   1.301518e+01   4.922260e+01   7.776247e-01   7.175097e+05   1.629604e+06  -4.358266e+05   0.000000e+00   0.000000e+00   0.000000e+00   1.833133e+06   0.000000e+00   0.000000e+00   0.000000e+00
     1808000   1.807999e-05   1.307258e+01   4.935297e+01   7.427586e-01   7.175097e+05   1.629604e+06  -4.358266e+05   0.000000e+00   0.000000e+00   0.000000e+00   1.833133e+06   0.000000e+00   0.000000e+00   0.000000e+00
     1816000   1.815999e-05   1.312998e+01   4.948334e+01   7.078924e-01   7.175097e+05   1.629604e+06  -4.358266e+05   0.000000e+00   0.000000e+00   0.000000e+00   1.833133e+06   0.000000e+00   0.000000e+00   0.000000e+00
     1824000   1.823999e-05   1.318738e+01   4.961371e+01   6.730263e-01   7.175097e+05   1.629604e+06  -4.358266e+05   0.000000e+00   0.000000e+00   0.000000e+00   1.833133e+06   0.000000e+00   0.000000e+00   0.000000e+00
     1832000   1.831999e-05   1.324478e+01   4.974407e+01   6.381602e-01   7.175097e+05   1.629604e+06  -4.358266e+05   0.000000e+00   0.000000e+00   0.000000e+00   1.833133e+06   0.000000e+00   0.000000e+00   0.000000e+00
     1840000   1.839999e-05   1.330218e+01   4.987444e+01   6.032941e-01   7.175097e+05   1.629604e+06  -4.358266e+05   0.000000e+00   0.000000e+00   0.000000e+00   1.833133e+06   0.000000e+00   0.000000e+00   0.000000e+00
