     timestep     time              x             y              z              vx             vy             vz             ax             ay             az         v_magnitude      ELoss        Electronic      Nuclear
           0   0.000000e+00   1.000000e-01   1.001446e+01   1.084399e+01   2.103999e+06  -2.083979e+05  -3.298961e+04   0.000000e+00   0.000000e+00   0.000000e+00   2.114552e+06   0.000000e+00   0.000000e+00   0.000000e+00
        8000   7.999000e-08   2.683199e-01   9.997786e+00   1.084135e+01   2.103999e+06  -2.083979e+05  -3.298961e+04   0.000000e+00   0.000000e+00   0.000000e+00   2.114552e+06   0.000000e+00   0.000000e+00   0.000000e+00
       16000   1.599900e-07   4.366398e-01   9.981114e+00   1.083871e+01   2.103999e+06  -2.083979e+05  -3.298961e+04   0.000000e+00   0.000000e+00   0.000000e+00   2.114552e+06   0.000000e+00   0.000000e+00   0.000000e+00
       24000   2.399900e-07   6.049597e-01   9.964443e+00   1.083607e+01   2.103999e+06  -2.083979e+05  -3.298961e+04   0.000000e+00   0.000000e+00   0.000000e+00   2.114552e+06   0.000000e+00   0.000000e+00   0.000000e+00
       32000   3.199900e-07   7.732797e-01   9.947771e+00   1.083343e+01   2.103999e+06  -2.083979e+05  -3.298961e+04   0.000000e+00   0.000000e+00   0.000000e+00   2.114552e+06   0.000000e+00   0.000000e+00   0.000000e+00
       40000   3.999900e-07   9.415996e-01   9.931099e+00   1.083079e+01   2.103999e+06  -2.083979e+05  -3.298961e+04   0.000000e+00   0.000000e+00   0.000000e+00   2.114552e+06   0.000000e+00   0.000000e+00   0.000000e+00
       48000   4.799900e-07   1.109919e+00   9.914427e+00   1.082815e+01   2.103999e+06  -2.083979e+05  -3.298961e+04   0.000000e+00   0.000000e+00   0.000000e+00   2.114552e+06   0.000000e+00   0.000000e+00   0.000000e+00
       56000   5.599900e-07   1.278239e+00   9.897755e+00   1.082551e+01   2.103999e+06  -2.083979e+05  -3.298961e+04   0.000000e+00   0.000000e+00   0.000000e+00   2.114552e+06   0.000000e+00   0.000000e+00   0.000000e+00
       64000   6.399900e-07   1.446559e+00   9.881083e+00   1.082287e+01   2.103999e+06  -2.083979e+05  -3.298961e+04   0.000000e+00   0.000000e+00   0.000000e+00   2.114552e+06   0.000000e+00   0.000000e+00   0.000000e+00
       72000   7.199900e-07   1.614879e+00   9.864412e+00   1.082024e+01   2.103999e+06  -2.083979e+05  -3.298961e+04   0.000000e+00   0.000000e+00   0.000000e+00   2.114552e+06   0.000000e+00   0.000000e+00   0.000000e+00
       80000   7.999900e-07   1.783199e+00   9.847740e+00   1.081760e+01   2.103999e+06  -2.083979e+05  -3.298961e+04   0.000000e+00   0.000000e+00   0.000000e+00   2.114552e+06   0.000000e+00   0.000000e+00   0.000000e+00
       88000   8.799900e-07   1.951519e+00   9.831068e+00   1.081496e+01   2.103999e+06  -2.083979e+05  -3.298961e+04   0.000000e+00   0.000000e+00   0.000000e+00   2.114552e+06   0.000000e+00   0.000000e+00   0.000000e+00
       96000   9.599900e-07   2.119839e+00   9.814396e+00   1.081232e+01   2.103999e+06  -2.083979e+05  -3.298961e+04   0.000000e+00   0.000000e+00   0.000000e+00   2.114552e+06   0.000000e+00   0.000000e+00   0.000000e+00
      104000   1.039990e-06   2.288159e+00   9.797724e+00   1.080968e+01   2.103999e+06  -2.083979e+05  -3.298961e+04   0.000000e+00   0.000000e+00   0.000000e+00   2.114552e+06   0.000000e+00   0.000000e+00   0.000000e+00
      112000   1.119990e-06   2.456479e+00   9.781052e+00   1.080704e+01   2.103999e+06  -2.083979e+05  -3.298961e+04   0.000000e+00   0.000000e+00   0.000000e+00   2.114552e+06   0.000000e+00   0.000000e+00   0.000000e+00
      120000   1.199990e-06   2.624799e+00   9.764381e+00   1.080440e+01   2.103999e+06  -2.083979e+05  -3.298961e+04   0.000000e+00   0.000000e+00   0.000000e+00   2.114552e+06   0.000000e+00   0.000000e+00   0.000000e+00
      128000   1.279990e-06   2.793119e+00   9.747709e+00   1.080176e+01   2.103999e+06  -2.083979e+05  -3.298961e+04   0.000000e+00   0.000000e+00   0.000000e+00   2.114552e+06   0.000000e+00   0.000000e+00   0.000000e+00
      136000   1.359990e-06   2.961439e+00   9.731037e+00   1.079912e+01   2.103999e+06  -2.083979e+05  -3.298961e+04   0.000000e+00   0.000000e+00   0.000000e+00   2.114552e+06   0.000000e+00   0.000000e+00   0.000000e+00
      144000   1.439990e-06   3.129758e+00   9.714365e+00   1.079648e+01   2.103999e+06  -2.083979e+05  -3.298961e+04   0.000000e+00   0.000000e+00   0.000000e+00   2.114552e+06   0.000000e+00   0.000000e+00   0.000000e+00
      152000   1.519990e-06   3.298078e+00   9.697693e+00   1.079384e+01   2.103999e+06  -2.083979e+05  -3.298961e+04   0.000000e+00   0.000000e+00   0.000000e+00   2.114552e+06   0.000000e+00   0.000000e+00   0.000000e+00
      160000   1.599990e-06   3.466398e+00   9.681021e+00   1.079120e+01   2.103999e+06  -2.083979e+05  -3.298961e+04   0.000000e+00   0.000000e+00   0.000000e+00   2.114552e+06   0.000000e+00   0.000000e+00   0.000000e+00
      168000   1.679990e-06   3.634718e+00   9.664350e+00   1.078857e+01   2.103999e+06  -2.083979e+05  -3.298961e+04   0.000000e+00   0.000000e+00   0.000000e+00   2.114552e+06   0.000000e+00   0.000000e+00   0.000000e+00
      176000   1.759990e-06   3.803038e+00   9.647678e+00   1.078593e+01   2.103999e+06  -2.083979e+05  -3.298961e+04   0.000000e+00   0.000000e+00   0.000000e+00   2.114552e+06   0.000000e+00   0.000000e+00   0.000000e+00
      184000   1.839990e-06   3.971358e+00   9.631006e+00   1.078329e+01   2.103999e+06  -2.083979e+05  -3.298961e+04   0.000000e+00   0.000000e+00   0.000000e+00   2.114552e+06   0.000000e+00   0.000000e+00   0.000000e+00
      192000   1.919990e-06   4.139678e+00   9.614334e+00   1.078065e+01   2.103999e+06  -2.083979e+05  -3.298961e+04   0.000000e+00   0.000000e+00   0.000000e+00   2.114552e+06   0.000000e+00   0.000000e+00   0.000000e+00
      200000   1.999990e-06   4.307998e+00   9.597662e+00   1.077801e+01   2.103999e+06  -2.083979e+05  -3.298961e+04   0.000000e+00   0.000000e+00   0.000000e+00   2.114552e+06   0.000000e+00   0.000000e+00   0.000000e+00
      208000   2.079990e-06   4.476318e+00   9.580990e+00   1.077537e+01   2.103999e+06  -2.083979e+05  -3.298961e+04   0.000000e+00   0.000000e+00   0.000000e+00   2.114552e+06   0.000000e+00   0.000000e+00   0.000000e+00
      216000   2.159990e-06   4.644638e+00   9.564319e+00   1.077273e+01   2.103999e+06  -2.083979e+05  -3.298961e+04   0.000000e+00   0.000000e+00   0.000000e+00   2.114552e+06   0.000000e+00   0.000000e+00   0.000000e+00
      224000   2.239990e-06   4.812958e+00   9.547647e+00   1.077009e+01   2.103999e+06  -2.083979e+05  -3.298961e+04   0.000000e+00   0.000000e+00   0.000000e+00   2.114552e+06   0.000000e+00   0.000000e+00   0.000000e+00
      232000   2.319990e-06   4.981278e+00   9.530975e+00   1.076745e+01   2.103999e+06  -2.083979e+05  -3.298961e+04   0.000000e+00   0.000000e+00   0.000000e+00   2.114552e+06   0.000000e+00   0.000000e+00   0.000000e+00
      240000   2.399990e-06   5.149597e+00   9.514303e+00   1.076481e+01   2.103999e+06  -2.083979e+05  -3.298961e+04   0.000000e+00   0.000000e+00   0.000000e+00   2.114552e+06   0.000000e+00   0.000000e+00   0.000000e+00
      248000   2.479990e-06   5.317917e+00   9.497631e+00   1.076217e+01   2.103999e+06  -2.083979e+05  -3.298961e+04   0.000000e+00   0.000000e+00   0.000000e+00   2.114552e+06   0.000000e+00   0.000000e+00   0.000000e+00
      256000   2.559990e-06   5.486237e+00   9.480959e+00   1.075953e+01   2.103999e+06  -2.083979e+05  -3.298961e+04   0.000000e+00   0.000000e+00   0.000000e+00   2.114552e+06   0.000000e+00   0.000000e+00   0.000000e+00
      264000   2.639990e-06   5.654557e+00   9.464288e+00   1.075690e+01   2.103999e+06  -2.083979e+05  -3.298961e+04   0.000000e+00   0.000000e+00   0.000000e+00   2.114552e+06   0.000000e+00   0.000000e+00   0.000000e+00
      272000   2.719990e-06   5.822877e+00   9.447616e+00   1.075426e+01   2.103999e+06  -2.083979e+05  -3.298961e+04   0.000000e+00   0.000000e+00   0.000000e+00   2.114552e+06   0.000000e+00   0.000000e+00   0.000000e+00
      280000   2.799990e-06   5.991197e+00   9.430944e+00   1.075162e+01   2.103999e+06  -2.083979e+05  -3.298961e+04   0.000000e+00   0.000000e+00   0.000000e+00   2.114552e+06   0.000000e+00   0.000000e+00   0.000000e+00
      288000   2.879990e-06   6.159517e+00   9.414272e+00   1.074898e+01   2.103999e+06  -2.083979e+05  -3.298961e+04   0.000000e+00   0.000000e+00   0.000000e+00   2.114552e+06   0.000000e+00   0.000000e+00   0.000000e+00
      296000   2.959990e-06   6.327837e+00   9.397600e+00   1.074634e+01   2.103999e+06  -2.083979e+05  -3.298961e+04   0.000000e+00   0.000000e+00   0.000000e+00   2.114552e+06   0.000000e+00   0.000000e+00   0.000000e+00
      304000   3.039990e-06   6.496157e+00   9.380928e+00   1.074370e+01   2.103999e+06  -2.083979e+05  -3.298961e+04   0.000000e+00   0.000000e+00   0.000000e+00   2.114552e+06   0.000000e+00   0.000000e+00   0.000000e+00
      312000   3.119990e-06   6.664477e+00   9.364257e+00   1.074106e+01   2.103999e+06  -2.083979e+05  -3.298961e+04   0.000000e+00   0.000000e+00   0.000000e+00   2.114552e+06   0.000000e+00   0.000000e+00   0.000000e+00
      320000   3.199990e-06   6.832797e+00   9.347585e+00   1.073842e+01   2.103999e+06  -2.083979e+05  -3.298961e+04   0.000000e+00   0.000000e+00   0.000000e+00   2.114552e+06   0.000000e+00   0.000000e+00   0.000000e+00
      328000   3.279990e-06   7.001116e+00   9.330913e+00   1.073578e+01   2.103999e+06  -2.083979e+05  -3.298961e+04   0.000000e+00   0.000000e+00   0.000000e+00   2.114552e+06   0.000000e+00   0.000000e+00   0.000000e+00
      336000   3.359990e-06   7.169436e+00   9.314241e+00   1.073314e+01   2.103999e+06  -2.083979e+05  -3.298961e+04   0.000000e+00   0.000000e+00   0.000000e+00   2.114552e+06   0.000000e+00   0.000000e+00   0.000000e+00
      344000   3.439990e-06   7.337756e+00   9.297569e+00   1.073050e+01   2.103999e+06  -2.083979e+05  -3.298961e+04   0.000000e+00   0.000000e+00   0.000000e+00   2.114552e+06   0.000000e+00   0.000000e+00   0.000000e+00
      352000   3.519990e-06   7.506076e+00   9.280897e+00   1.072786e+01   2.103999e+06  -2.083979e+05  -3.298961e+04   0.000000e+00   0.000000e+00   0.000000e+00   2.114552e+06   0.000000e+00   0.000000e+00   0.000000e+00
      360000   3.599990e-06   7.674396e+00   9.264226e+00   1.072523e+01   2.103999e+06  -2.083979e+05  -3.298961e+04   0.000000e+00   0.000000e+00   0.000000e+00   2.114552e+06   0.000000e+00   0.000000e+00   0.000000e+00
      368000   3.679990e-06   7.842716e+00   9.247554e+00   1.072259e+01   2.103999e+06  -2.083979e+05  -3.298961e+04   0.000000e+00   0.000000e+00   0.000000e+00   2.114552e+06   0.000000e+00   0.000000e+00   0.000000e+00
      376000   3.759990e-06   8.011036e+00   9.230882e+00   1.071995e+01   2.103999e+06  -2.083979e+05  -3.298961e+04   0.000000e+00   0.000000e+00   0.000000e+00   2.114552e+06   0.000000e+00   0.000000e+00   0.000000e+00
      384000   3.839990e-06   8.179356e+00   9.214210e+00   1.071731e+01   2.103999e+06  -2.083979e+05  -3.298961e+04   0.000000e+00   0.000000e+00   0.000000e+00   2.114552e+06   0.000000e+00   0.000000e+00   0.000000e+00
      392000   3.919990e-06   8.347676e+00   9.197538e+00   1.071467e+01   2.103999e+06  -2.083979e+05  -3.298961e+04   0.000000e+00   0.000000e+00   0.000000e+00   2.114552e+06   0.000000e+00   0.000000e+00   0.000000e+00
      400000   3.999990e-06   8.515996e+00   9.180866e+00   1.071203e+01   2.103999e+06  -2.083979e+05  -3.298961e+04   0.000000e+00   0.000000e+00   0.000000e+00   2.114552e+06   0.000000e+00   0.000000e+00   0.000000e+00
      408000   4.079990e-06   8.684316e+00   9.164195e+00   1.070939e+01   2.103999e+06  -2.083979e+05  -3.298961e+04   0.000000e+00   0.000000e+00   0.000000e+00   2.114552e+06   0.000000e+00   0.000000e+00   0.000000e+00
      416000   4.159990e-06   8.852636e+00   9.147523e+00   1.070675e+01   2.103999e+06  -2.083979e+05  -3.298961e+04   0.000000e+00   0.000000e+00   0.000000e+00   2.114552e+06   0.000000e+00   0.000000e+00   0.000000e+00
      424000   4.239990e-06   9.020955e+00   9.130851e+00   1.070411e+01   2.103999e+06  -2.083979e+05  -3.298961e+04   0.000000e+00   0.000000e+00   0.000000e+00   2.114552e+06   0.000000e+00   0.000000e+00   0.000000e+00
      432000   4.319990e-06   9.189275e+00   9.114179e+00   1.070147e+01   2.103999e+06  -2.083979e+05  -3.298961e+04   0.000000e+00   0.000000e+00   0.000000e+00   2.114552e+06   0.000000e+00   0.000000e+00   0.000000e+00
      440000   4.399990e-06   9.357595e+00   9.097507e+00   1.069883e+01   2.103999e+06  -2.083979e+05  -3.298961e+04   0.000000e+00   0.000000e+00   0.000000e+00   2.114552e+06   0.000000e+00   0.000000e+00   0.000000e+00
      448000   4.479990e-06   9.525915e+00   9.080835e+00   1.069619e+01   2.103999e+06  -2.083979e+05  -3.298961e+04   0.000000e+00   0.000000e+00   0.000000e+00   2.114552e+06   0.000000e+00   0.000000e+00   0.000000e+00
      456000   4.559990e-06   9.694235e+00   9.064164e+00   1.069356e+01   2.103999e+06  -2.083979e+05  -3.298961e+04   0.000000e+00   0.000000e+00   0.000000e+00   2.114552e+06   0.000000e+00   0.000000e+00   0.000000e+00
      464000   4.639990e-06   9.862555e+00   9.047492e+00   1.069092e+01   2.103999e+06  -2.083979e+05  -3.298961e+04   0.000000e+00   0.000000e+00   0.000000e+00   2.114552e+06   0.000000e+00   0.000000e+00   0.000000e+00
      472000   4.719990e-06   1.003087e+01   9.030820e+00   1.068828e+01   2.103999e+06  -2.083979e+05  -3.298961e+04   0.000000e+00   0.000000e+00   0.000000e+00   2.114552e+06   0.000000e+00   0.000000e+00   0.000000e+00
      480000   4.799990e-06   1.019919e+01   9.014148e+00   1.068564e+01   2.103999e+06  -2.083979e+05  -3.298961e+04   0.000000e+00   0.000000e+00   0.000000e+00   2.114552e+06   0.000000e+00   0.000000e+00   0.000000e+00
      488000   4.879990e-06   1.036751e+01   8.997476e+00   1.068300e+01   2.103999e+06  -2.083979e+05  -3.298961e+04   0.000000e+00   0.000000e+00   0.000000e+00   2.114552e+06   0.000000e+00   0.000000e+00   0.000000e+00
      496000   4.959990e-06   1.053583e+01   8.980804e+00   1.068036e+01   2.103999e+06  -2.083979e+05  -3.298961e+04   0.000000e+00   0.000000e+00   0.000000e+00   2.114552e+06   0.000000e+00   0.000000e+00   0.000000e+00
      504000   5.039990e-06   1.070415e+01   8.964133e+00   1.067772e+01   2.103999e+06  -2.083979e+05  -3.298961e+04   0.000000e+00   0.000000e+00   0.000000e+00   2.114552e+06   0.000000e+00   0.000000e+00   0.000000e+00
      512000   5.119990e-06   1.087247e+01   8.947461e+00   1.067508e+01   2.103999e+06  -2.083979e+05  -3.298961e+04   0.000000e+00   0.000000e+00   0.000000e+00   2.114552e+06   0.000000e+00   0.000000e+00   0.000000e+00
      520000   5.199990e-06   1.104079e+01   8.930789e+00   1.067244e+01   2.103999e+06  -2.083979e+05  -3.298961e+04   0.000000e+00   0.000000e+00   0.000000e+00   2.114552e+06   0.000000e+00   0.000000e+00   0.000000e+00
      528000   5.279990e-06   1.120911e+01   8.914117e+00   1.066980e+01   2.103999e+06  -2.083979e+05  -3.298961e+04   0.000000e+00   0.000000e+00   0.000000e+00   2.114552e+06   0.000000e+00   0.000000e+00   0.000000e+00
      536000   5.359990e-06   1.137743e+01   8.897445e+00   1.066716e+01   2.103999e+06  -2.083979e+05  -3.298961e+04   0.000000e+00   0.000000e+00   0.000000e+00   2.114552e+06   0.000000e+00   0.000000e+00   0.000000e+00
      544000   5.439990e-06   1.154575e+01   8.880773e+00   1.066452e+01   2.103999e+06  -2.083979e+05  -3.298961e+04   0.000000e+00   0.000000e+00   0.000000e+00   2.114552e+06   0.000000e+00   0.000000e+00   0.000000e+00
      552000   5.519990e-06   1.171407e+01   8.864102e+00   1.066189e+01   2.103999e+06  -2.083979e+05  -3.298961e+04   0.000000e+00   0.000000e+00   0.000000e+00   2.114552e+06   0.000000e+00   0.000000e+00   0.000000e+00
      560000   5.599990e-06   1.188239e+01   8.847430e+00   1.065925e+01   2.103999e+06  -2.083979e+05  -3.298961e+04   0.000000e+00   0.000000e+00   0.000000e+00   2.114552e+06   0.000000e+00   0.000000e+00   0.000000e+00
      568000   5.679990e-06   1.205071e+01   8.830758e+00   1.065661e+01   2.103999e+06  -2.083979e+05  -3.298961e+04   0.000000e+00   0.000000e+00   0.000000e+00   2.114552e+06   0.000000e+00   0.000000e+00   0.000000e+00
      576000   5.759990e-06   1.221903e+01   8.814086e+00   1.065397e+01   2.103999e+06  -2.083979e+05  -3.298961e+04   0.000000e+00   0.000000e+00   0.000000e+00   2.114552e+06   0.000000e+00   0.000000e+00   0.000000e+00
      584000   5.839990e-06   1.238735e+01   8.797414e+00   1.065133e+01   2.103999e+06  -2.083979e+05  -3.298961e+04   0.000000e+00   0.000000e+00   0.000000e+00   2.114552e+06   0.000000e+00   0.000000e+00   0.000000e+00
      592000   5.919990e-06   1.255567e+01   8.780742e+00   1.064869e+01   2.103999e+06  -2.083979e+05  -3.298961e+04   0.000000e+00   0.000000e+00   0.000000e+00   2.114552e+06   0.000000e+00   0.000000e+00   0.000000e+00
      600000   5.999990e-06   1.272399e+01   8.764071e+00   1.064605e+01   2.103999e+06  -2.083979e+05  -3.298961e+04   0.000000e+00   0.000000e+00   0.000000e+00   2.114552e+06   0.000000e+00   0.000000e+00   0.000000e+00
      608000   6.079990e-06   1.289231e+01   8.747399e+00   1.064341e+01   2.103999e+06  -2.083979e+05  -3.298961e+04   0.000000e+00   0.000000e+00   0.000000e+00   2.114552e+06   0.000000e+00   0.000000e+00   0.000000e+00
      616000   6.159990e-06   1.306063e+01   8.730727e+00   1.064077e+01   2.103999e+06  -2.083979e+05  -3.298961e+04   0.000000e+00   0.000000e+00   0.000000e+00   2.114552e+06   0.000000e+00   0.000000e+00   0.000000e+00
      624000   6.239990e-06   1.322895e+01   8.714055e+00   1.063813e+01   2.103999e+06  -2.083979e+05  -3.298961e+04   0.000000e+00   0.000000e+00   0.000000e+00   2.114552e+06   0.000000e+00   0.000000e+00   0.000000e+00
      632000   6.319990e-06   1.339727e+01   8.697383e+00   1.063549e+01   2.103999e+06  -2.083979e+05  -3.298961e+04   0.000000e+00   0.000000e+00   0.000000e+00   2.114552e+06   0.000000e+00   0.000000e+00   0.000000e+00
      640000   6.399990e-06   1.356559e+01   8.680711e+00   1.063285e+01   2.103999e+06  -2.083979e+05  -3.298961e+04   0.000000e+00   0.000000e+00   0.000000e+00   2.114552e+06   0.000000e+00   0.000000e+00   0.000000e+00
      648000   6.479990e-06   1.373391e+01   8.664040e+00   1.063022e+01   2.103999e+06  -2.083979e+05  -3.298961e+04   0.000000e+00   0.000000e+00   0.000000e+00   2.114552e+06   0.000000e+00   0.000000e+00   0.000000e+00
      656000   6.559990e-06   1.390223e+01   8.647368e+00   1.062758e+01   2.103999e+06  -2.083979e+05  -3.298961e+04   0.000000e+00   0.000000e+00   0.000000e+00   2.114552e+06   0.000000e+00   0.000000e+00   0.000000e+00
      664000   6.639990e-06   1.407055e+01   8.630696e+00   1.062494e+01   2.103999e+06  -2.083979e+05  -3.298961e+04   0.000000e+00   0.000000e+00   0.000000e+00   2.114552e+06   0.000000e+00   0.000000e+00   0.000000e+00
      672000   6.719990e-06   1.423887e+01   8.614024e+00   1.062230e+01   2.103999e+06  -2.083979e+05  -3.298961e+04   0.000000e+00   0.000000e+00   0.000000e+00   2.114552e+06   0.000000e+00   0.000000e+00   0.000000e+00
      680000   6.799990e-06   1.440719e+01   8.597352e+00   1.061966e+01   2.103999e+06  -2.083979e+05  -3.298961e+04   0.000000e+00   0.000000e+00   0.000000e+00   2.114552e+06   0.000000e+00   0.000000e+00   0.000000e+00
      688000   6.879990e-06   1.457551e+01   8.580680e+00   1.061702e+01   2.103999e+06  -2.083979e+05  -3.298961e+04   0.000000e+00   0.000000e+00   0.000000e+00   2.114552e+06   0.000000e+00   0.000000e+00   0.000000e+00
      696000   6.959990e-06   1.474383e+01   8.564009e+00   1.061438e+01   2.103999e+06  -2.083979e+05  -3.298961e+04   0.000000e+00   0.000000e+00   0.000000e+00   2.114552e+06   0.000000e+00   0.000000e+00   0.000000e+00
      704000   7.039990e-06   1.491215e+01   8.547337e+00   1.061174e+01   2.103999e+06  -2.083979e+05  -3.298961e+04   0.000000e+00   0.000000e+00   0.000000e+00   2.114552e+06   0.000000e+00   0.000000e+00   0.000000e+00
      712000   7.119990e-06   1.508047e+01   8.530665e+00   1.060910e+01   2.103999e+06  -2.083979e+05  -3.298961e+04   0.000000e+00   0.000000e+00   0.000000e+00   2.114552e+06   0.000000e+00   0.000000e+00   0.000000e+00
      720000   7.199990e-06   1.524879e+01   8.513993e+00   1.060646e+01   2.103999e+06  -2.083979e+05  -3.298961e+04   0.000000e+00   0.000000e+00   0.000000e+00   2.114552e+06   0.000000e+00   0.000000e+00   0.000000e+00
      728000   7.279990e-06   1.541711e+01   8.497321e+00   1.060382e+01   2.103999e+06  -2.083979e+05  -3.298961e+04   0.000000e+00   0.000000e+00   0.000000e+00   2.114552e+06   0.000000e+00   0.000000e+00   0.000000e+00
      736000   7.359990e-06   1.558543e+01   8.480649e+00   1.060118e+01   2.103999e+06  -2.083979e+05  -3.298961e+04   0.000000e+00   0.000000e+00   0.000000e+00   2.114552e+06   0.000000e+00   0.000000e+00   0.000000e+00
      744000   7.439990e-06   1.575375e+01   8.463978e+00   1.059855e+01   2.103999e+06  -2.083979e+05  -3.298961e+04   0.000000e+00   0.000000e+00   0.000000e+00   2.114552e+06   0.000000e+00   0.000000e+00   0.000000e+00
      752000   7.519990e-06   1.592207e+01   8.447306e+00   1.059591e+01   2.103999e+06  -2.083979e+05  -3.298961e+04   0.000000e+00   0.000000e+00   0.000000e+00   2.114552e+06   0.000000e+00   0.000000e+00   0.000000e+00
      760000   7.599990e-06   1.609039e+01   8.430634e+00   1.059327e+01   2.103999e+06  -2.083979e+05  -3.298961e+04   0.000000e+00   0.000000e+00   0.000000e+00   2.114552e+06   0.000000e+00   0.000000e+00   0.000000e+00
      768000   7.679990e-06   1.625871e+01   8.413962e+00   1.059063e+01   2.103999e+06  -2.083979e+05  -3.298961e+04   0.000000e+00   0.000000e+00   0.000000e+00   2.114552e+06   0.000000e+00   0.000000e+00   0.000000e+00
      776000   7.759990e-06   1.642703e+01   8.397290e+00   1.058799e+01   2.103999e+06  -2.083979e+05  -3.298961e+04   0.000000e+00   0.000000e+00   0.000000e+00   2.114552e+06   0.000000e+00   0.000000e+00   0.000000e+00
      784000   7.839990e-06   1.659535e+01   8.380618e+00   1.058535e+01   2.103999e+06  -2.083979e+05  -3.298961e+04   0.000000e+00   0.000000e+00   0.000000e+00   2.114552e+06   0.000000e+00   0.000000e+00   0.000000e+00
      792000   7.919990e-06   1.676367e+01   8.363947e+00   1.058271e+01   2.103999e+06  -2.083979e+05  -3.298961e+04   0.000000e+00   0.000000e+00   0.000000e+00   2.114552e+06   0.000000e+00   0.000000e+00   0.000000e+00
      800000   7.999990e-06   1.693199e+01   8.347275e+00   1.058007e+01   2.103999e+06  -2.083979e+05  -3.298961e+04   0.000000e+00   0.000000e+00   0.000000e+00   2.114552e+06   0.000000e+00   0.000000e+00   0.000000e+00
      808000   8.079990e-06   1.710031e+01   8.330603e+00   1.057743e+01   2.103999e+06  -2.083979e+05  -3.298961e+04   0.000000e+00   0.000000e+00   0.000000e+00   2.114552e+06   0.000000e+00   0.000000e+00   0.000000e+00
      816000   8.159990e-06   1.726863e+01   8.313931e+00   1.057479e+01   2.103999e+06  -2.083979e+05  -3.298961e+04   0.000000e+00   0.000000e+00   0.000000e+00   2.114552e+06   0.000000e+00   0.000000e+00   0.000000e+00
      824000   8.239990e-06   1.743695e+01   8.297259e+00   1.057215e+01   2.103999e+06  -2.083979e+05  -3.298961e+04   0.000000e+00   0.000000e+00   0.000000e+00   2.114552e+06   0.000000e+00   0.000000e+00   0.000000e+00
      832000   8.319990e-06   1.760527e+01   8.280587e+00   1.056951e+01   2.103999e+06  -2.083979e+05  -3.298961e+04   0.000000e+00   0.000000e+00   0.000000e+00   2.114552e+06   0.000000e+00   0.000000e+00   0.000000e+00
      840000   8.399990e-06   1.777359e+01   8.263916e+00   1.056688e+01   2.103999e+06  -2.083979e+05  -3.298961e+04   0.000000e+00   0.000000e+00   0.000000e+00   2.114552e+06   0.000000e+00   0.000000e+00   0.000000e+00
      848000   8.479990e-06   1.794191e+01   8.247244e+00   1.056424e+01   2.103999e+06  -2.083979e+05  -3.298961e+04   0.000000e+00   0.000000e+00   0.000000e+00   2.114552e+06   0.000000e+00   0.000000e+00   0.000000e+00
      856000   8.559990e-06   1.811023e+01   8.230572e+00   1.056160e+01   2.103999e+06  -2.083979e+05  -3.298961e+04   0.000000e+00   0.000000e+00   0.000000e+00   2.114552e+06   0.000000e+00   0.000000e+00   0.000000e+00
      864000   8.639990e-06   1.827855e+01   8.213900e+00   1.055896e+01   2.103999e+06  -2.083979e+05  -3.298961e+04   0.000000e+00   0.000000e+00   0.000000e+00   2.114552e+06   0.000000e+00   0.000000e+00   0.000000e+00
      872000   8.719990e-06   1.844687e+01   8.197228e+00   1.055632e+01   2.103999e+06  -2.083979e+05  -3.298961e+04   0.000000e+00   0.000000e+00   0.000000e+00   2.114552e+06   0.000000e+00   0.000000e+00   0.000000e+00
      880000   8.799990e-06   1.861519e+01   8.180556e+00   1.055368e+01   2.103999e+06  -2.083979e+05  -3.298961e+04   0.000000e+00   0.000000e+00   0.000000e+00   2.114552e+06   0.000000e+00   0.000000e+00   0.000000e+00
      888000   8.879990e-06   1.878351e+01   8.163885e+00   1.055104e+01   2.103999e+06  -2.083979e+05  -3.298961e+04   0.000000e+00   0.000000e+00   0.000000e+00   2.114552e+06   0.000000e+00   0.000000e+00   0.000000e+00
      896000   8.959990e-06   1.895183e+01   8.147213e+00   1.054840e+01   2.103999e+06  -2.083979e+05  -3.298961e+04   0.000000e+00   0.000000e+00   0.000000e+00   2.114552e+06   0.000000e+00   0.000000e+00   0.000000e+00
      904000   9.039990e-06   1.912015e+01   8.130541e+00   1.054576e+01   2.103999e+06  -2.083979e+05  -3.298961e+04   0.000000e+00   0.000000e+00   0.000000e+00   2.114552e+06   0.000000e+00   0.000000e+00   0.000000e+00
      912000   9.119990e-06   1.928847e+01   8.113869e+00   1.054312e+01   2.103999e+06  -2.083979e+05  -3.298961e+04   0.000000e+00   0.000000e+00   0.000000e+00   2.114552e+06   0.000000e+00   0.000000e+00   0.000000e+00
      920000   9.199990e-06   1.945679e+01   8.097197e+00   1.054048e+01   2.103999e+06  -2.083979e+05  -3.298961e+04   0.000000e+00   0.000000e+00   0.000000e+00   2.114552e+06   0.000000e+00   0.000000e+00   0.000000e+00
      928000   9.279990e-06   1.962511e+01   8.080525e+00   1.053784e+01   2.103999e+06  -2.083979e+05  -3.298961e+04   0.000000e+00   0.000000e+00   0.000000e+00   2.114552e+06   0.000000e+00   0.000000e+00   0.000000e+00
      936000   9.359990e-06   1.979343e+01   8.063854e+00   1.053521e+01   2.103999e+06  -2.083979e+05  -3.298961e+04   0.000000e+00   0.000000e+00   0.000000e+00   2.114552e+06   0.000000e+00   0.000000e+00   0.000000e+00
      944000   9.439990e-06   1.996175e+01   8.047182e+00   1.053257e+01   2.103999e+06  -2.083979e+05  -3.298961e+04   0.000000e+00   0.000000e+00   0.000000e+00   2.114552e+06   0.000000e+00   0.000000e+00   0.000000e+00
      952000   9.519990e-06   2.013007e+01   8.030510e+00   1.052993e+01   2.103999e+06  -2.083979e+05  -3.298961e+04   0.000000e+00   0.000000e+00   0.000000e+00   2.114552e+06   0.000000e+00   0.000000e+00   0.000000e+00
      960000   9.599990e-06   2.029839e+01   8.013838e+00   1.052729e+01   2.103999e+06  -2.083979e+05  -3.298961e+04   0.000000e+00   0.000000e+00   0.000000e+00   2.114552e+06   0.000000e+00   0.000000e+00   0.000000e+00
      968000   9.679990e-06   2.046671e+01   7.997166e+00   1.052465e+01   2.103999e+06  -2.083979e+05  -3.298961e+04   0.000000e+00   0.000000e+00   0.000000e+00   2.114552e+06   0.000000e+00   0.000000e+00   0.000000e+00
      976000   9.759990e-06   2.063503e+01   7.980494e+00   1.052201e+01   2.103999e+06  -2.083979e+05  -3.298961e+04   0.000000e+00   0.000000e+00   0.000000e+00   2.114552e+06   0.000000e+00   0.000000e+00   0.000000e+00
      984000   9.839990e-06   2.080335e+01   7.963823e+00   1.051937e+01   2.103999e+06  -2.083979e+05  -3.298961e+04   0.000000e+00   0.000000e+00   0.000000e+00   2.114552e+06   0.000000e+00   0.000000e+00   0.000000e+00
      992000   9.919990e-06   2.097167e+01   7.947151e+00   1.051673e+01   2.103999e+06  -2.083979e+05  -3.298961e+04   0.000000e+00   0.000000e+00   0.000000e+00   2.114552e+06   0.000000e+00   0.000000e+00   0.000000e+00
     1000000   9.999990e-06   2.113999e+01   7.930479e+00   1.051409e+01   2.103999e+06  -2.083979e+05  -3.298961e+04   0.000000e+00   0.000000e+00   0.000000e+00   2.114552e+06   0.000000e+00   0.000000e+00   0.000000e+00
     1008000   1.007999e-05   2.130831e+01   7.913807e+00   1.051145e+01   2.103999e+06  -2.083979e+05  -3.298961e+04   0.000000e+00   0.000000e+00   0.000000e+00   2.114552e+06   0.000000e+00   0.000000e+00   0.000000e+00
     1016000   1.015999e-05   2.147663e+01   7.897135e+00   1.050881e+01   2.103999e+06  -2.083979e+05  -3.298961e+04   0.000000e+00   0.000000e+00   0.000000e+00   2.114552e+06   0.000000e+00   0.000000e+00   0.000000e+00
     1024000   1.023999e-05   2.164495e+01   7.880463e+00   1.050617e+01   2.103999e+06  -2.083979e+05  -3.298961e+04   0.000000e+00   0.000000e+00   0.000000e+00   2.114552e+06   0.000000e+00   0.000000e+00   0.000000e+00
     1032000   1.031999e-05   2.181327e+01   7.863792e+00   1.050354e+01   2.103999e+06  -2.083979e+05  -3.298961e+04   0.000000e+00   0.000000e+00   0.000000e+00   2.114552e+06   0.000000e+00   0.000000e+00   0.000000e+00
     1040000   1.039999e-05   2.198159e+01   7.847120e+00   1.050090e+01   2.103999e+06  -2.083979e+05  -3.298961e+04   0.000000e+00   0.000000e+00   0.000000e+00   2.114552e+06   0.000000e+00   0.000000e+00   0.000000e+00
     1048000   1.047999e-05   2.214991e+01   7.830448e+00   1.049826e+01   2.103999e+06  -2.083979e+05  -3.298961e+04   0.000000e+00   0.000000e+00   0.000000e+00   2.114552e+06   0.000000e+00   0.000000e+00   0.000000e+00
     1056000   1.055999e-05   2.231823e+01   7.813776e+00   1.049562e+01   2.103999e+06  -2.083979e+05  -3.298961e+04   0.000000e+00   0.000000e+00   0.000000e+00   2.114552e+06   0.000000e+00   0.000000e+00   0.000000e+00
     1064000   1.063999e-05   2.248655e+01   7.797104e+00   1.049298e+01   2.103999e+06  -2.083979e+05  -3.298961e+04   0.000000e+00   0.000000e+00   0.000000e+00   2.114552e+06   0.000000e+00   0.000000e+00   0.000000e+00
     1072000   1.071999e-05   2.265487e+01   7.780432e+00   1.049034e+01   2.103999e+06  -2.083979e+05  -3.298961e+04   0.000000e+00   0.000000e+00   0.000000e+00   2.114552e+06   0.000000e+00   0.000000e+00   0.000000e+00
     1080000   1.079999e-05   2.282319e+01   7.763761e+00   1.048770e+01   2.103999e+06  -2.083979e+05  -3.298961e+04   0.000000e+00   0.000000e+00   0.000000e+00   2.114552e+06   0.000000e+00   0.000000e+00   0.000000e+00
     1088000   1.087999e-05   2.299151e+01   7.747089e+00   1.048506e+01   2.103999e+06  -2.083979e+05  -3.298961e+04   0.000000e+00   0.000000e+00   0.000000e+00   2.114552e+06   0.000000e+00   0.000000e+00   0.000000e+00
     1096000   1.095999e-05   2.315983e+01   7.730417e+00   1.048242e+01   2.103999e+06  -2.083979e+05  -3.298961e+04   0.000000e+00   0.000000e+00   0.000000e+00   2.114552e+06   0.000000e+00   0.000000e+00   0.000000e+00
     1104000   1.103999e-05   2.332815e+01   7.713745e+00   1.047978e+01   2.103999e+06  -2.083979e+05  -3.298961e+04   0.000000e+00   0.000000e+00   0.000000e+00   2.114552e+06   0.000000e+00   0.000000e+00   0.000000e+00
     1112000   1.111999e-05   2.349647e+01   7.697073e+00   1.047714e+01   2.103999e+06  -2.083979e+05  -3.298961e+04   0.000000e+00   0.000000e+00   0.000000e+00   2.114552e+06   0.000000e+00   0.000000e+00   0.000000e+00
     1120000   1.119999e-05   2.366479e+01   7.680401e+00   1.047450e+01   2.103999e+06  -2.083979e+05  -3.298961e+04   0.000000e+00   0.000000e+00   0.000000e+00   2.114552e+06   0.000000e+00   0.000000e+00   0.000000e+00
     1128000   1.127999e-05   2.383311e+01   7.663730e+00   1.047187e+01   2.103999e+06  -2.083979e+05  -3.298961e+04   0.000000e+00   0.000000e+00   0.000000e+00   2.114552e+06   0.000000e+00   0.000000e+00   0.000000e+00
     1136000   1.135999e-05   2.400143e+01   7.647058e+00   1.046923e+01   2.103999e+06  -2.083979e+05  -3.298961e+04   0.000000e+00   0.000000e+00   0.000000e+00   2.114552e+06   0.000000e+00   0.000000e+00   0.000000e+00
     1144000   1.143999e-05   2.416975e+01   7.630386e+00   1.046659e+01   2.103999e+06  -2.083979e+05  -3.298961e+04   0.000000e+00   0.000000e+00   0.000000e+00   2.114552e+06   0.000000e+00   0.000000e+00   0.000000e+00
     1152000   1.151999e-05   2.433807e+01   7.613714e+00   1.046395e+01   2.103999e+06  -2.083979e+05  -3.298961e+04   0.000000e+00   0.000000e+00   0.000000e+00   2.114552e+06   0.000000e+00   0.000000e+00   0.000000e+00
     1160000   1.159999e-05   2.450639e+01   7.597042e+00   1.046131e+01   2.103999e+06  -2.083979e+05  -3.298961e+04   0.000000e+00   0.000000e+00   0.000000e+00   2.114552e+06   0.000000e+00   0.000000e+00   0.000000e+00
     1168000   1.167999e-05   2.467471e+01   7.580370e+00   1.045867e+01   2.103999e+06  -2.083979e+05  -3.298961e+04   0.000000e+00   0.000000e+00   0.000000e+00   2.114552e+06   0.000000e+00   0.000000e+00   0.000000e+00
     1176000   1.175999e-05   2.484303e+01   7.563699e+00   1.045603e+01   2.103999e+06  -2.083979e+05  -3.298961e+04   0.000000e+00   0.000000e+00   0.000000e+00   2.114552e+06   0.000000e+00   0.000000e+00   0.000000e+00
     1184000   1.183999e-05   2.501135e+01   7.547027e+00   1.045339e+01   2.103999e+06  -2.083979e+05  -3.298961e+04   0.000000e+00   0.000000e+00   0.000000e+00   2.114552e+06   0.000000e+00   0.000000e+00   0.000000e+00
     1192000   1.191999e-05   2.517967e+01   7.530355e+00   1.045075e+01   2.103999e+06  -2.083979e+05  -3.298961e+04   0.000000e+00   0.000000e+00   0.000000e+00   2.114552e+06   0.000000e+00   0.000000e+00   0.000000e+00
     1200000   1.199999e-05   2.534799e+01   7.513683e+00   1.044811e+01   2.103999e+06  -2.083979e+05  -3.298961e+04   0.000000e+00   0.000000e+00   0.000000e+00   2.114552e+06   0.000000e+00   0.000000e+00   0.000000e+00
     1208000   1.207999e-05   2.551631e+01   7.497011e+00   1.044547e+01   2.103999e+06  -2.083979e+05  -3.298961e+04   0.000000e+00   0.000000e+00   0.000000e+00   2.114552e+06   0.000000e+00   0.000000e+00   0.000000e+00
     1216000   1.215999e-05   2.568463e+01   7.480339e+00   1.044283e+01   2.103999e+06  -2.083979e+05  -3.298961e+04   0.000000e+00   0.000000e+00   0.000000e+00   2.114552e+06   0.000000e+00   0.000000e+00   0.000000e+00
     1224000   1.223999e-05   2.585295e+01   7.463668e+00   1.044020e+01   2.103999e+06  -2.083979e+05  -3.298961e+04   0.000000e+00   0.000000e+00   0.000000e+00   2.114552e+06   0.000000e+00   0.000000e+00   0.000000e+00
     1232000   1.231999e-05   2.602127e+01   7.446996e+00   1.043756e+01   2.103999e+06  -2.083979e+05  -3.298961e+04   0.000000e+00   0.000000e+00   0.000000e+00   2.114552e+06   0.000000e+00   0.000000e+00   0.000000e+00
     1240000   1.239999e-05   2.618959e+01   7.430324e+00   1.043492e+01   2.103999e+06  -2.083979e+05  -3.298961e+04   0.000000e+00   0.000000e+00   0.000000e+00   2.114552e+06   0.000000e+00   0.000000e+00   0.000000e+00
     1248000   1.247999e-05   2.635791e+01   7.413652e+00   1.043228e+01   2.103999e+06  -2.083979e+05  -3.298961e+04   0.000000e+00   0.000000e+00   0.000000e+00   2.114552e+06   0.000000e+00   0.000000e+00   0.000000e+00
     1256000   1.255999e-05   2.652623e+01   7.396980e+00   1.042964e+01   2.103999e+06  -2.083979e+05  -3.298961e+04   0.000000e+00   0.000000e+00   0.000000e+00   2.114552e+06   0.000000e+00   0.000000e+00   0.000000e+00
     1264000   1.263999e-05   2.669455e+01   7.380308e+00   1.042700e+01   2.103999e+06  -2.083979e+05  -3.298961e+04   0.000000e+00   0.000000e+00   0.000000e+00   2.114552e+06   0.000000e+00   0.000000e+00   0.000000e+00
     1272000   1.271999e-05   2.686287e+01   7.363637e+00   1.042436e+01   2.103999e+06  -2.083979e+05  -3.298961e+04   0.000000e+00   0.000000e+00   0.000000e+00   2.114552e+06   0.000000e+00   0.000000e+00   0.000000e+00
     1280000   1.279999e-05   2.703119e+01   7.346965e+00   1.042172e+01   2.103999e+06  -2.083979e+05  -3.298961e+04   0.000000e+00   0.000000e+00   0.000000e+00   2.114552e+06   0.000000e+00   0.000000e+00   0.000000e+00
     1288000   1.287999e-05   2.719951e+01   7.330293e+00   1.041908e+01   2.103999e+06  -2.083979e+05  -3.298961e+04   0.000000e+00   0.000000e+00   0.000000e+00   2.114552e+06   0.000000e+00   0.000000e+00   0.000000e+00
     1296000   1.295999e-05   2.736783e+01   7.313621e+00   1.041644e+01   2.103999e+06  -2.083979e+05  -3.298961e+04   0.000000e+00   0.000000e+00   0.000000e+00   2.114552e+06   0.000000e+00   0.000000e+00   0.000000e+00
     1304000   1.303999e-05   2.753615e+01   7.296949e+00   1.041380e+01   2.103999e+06  -2.083979e+05  -3.298961e+04   0.000000e+00   0.000000e+00   0.000000e+00   2.114552e+06   0.000000e+00   0.000000e+00   0.000000e+00
     1312000   1.311999e-05   2.770447e+01   7.280277e+00   1.041116e+01   2.103999e+06  -2.083979e+05  -3.298961e+04   0.000000e+00   0.000000e+00   0.000000e+00   2.114552e+06   0.000000e+00   0.000000e+00   0.000000e+00
     1320000   1.319999e-05   2.787279e+01   7.263606e+00   1.040853e+01   2.103999e+06  -2.083979e+05  -3.298961e+04   0.000000e+00   0.000000e+00   0.000000e+00   2.114552e+06   0.000000e+00   0.000000e+00   0.000000e+00
     1328000   1.327999e-05   2.804111e+01   7.246934e+00   1.040589e+01   2.103999e+06  -2.083979e+05  -3.298961e+04   0.000000e+00   0.000000e+00   0.000000e+00   2.114552e+06   0.000000e+00   0.000000e+00   0.000000e+00
     1336000   1.335999e-05   2.820943e+01   7.230262e+00   1.040325e+01   2.103999e+06  -2.083979e+05  -3.298961e+04   0.000000e+00   0.000000e+00   0.000000e+00   2.114552e+06   0.000000e+00   0.000000e+00   0.000000e+00
     1344000   1.343999e-05   2.837775e+01   7.213590e+00   1.040061e+01   2.103999e+06  -2.083979e+05  -3.298961e+04   0.000000e+00   0.000000e+00   0.000000e+00   2.114552e+06   0.000000e+00   0.000000e+00   0.000000e+00
     1352000   1.351999e-05   2.854607e+01   7.196918e+00   1.039797e+01   2.103999e+06  -2.083979e+05  -3.298961e+04   0.000000e+00   0.000000e+00   0.000000e+00   2.114552e+06   0.000000e+00   0.000000e+00   0.000000e+00
     1360000   1.359999e-05   2.871439e+01   7.180246e+00   1.039533e+01   2.103999e+06  -2.083979e+05  -3.298961e+04   0.000000e+00   0.000000e+00   0.000000e+00   2.114552e+06   0.000000e+00   0.000000e+00   0.000000e+00
     1368000   1.367999e-05   2.888271e+01   7.163575e+00   1.039269e+01   2.103999e+06  -2.083979e+05  -3.298961e+04   0.000000e+00   0.000000e+00   0.000000e+00   2.114552e+06   0.000000e+00   0.000000e+00   0.000000e+00
     1376000   1.375999e-05   2.905103e+01   7.146903e+00   1.039005e+01   2.103999e+06  -2.083979e+05  -3.298961e+04   0.000000e+00   0.000000e+00   0.000000e+00   2.114552e+06   0.000000e+00   0.000000e+00   0.000000e+00
     1384000   1.383999e-05   2.921935e+01   7.130231e+00   1.038741e+01   2.103999e+06  -2.083979e+05  -3.298961e+04   0.000000e+00   0.000000e+00   0.000000e+00   2.114552e+06   0.000000e+00   0.000000e+00   0.000000e+00
     1392000   1.391999e-05   2.938767e+01   7.113559e+00   1.038477e+01   2.103999e+06  -2.083979e+05  -3.298961e+04   0.000000e+00   0.000000e+00   0.000000e+00   2.114552e+06   0.000000e+00   0.000000e+00   0.000000e+00
     1400000   1.399999e-05   2.955599e+01   7.096887e+00   1.038213e+01   2.103999e+06  -2.083979e+05  -3.298961e+04   0.000000e+00   0.000000e+00   0.000000e+00   2.114552e+06   0.000000e+00   0.000000e+00   0.000000e+00
     1408000   1.407999e-05   2.972430e+01   7.080215e+00   1.037949e+01   2.103999e+06  -2.083979e+05  -3.298961e+04   0.000000e+00   0.000000e+00   0.000000e+00   2.114552e+06   0.000000e+00   0.000000e+00   0.000000e+00
     1416000   1.415999e-05   2.989262e+01   7.063544e+00   1.037686e+01   2.103999e+06  -2.083979e+05  -3.298961e+04   0.000000e+00   0.000000e+00   0.000000e+00   2.114552e+06   0.000000e+00   0.000000e+00   0.000000e+00
     1424000   1.423999e-05   3.006094e+01   7.046872e+00   1.037422e+01   2.103999e+06  -2.083979e+05  -3.298961e+04   0.000000e+00   0.000000e+00   0.000000e+00   2.114552e+06   0.000000e+00   0.000000e+00   0.000000e+00
     1432000   1.431999e-05   3.022926e+01   7.030200e+00   1.037158e+01   2.103999e+06  -2.083979e+05  -3.298961e+04   0.000000e+00   0.000000e+00   0.000000e+00   2.114552e+06   0.000000e+00   0.000000e+00   0.000000e+00
     1440000   1.439999e-05   3.039758e+01   7.013528e+00   1.036894e+01   2.103999e+06  -2.083979e+05  -3.298961e+04   0.000000e+00   0.000000e+00   0.000000e+00   2.114552e+06   0.000000e+00   0.000000e+00   0.000000e+00
     1448000   1.447999e-05   3.056590e+01   6.996856e+00   1.036630e+01   2.103999e+06  -2.083979e+05  -3.298961e+04   0.000000e+00   0.000000e+00   0.000000e+00   2.114552e+06   0.000000e+00   0.000000e+00   0.000000e+00
     1456000   1.455999e-05   3.073422e+01   6.980184e+00   1.036366e+01   2.103999e+06  -2.083979e+05  -3.298961e+04   0.000000e+00   0.000000e+00   0.000000e+00   2.114552e+06   0.000000e+00   0.000000e+00   0.000000e+00
     1464000   1.463999e-05   3.090254e+01   6.963513e+00   1.036102e+01   2.103999e+06  -2.083979e+05  -3.298961e+04   0.000000e+00   0.000000e+00   0.000000e+00   2.114552e+06   0.000000e+00   0.000000e+00   0.000000e+00
     1472000   1.471999e-05   3.107086e+01   6.946841e+00   1.035838e+01   2.103999e+06  -2.083979e+05  -3.298961e+04   0.000000e+00   0.000000e+00   0.000000e+00   2.114552e+06   0.000000e+00   0.000000e+00   0.000000e+00
     1480000   1.479999e-05   3.123918e+01   6.930169e+00   1.035574e+01   2.103999e+06  -2.083979e+05  -3.298961e+04   0.000000e+00   0.000000e+00   0.000000e+00   2.114552e+06   0.000000e+00   0.000000e+00   0.000000e+00
     1488000   1.487999e-05   3.140750e+01   6.913497e+00   1.035310e+01   2.103999e+06  -2.083979e+05  -3.298961e+04   0.000000e+00   0.000000e+00   0.000000e+00   2.114552e+06   0.000000e+00   0.000000e+00   0.000000e+00
     1496000   1.495999e-05   3.157582e+01   6.896825e+00   1.035046e+01   2.103999e+06  -2.083979e+05  -3.298961e+04   0.000000e+00   0.000000e+00   0.000000e+00   2.114552e+06   0.000000e+00   0.000000e+00   0.000000e+00
     1504000   1.503999e-05   3.174414e+01   6.880153e+00   1.034782e+01   2.103999e+06  -2.083979e+05  -3.298961e+04   0.000000e+00   0.000000e+00   0.000000e+00   2.114552e+06   0.000000e+00   0.000000e+00   0.000000e+00
     1512000   1.511999e-05   3.191246e+01   6.863482e+00   1.034519e+01   2.103999e+06  -2.083979e+05  -3.298961e+04   0.000000e+00   0.000000e+00   0.000000e+00   2.114552e+06   0.000000e+00   0.000000e+00   0.000000e+00
     1520000   1.519999e-05   3.208078e+01   6.846810e+00   1.034255e+01   2.103999e+06  -2.083979e+05  -3.298961e+04   0.000000e+00   0.000000e+00   0.000000e+00   2.114552e+06   0.000000e+00   0.000000e+00   0.000000e+00
     1528000   1.527999e-05   3.224910e+01   6.830138e+00   1.033991e+01   2.103999e+06  -2.083979e+05  -3.298961e+04   0.000000e+00   0.000000e+00   0.000000e+00   2.114552e+06   0.000000e+00   0.000000e+00   0.000000e+00
     1536000   1.535999e-05   3.241742e+01   6.813466e+00   1.033727e+01   2.103999e+06  -2.083979e+05  -3.298961e+04   0.000000e+00   0.000000e+00   0.000000e+00   2.114552e+06   0.000000e+00   0.000000e+00   0.000000e+00
     1544000   1.543999e-05   3.258574e+01   6.796794e+00   1.033463e+01   2.103999e+06  -2.083979e+05  -3.298961e+04   0.000000e+00   0.000000e+00   0.000000e+00   2.114552e+06   0.000000e+00   0.000000e+00   0.000000e+00
     1552000   1.551999e-05   3.275406e+01   6.780122e+00   1.033199e+01   2.103999e+06  -2.083979e+05  -3.298961e+04   0.000000e+00   0.000000e+00   0.000000e+00   2.114552e+06   0.000000e+00   0.000000e+00   0.000000e+00
     1560000   1.559999e-05   3.292238e+01   6.763451e+00   1.032935e+01   2.103999e+06  -2.083979e+05  -3.298961e+04   0.000000e+00   0.000000e+00   0.000000e+00   2.114552e+06   0.000000e+00   0.000000e+00   0.000000e+00
     1568000   1.567999e-05   3.309070e+01   6.746779e+00   1.032671e+01   2.103999e+06  -2.083979e+05  -3.298961e+04   0.000000e+00   0.000000e+00   0.000000e+00   2.114552e+06   0.000000e+00   0.000000e+00   0.000000e+00
     1576000   1.575999e-05   3.325902e+01   6.730107e+00   1.032407e+01   2.103999e+06  -2.083979e+05  -3.298961e+04   0.000000e+00   0.000000e+00   0.000000e+00   2.114552e+06   0.000000e+00   0.000000e+00   0.000000e+00
     1584000   1.583999e-05   3.342734e+01   6.713435e+00   1.032143e+01   2.103999e+06  -2.083979e+05  -3.298961e+04   0.000000e+00   0.000000e+00   0.000000e+00   2.114552e+06   0.000000e+00   0.000000e+00   0.000000e+00
     1592000   1.591999e-05   3.359566e+01   6.696763e+00   1.031879e+01   2.103999e+06  -2.083979e+05  -3.298961e+04   0.000000e+00   0.000000e+00   0.000000e+00   2.114552e+06   0.000000e+00   0.000000e+00   0.000000e+00
     1600000   1.599999e-05   3.376398e+01   6.680091e+00   1.031615e+01   2.103999e+06  -2.083979e+05  -3.298961e+04   0.000000e+00   0.000000e+00   0.000000e+00   2.114552e+06   0.000000e+00   0.000000e+00   0.000000e+00
     1608000   1.607999e-05   3.393230e+01   6.663420e+00   1.031352e+01   2.103999e+06  -2.083979e+05  -3.298961e+04   0.000000e+00   0.000000e+00   0.000000e+00   2.114552e+06   0.000000e+00   0.000000e+00   0.000000e+00
     1616000   1.615999e-05   3.410062e+01   6.646748e+00   1.031088e+01   2.103999e+06  -2.083979e+05  -3.298961e+04   0.000000e+00   0.000000e+00   0.000000e+00   2.114552e+06   0.000000e+00   0.000000e+00   0.000000e+00
     1624000   1.623999e-05   3.426894e+01   6.630076e+00   1.030824e+01   2.103999e+06  -2.083979e+05  -3.298961e+04   0.000000e+00   0.000000e+00   0.000000e+00   2.114552e+06   0.000000e+00   0.000000e+00   0.000000e+00
     1632000   1.631999e-05   3.443726e+01   6.613404e+00   1.030560e+01   2.103999e+06  -2.083979e+05  -3.298961e+04   0.000000e+00   0.000000e+00   0.000000e+00   2.114552e+06   0.000000e+00   0.000000e+00   0.000000e+00
     1640000   1.639999e-05   3.460558e+01   6.596732e+00   1.030296e+01   2.103999e+06  -2.083979e+05  -3.298961e+04   0.000000e+00   0.000000e+00   0.000000e+00   2.114552e+06   0.000000e+00   0.000000e+00   0.000000e+00
     1648000   1.647999e-05   3.477390e+01   6.580060e+00   1.030032e+01   2.103999e+06  -2.083979e+05  -3.298961e+04   0.000000e+00   0.000000e+00   0.000000e+00   2.114552e+06   0.000000e+00   0.000000e+00   0.000000e+00
     1656000   1.655999e-05   3.494222e+01   6.563389e+00   1.029768e+01   2.103999e+06  -2.083979e+05  -3.298961e+04   0.000000e+00   0.000000e+00   0.000000e+00   2.114552e+06   0.000000e+00   0.000000e+00   0.000000e+00
     1664000   1.663999e-05   3.511054e+01   6.546717e+00   1.029504e+01   2.103999e+06  -2.083979e+05  -3.298961e+04   0.000000e+00   0.000000e+00   0.000000e+00   2.114552e+06   0.000000e+00   0.000000e+00   0.000000e+00
     1672000   1.671999e-05   3.527886e+01   6.530045e+00   1.029240e+01   2.103999e+06  -2.083979e+05  -3.298961e+04   0.000000e+00   0.000000e+00   0.000000e+00   2.114552e+06   0.000000e+00   0.000000e+00   0.000000e+00
     1680000   1.679999e-05   3.544718e+01   6.513373e+00   1.028976e+01   2.103999e+06  -2.083979e+05  -3.298961e+04   0.000000e+00   0.000000e+00   0.000000e+00   2.114552e+06   0.000000e+00   0.000000e+00   0.000000e+00
     1688000   1.687999e-05   3.561550e+01   6.496701e+00   1.028712e+01   2.103999e+06  -2.083979e+05  -3.298961e+04   0.000000e+00   0.000000e+00   0.000000e+00   2.114552e+06   0.000000e+00   0.000000e+00   0.000000e+00
     1696000   1.695999e-05   3.578382e+01   6.480029e+00   1.028448e+01   2.103999e+06  -2.083979e+05  -3.298961e+04   0.000000e+00   0.000000e+00   0.000000e+00   2.114552e+06   0.000000e+00   0.000000e+00   0.000000e+00
     1704000   1.703999e-05   3.595214e+01   6.463358e+00   1.028184e+01   2.103999e+06  -2.083979e+05  -3.298961e+04   0.000000e+00   0.000000e+00   0.000000e+00   2.114552e+06   0.000000e+00   0.000000e+00   0.000000e+00
     1712000   1.711999e-05   3.612046e+01   6.446686e+00   1.027921e+01   2.103999e+06  -2.083979e+05  -3.298961e+04   0.000000e+00   0.000000e+00   0.000000e+00   2.114552e+06   0.000000e+00   0.000000e+00   0.000000e+00
     1720000   1.719999e-05   3.628878e+01   6.430014e+00   1.027657e+01   2.103999e+06  -2.083979e+05  -3.298961e+04   0.000000e+00   0.000000e+00   0.000000e+00   2.114552e+06   0.000000e+00   0.000000e+00   0.000000e+00
     1728000   1.727999e-05   3.645710e+01   6.413342e+00   1.027393e+01   2.103999e+06  -2.083979e+05  -3.298961e+04   0.000000e+00   0.000000e+00   0.000000e+00   2.114552e+06   0.000000e+00   0.000000e+00   0.000000e+00
     1736000   1.735999e-05   3.662542e+01   6.396670e+00   1.027129e+01   2.103999e+06  -2.083979e+05  -3.298961e+04   0.000000e+00   0.000000e+00   0.000000e+00   2.114552e+06   0.000000e+00   0.000000e+00   0.000000e+00
     1744000   1.743999e-05   3.679374e+01   6.379999e+00   1.026865e+01   2.103999e+06  -2.083979e+05  -3.298961e+04   0.000000e+00   0.000000e+00   0.000000e+00   2.114552e+06   0.000000e+00   0.000000e+00   0.000000e+00
     1752000   1.751999e-05   3.696206e+01   6.363327e+00   1.026601e+01   2.103999e+06  -2.083979e+05  -3.298961e+04   0.000000e+00   0.000000e+00   0.000000e+00   2.114552e+06   0.000000e+00   0.000000e+00   0.000000e+00
     1760000   1.759999e-05   3.713038e+01   6.346655e+00   1.026337e+01   2.103999e+06  -2.083979e+05  -3.298961e+04   0.000000e+00   0.000000e+00   0.000000e+00   2.114552e+06   0.000000e+00   0.000000e+00   0.000000e+00
     1768000   1.767999e-05   3.729870e+01   6.329983e+00   1.026073e+01   2.103999e+06  -2.083979e+05  -3.298961e+04   0.000000e+00   0.000000e+00   0.000000e+00   2.114552e+06   0.000000e+00   0.000000e+00   0.000000e+00
     1776000   1.775999e-05   3.746702e+01   6.313311e+00   1.025809e+01   2.103999e+06  -2.083979e+05  -3.298961e+04   0.000000e+00   0.000000e+00   0.000000e+00   2.114552e+06   0.000000e+00   0.000000e+00   0.000000e+00
     1784000   1.783999e-05   3.763534e+01   6.296639e+00   1.025545e+01   2.103999e+06  -2.083979e+05  -3.298961e+04   0.000000e+00   0.000000e+00   0.000000e+00   2.114552e+06   0.000000e+00   0.000000e+00   0.000000e+00
     1792000   1.791999e-05   3.780366e+01   6.279968e+00   1.025281e+01   2.103999e+06  -2.083979e+05  -3.298961e+04   0.000000e+00   0.000000e+00   0.000000e+00   2.114552e+06   0.000000e+00   0.000000e+00   0.000000e+00
     1800000   1.799999e-05   3.797198e+01   6.263296e+00   1.025017e+01   2.103999e+06  -2.083979e+05  -3.298961e+04   0.000000e+00   0.000000e+00   0.000000e+00   2.114552e+06   0.000000e+00   0.000000e+00   0.000000e+00
     1808000   1.807999e-05   3.814030e+01   6.246624e+00   1.024754e+01   2.103999e+06  -2.083979e+05  -3.298961e+04   0.000000e+00   0.000000e+00   0.000000e+00   2.114552e+06   0.000000e+00   0.000000e+00   0.000000e+00
     1816000   1.815999e-05   3.830862e+01   6.229952e+00   1.024490e+01   2.103999e+06  -2.083979e+05  -3.298961e+04   0.000000e+00   0.000000e+00   0.000000e+00   2.114552e+06   0.000000e+00   0.000000e+00   0.000000e+00
     1824000   1.823999e-05   3.847694e+01   6.213280e+00   1.024226e+01   2.103999e+06  -2.083979e+05  -3.298961e+04   0.000000e+00   0.000000e+00   0.000000e+00   2.114552e+06   0.000000e+00   0.000000e+00   0.000000e+00
     1832000   1.831999e-05   3.864526e+01   6.196608e+00   1.023962e+01   2.103999e+06  -2.083979e+05  -3.298961e+04   0.000000e+00   0.000000e+00   0.000000e+00   2.114552e+06   0.000000e+00   0.000000e+00   0.000000e+00
     1840000   1.839999e-05   3.881358e+01   6.179937e+00   1.023698e+01   2.103999e+06  -2.083979e+05  -3.298961e+04   0.000000e+00   0.000000e+00   0.000000e+00   2.114552e+06   0.000000e+00   0.000000e+00   0.000000e+00
     1848000   1.847999e-05   3.898190e+01   6.163265e+00   1.023434e+01   2.103999e+06  -2.083979e+05  -3.298961e+04   0.000000e+00   0.000000e+00   0.000000e+00   2.114552e+06   0.000000e+00   0.000000e+00   0.000000e+00
     1856000   1.855999e-05   3.915022e+01   6.146593e+00   1.023170e+01   2.103999e+06  -2.083979e+05  -3.298961e+04   0.000000e+00   0.000000e+00   0.000000e+00   2.114552e+06   0.000000e+00   0.000000e+00   0.000000e+00
     1864000   1.863999e-05   3.931854e+01   6.129921e+00   1.022906e+01   2.103999e+06  -2.083979e+05  -3.298961e+04   0.000000e+00   0.000000e+00   0.000000e+00   2.114552e+06   0.000000e+00   0.000000e+00   0.000000e+00
     1872000   1.871999e-05   3.948686e+01   6.113249e+00   1.022642e+01   2.103999e+06  -2.083979e+05  -3.298961e+04   0.000000e+00   0.000000e+00   0.000000e+00   2.114552e+06   0.000000e+00   0.000000e+00   0.000000e+00
     1880000   1.879999e-05   3.965518e+01   6.096577e+00   1.022378e+01   2.103999e+06  -2.083979e+05  -3.298961e+04   0.000000e+00   0.000000e+00   0.000000e+00   2.114552e+06   0.000000e+00   0.000000e+00   0.000000e+00
     1888000   1.887999e-05   3.982350e+01   6.079906e+00   1.022114e+01   2.103999e+06  -2.083979e+05  -3.298961e+04   0.000000e+00   0.000000e+00   0.000000e+00   2.114552e+06   0.000000e+00   0.000000e+00   0.000000e+00
     1896000   1.895999e-05   3.999182e+01   6.063234e+00   1.021850e+01   2.103999e+06  -2.083979e+05  -3.298961e+04   0.000000e+00   0.000000e+00   0.000000e+00   2.114552e+06   0.000000e+00   0.000000e+00   0.000000e+00
     1904000   1.903999e-05   4.016014e+01   6.046562e+00   1.021587e+01   2.103999e+06  -2.083979e+05  -3.298961e+04   0.000000e+00   0.000000e+00   0.000000e+00   2.114552e+06   0.000000e+00   0.000000e+00   0.000000e+00
     1912000   1.911999e-05   4.032846e+01   6.029890e+00   1.021323e+01   2.103999e+06  -2.083979e+05  -3.298961e+04   0.000000e+00   0.000000e+00   0.000000e+00   2.114552e+06   0.000000e+00   0.000000e+00   0.000000e+00
     1920000   1.919999e-05   4.049678e+01   6.013218e+00   1.021059e+01   2.103999e+06  -2.083979e+05  -3.298961e+04   0.000000e+00   0.000000e+00   0.000000e+00   2.114552e+06   0.000000e+00   0.000000e+00   0.000000e+00
     1928000   1.927999e-05   4.066510e+01   5.996546e+00   1.020795e+01   2.103999e+06  -2.083979e+05  -3.298961e+04   0.000000e+00   0.000000e+00   0.000000e+00   2.114552e+06   0.000000e+00   0.000000e+00   0.000000e+00
     1936000   1.935999e-05   4.083342e+01   5.979875e+00   1.020531e+01   2.103999e+06  -2.083979e+05  -3.298961e+04   0.000000e+00   0.000000e+00   0.000000e+00   2.114552e+06   0.000000e+00   0.000000e+00   0.000000e+00
     1944000   1.943999e-05   4.100174e+01   5.963203e+00   1.020267e+01   2.103999e+06  -2.083979e+05  -3.298961e+04   0.000000e+00   0.000000e+00   0.000000e+00   2.114552e+06   0.000000e+00   0.000000e+00   0.000000e+00
     1952000   1.951999e-05   4.117006e+01   5.946531e+00   1.020003e+01   2.103999e+06  -2.083979e+05  -3.298961e+04   0.000000e+00   0.000000e+00   0.000000e+00   2.114552e+06   0.000000e+00   0.000000e+00   0.000000e+00
     1960000   1.959999e-05   4.133838e+01   5.929859e+00   1.019739e+01   2.103999e+06  -2.083979e+05  -3.298961e+04   0.000000e+00   0.000000e+00   0.000000e+00   2.114552e+06   0.000000e+00   0.000000e+00   0.000000e+00
     1968000   1.967999e-05   4.150670e+01   5.913187e+00   1.019475e+01   2.103999e+06  -2.083979e+05  -3.298961e+04   0.000000e+00   0.000000e+00   0.000000e+00   2.114552e+06   0.000000e+00   0.000000e+00   0.000000e+00
     1976000   1.975999e-05   4.167502e+01   5.896515e+00   1.019211e+01   2.103999e+06  -2.083979e+05  -3.298961e+04   0.000000e+00   0.000000e+00   0.000000e+00   2.114552e+06   0.000000e+00   0.000000e+00   0.000000e+00
     1984000   1.983999e-05   4.184334e+01   5.879844e+00   1.018947e+01   2.103999e+06  -2.083979e+05  -3.298961e+04   0.000000e+00   0.000000e+00   0.000000e+00   2.114552e+06   0.000000e+00   0.000000e+00   0.000000e+00
     1992000   1.991999e-05   4.201166e+01   5.863172e+00   1.018683e+01   2.103999e+06  -2.083979e+05  -3.298961e+04   0.000000e+00   0.000000e+00   0.000000e+00   2.114552e+06   0.000000e+00   0.000000e+00   0.000000e+00
     2000000   1.999999e-05   4.217998e+01   5.846500e+00   1.018420e+01   2.103999e+06  -2.083979e+05  -3.298961e+04   0.000000e+00   0.000000e+00   0.000000e+00   2.114552e+06   0.000000e+00   0.000000e+00   0.000000e+00
     2008000   2.007999e-05   4.234830e+01   5.829828e+00   1.018156e+01   2.103999e+06  -2.083979e+05  -3.298961e+04   0.000000e+00   0.000000e+00   0.000000e+00   2.114552e+06   0.000000e+00   0.000000e+00   0.000000e+00
     2016000   2.015999e-05   4.251662e+01   5.813156e+00   1.017892e+01   2.103999e+06  -2.083979e+05  -3.298961e+04   0.000000e+00   0.000000e+00   0.000000e+00   2.114552e+06   0.000000e+00   0.000000e+00   0.000000e+00
     2024000   2.023999e-05   4.268494e+01   5.796484e+00   1.017628e+01   2.103999e+06  -2.083979e+05  -3.298961e+04   0.000000e+00   0.000000e+00   0.000000e+00   2.114552e+06   0.000000e+00   0.000000e+00   0.000000e+00
     2032000   2.031999e-05   4.285326e+01   5.779813e+00   1.017364e+01   2.103999e+06  -2.083979e+05  -3.298961e+04   0.000000e+00   0.000000e+00   0.000000e+00   2.114552e+06   0.000000e+00   0.000000e+00   0.000000e+00
     2040000   2.039999e-05   4.302158e+01   5.763141e+00   1.017100e+01   2.103999e+06  -2.083979e+05  -3.298961e+04   0.000000e+00   0.000000e+00   0.000000e+00   2.114552e+06   0.000000e+00   0.000000e+00   0.000000e+00
     2048000   2.047999e-05   4.318990e+01   5.746469e+00   1.016836e+01   2.103999e+06  -2.083979e+05  -3.298961e+04   0.000000e+00   0.000000e+00   0.000000e+00   2.114552e+06   0.000000e+00   0.000000e+00   0.000000e+00
     2056000   2.055999e-05   4.335822e+01   5.729797e+00   1.016572e+01   2.103999e+06  -2.083979e+05  -3.298961e+04   0.000000e+00   0.000000e+00   0.000000e+00   2.114552e+06   0.000000e+00   0.000000e+00   0.000000e+00
     2064000   2.063999e-05   4.352654e+01   5.713125e+00   1.016308e+01   2.103999e+06  -2.083979e+05  -3.298961e+04   0.000000e+00   0.000000e+00   0.000000e+00   2.114552e+06   0.000000e+00   0.000000e+00   0.000000e+00
     2072000   2.071999e-05   4.369486e+01   5.696453e+00   1.016044e+01   2.103999e+06  -2.083979e+05  -3.298961e+04   0.000000e+00   0.000000e+00   0.000000e+00   2.114552e+06   0.000000e+00   0.000000e+00   0.000000e+00
     2080000   2.079999e-05   4.386318e+01   5.679782e+00   1.015780e+01   2.103999e+06  -2.083979e+05  -3.298961e+04   0.000000e+00   0.000000e+00   0.000000e+00   2.114552e+06   0.000000e+00   0.000000e+00   0.000000e+00
     2088000   2.087999e-05   4.403150e+01   5.663110e+00   1.015516e+01   2.103999e+06  -2.083979e+05  -3.298961e+04   0.000000e+00   0.000000e+00   0.000000e+00   2.114552e+06   0.000000e+00   0.000000e+00   0.000000e+00
     2096000   2.095999e-05   4.419982e+01   5.646438e+00   1.015253e+01   2.103999e+06  -2.083979e+05  -3.298961e+04   0.000000e+00   0.000000e+00   0.000000e+00   2.114552e+06   0.000000e+00   0.000000e+00   0.000000e+00
     2104000   2.103999e-05   4.436814e+01   5.629766e+00   1.014989e+01   2.103999e+06  -2.083979e+05  -3.298961e+04   0.000000e+00   0.000000e+00   0.000000e+00   2.114552e+06   0.000000e+00   0.000000e+00   0.000000e+00
     2112000   2.111999e-05   4.453646e+01   5.613094e+00   1.014725e+01   2.103999e+06  -2.083979e+05  -3.298961e+04   0.000000e+00   0.000000e+00   0.000000e+00   2.114552e+06   0.000000e+00   0.000000e+00   0.000000e+00
     2120000   2.119999e-05   4.470478e+01   5.596422e+00   1.014461e+01   2.103999e+06  -2.083979e+05  -3.298961e+04   0.000000e+00   0.000000e+00   0.000000e+00   2.114552e+06   0.000000e+00   0.000000e+00   0.000000e+00
     2128000   2.127999e-05   4.487310e+01   5.579751e+00   1.014197e+01   2.103999e+06  -2.083979e+05  -3.298961e+04   0.000000e+00   0.000000e+00   0.000000e+00   2.114552e+06   0.000000e+00   0.000000e+00   0.000000e+00
     2136000   2.135999e-05   4.504142e+01   5.563079e+00   1.013933e+01   2.103999e+06  -2.083979e+05  -3.298961e+04   0.000000e+00   0.000000e+00   0.000000e+00   2.114552e+06   0.000000e+00   0.000000e+00   0.000000e+00
     2144000   2.143999e-05   4.520974e+01   5.546407e+00   1.013669e+01   2.103999e+06  -2.083979e+05  -3.298961e+04   0.000000e+00   0.000000e+00   0.000000e+00   2.114552e+06   0.000000e+00   0.000000e+00   0.000000e+00
     2152000   2.151999e-05   4.537806e+01   5.529735e+00   1.013405e+01   2.103999e+06  -2.083979e+05  -3.298961e+04   0.000000e+00   0.000000e+00   0.000000e+00   2.114552e+06   0.000000e+00   0.000000e+00   0.000000e+00
     2160000   2.159999e-05   4.554638e+01   5.513063e+00   1.013141e+01   2.103999e+06  -2.083979e+05  -3.298961e+04   0.000000e+00   0.000000e+00   0.000000e+00   2.114552e+06   0.000000e+00   0.000000e+00   0.000000e+00
     2168000   2.167999e-05   4.571470e+01   5.496391e+00   1.012877e+01   2.103999e+06  -2.083979e+05  -3.298961e+04   0.000000e+00   0.000000e+00   0.000000e+00   2.114552e+06   0.000000e+00   0.000000e+00   0.000000e+00
     2176000   2.175999e-05   4.588302e+01   5.479720e+00   1.012613e+01   2.103999e+06  -2.083979e+05  -3.298961e+04   0.000000e+00   0.000000e+00   0.000000e+00   2.114552e+06   0.000000e+00   0.000000e+00   0.000000e+00
     2184000   2.183999e-05   4.605134e+01   5.463048e+00   1.012349e+01   2.103999e+06  -2.083979e+05  -3.298961e+04   0.000000e+00   0.000000e+00   0.000000e+00   2.114552e+06   0.000000e+00   0.000000e+00   0.000000e+00
     2192000   2.191999e-05   4.621966e+01   5.446376e+00   1.012086e+01   2.103999e+06  -2.083979e+05  -3.298961e+04   0.000000e+00   0.000000e+00   0.000000e+00   2.114552e+06   0.000000e+00   0.000000e+00   0.000000e+00
     2200000   2.199999e-05   4.638798e+01   5.429704e+00   1.011822e+01   2.103999e+06  -2.083979e+05  -3.298961e+04   0.000000e+00   0.000000e+00   0.000000e+00   2.114552e+06   0.000000e+00   0.000000e+00   0.000000e+00
     2208000   2.207999e-05   4.655630e+01   5.413032e+00   1.011558e+01   2.103999e+06  -2.083979e+05  -3.298961e+04   0.000000e+00   0.000000e+00   0.000000e+00   2.114552e+06   0.000000e+00   0.000000e+00   0.000000e+00
     2216000   2.215999e-05   4.672462e+01   5.396360e+00   1.011294e+01   2.103999e+06  -2.083979e+05  -3.298961e+04   0.000000e+00   0.000000e+00   0.000000e+00   2.114552e+06   0.000000e+00   0.000000e+00   0.000000e+00
     2224000   2.223999e-05   4.689294e+01   5.379689e+00   1.011030e+01   2.103999e+06  -2.083979e+05  -3.298961e+04   0.000000e+00   0.000000e+00   0.000000e+00   2.114552e+06   0.000000e+00   0.000000e+00   0.000000e+00
     2232000   2.231999e-05   4.706126e+01   5.363017e+00   1.010766e+01   2.103999e+06  -2.083979e+05  -3.298961e+04   0.000000e+00   0.000000e+00   0.000000e+00   2.114552e+06   0.000000e+00   0.000000e+00   0.000000e+00
     2240000   2.239999e-05   4.722958e+01   5.346345e+00   1.010502e+01   2.103999e+06  -2.083979e+05  -3.298961e+04   0.000000e+00   0.000000e+00   0.000000e+00   2.114552e+06   0.000000e+00   0.000000e+00   0.000000e+00
     2248000   2.247999e-05   4.739790e+01   5.329673e+00   1.010238e+01   2.103999e+06  -2.083979e+05  -3.298961e+04   0.000000e+00   0.000000e+00   0.000000e+00   2.114552e+06   0.000000e+00   0.000000e+00   0.000000e+00
     2256000   2.255999e-05   4.756622e+01   5.313001e+00   1.009974e+01   2.103999e+06  -2.083979e+05  -3.298961e+04   0.000000e+00   0.000000e+00   0.000000e+00   2.114552e+06   0.000000e+00   0.000000e+00   0.000000e+00
     2264000   2.263999e-05   4.773454e+01   5.296329e+00   1.009710e+01   2.103999e+06  -2.083979e+05  -3.298961e+04   0.000000e+00   0.000000e+00   0.000000e+00   2.114552e+06   0.000000e+00   0.000000e+00   0.000000e+00
     2272000   2.271999e-05   4.790286e+01   5.279658e+00   1.009446e+01   2.103999e+06  -2.083979e+05  -3.298961e+04   0.000000e+00   0.000000e+00   0.000000e+00   2.114552e+06   0.000000e+00   0.000000e+00   0.000000e+00
     2280000   2.279999e-05   4.807118e+01   5.262986e+00   1.009182e+01   2.103999e+06  -2.083979e+05  -3.298961e+04   0.000000e+00   0.000000e+00   0.000000e+00   2.114552e+06   0.000000e+00   0.000000e+00   0.000000e+00
     2288000   2.287999e-05   4.823950e+01   5.246314e+00   1.008919e+01   2.103999e+06  -2.083979e+05  -3.298961e+04   0.000000e+00   0.000000e+00   0.000000e+00   2.114552e+06   0.000000e+00   0.000000e+00   0.000000e+00
     2296000   2.295999e-05   4.840782e+01   5.229642e+00   1.008655e+01   2.103999e+06  -2.083979e+05  -3.298961e+04   0.000000e+00   0.000000e+00   0.000000e+00   2.114552e+06   0.000000e+00   0.000000e+00   0.000000e+00
     2304000   2.303999e-05   4.857614e+01   5.212970e+00   1.008391e+01   2.103999e+06  -2.083979e+05  -3.298961e+04   0.000000e+00   0.000000e+00   0.000000e+00   2.114552e+06   0.000000e+00   0.000000e+00   0.000000e+00
     2312000   2.311999e-05   4.874446e+01   5.196298e+00   1.008127e+01   2.103999e+06  -2.083979e+05  -3.298961e+04   0.000000e+00   0.000000e+00   0.000000e+00   2.114552e+06   0.000000e+00   0.000000e+00   0.000000e+00
     2320000   2.319999e-05   4.891278e+01   5.179627e+00   1.007863e+01   2.103999e+06  -2.083979e+05  -3.298961e+04   0.000000e+00   0.000000e+00   0.000000e+00   2.114552e+06   0.000000e+00   0.000000e+00   0.000000e+00
     2328000   2.327999e-05   4.908110e+01   5.162955e+00   1.007599e+01   2.103999e+06  -2.083979e+05  -3.298961e+04   0.000000e+00   0.000000e+00   0.000000e+00   2.114552e+06   0.000000e+00   0.000000e+00   0.000000e+00
     2336000   2.335999e-05   4.924941e+01   5.146283e+00   1.007335e+01   2.103999e+06  -2.083979e+05  -3.298961e+04   0.000000e+00   0.000000e+00   0.000000e+00   2.114552e+06   0.000000e+00   0.000000e+00   0.000000e+00
     2344000   2.343999e-05   4.941773e+01   5.129611e+00   1.007071e+01   2.103999e+06  -2.083979e+05  -3.298961e+04   0.000000e+00   0.000000e+00   0.000000e+00   2.114552e+06   0.000000e+00   0.000000e+00   0.000000e+00
     2352000   2.351999e-05   4.958605e+01   5.112939e+00   1.006807e+01   2.103999e+06  -2.083979e+05  -3.298961e+04   0.000000e+00   0.000000e+00   0.000000e+00   2.114552e+06   0.000000e+00   0.000000e+00   0.000000e+00
     2360000   2.359999e-05   4.975437e+01   5.096267e+00   1.006543e+01   2.103999e+06  -2.083979e+05  -3.298961e+04   0.000000e+00   0.000000e+00   0.000000e+00   2.114552e+06   0.000000e+00   0.000000e+00   0.000000e+00
     2368000   2.367999e-05   4.992269e+01   5.079596e+00   1.006279e+01   2.103999e+06  -2.083979e+05  -3.298961e+04   0.000000e+00   0.000000e+00   0.000000e+00   2.114552e+06   0.000000e+00   0.000000e+00   0.000000e+00
