     timestep     time              x             y              z              vx             vy             vz             ax             ay             az         v_magnitude      ELoss        Electronic      Nuclear
           0   0.000000e+00   1.000000e-01   1.247609e+01   2.088587e+01   5.518826e+04   2.705872e+05   1.812212e+06   0.000000e+00   0.000000e+00   0.000000e+00   1.833133e+06   0.000000e+00   0.000000e+00   0.000000e+00
        8000   7.999000e-08   1.044150e-01   1.249774e+01   2.103085e+01   5.518558e+04   2.705877e+05   1.812212e+06  -8.335981e+06   1.700099e+06   2.321162e-15   1.833133e+06   5.865338e-28   0.000000e+00   0.000000e+00
       16000   1.599900e-07   1.088297e-01   1.251939e+01   2.117583e+01   5.518360e+04   2.705881e+05   1.812212e+06  -1.377577e+07   2.809424e+06  -1.356292e-15   1.833133e+06   1.601109e-27   0.000000e+00   0.000000e+00
       24000   2.399900e-07   1.132443e-01   1.254103e+01   2.132081e+01   5.518144e+04   2.705885e+05   1.812212e+06  -1.924032e+07   3.923702e+06  -6.077768e-15   1.833133e+06   3.122695e-27   0.000000e+00   0.000000e+00
       32000   3.199900e-07   1.176588e-01   1.256268e+01   2.146578e+01   5.517982e+04   2.705889e+05   1.812212e+06  -4.154442e+07   8.471944e+06   9.264545e-15   1.833133e+06   1.454884e-26   0.000000e+00   0.000000e+00
       40000   3.999900e-07   1.220731e-01   1.258433e+01   2.161076e+01   5.517859e+04   2.705891e+05   1.812212e+06  -3.399604e+07   6.932480e+06  -3.588121e-15   1.833133e+06   9.741787e-27   0.000000e+00   0.000000e+00
       48000   4.799900e-07   1.264873e-01   1.260597e+01   2.175574e+01   5.517586e+04   2.705897e+05   1.812212e+06  -2.641264e+07   5.385793e+06   7.114067e-15   1.833133e+06   5.879915e-27   0.000000e+00   0.000000e+00
       56000   5.599900e-07   1.309013e-01   1.262762e+01   2.190071e+01   5.517444e+04   2.705900e+05   1.812212e+06  -1.884006e+07   3.841568e+06   8.030099e-16   1.833133e+06   2.991252e-27   0.000000e+00   0.000000e+00
       64000   6.399900e-07   1.353151e-01   1.264927e+01   2.204569e+01   5.517250e+04   2.705904e+05   1.812212e+06  -3.975395e+06   8.105703e+05   1.885256e-16   1.833133e+06   1.335567e-28   0.000000e+00   0.000000e+00
       72000   7.199900e-07   1.397289e-01   1.267092e+01   2.219067e+01   5.517082e+04   2.705907e+05   1.812212e+06  -4.638082e+07   9.456600e+06  -2.461752e-14   1.833133e+06   1.813356e-26   0.000000e+00   0.000000e+00
       80000   7.999900e-07   1.441426e-01   1.269256e+01   2.233564e+01   5.517022e+04   2.705908e+05   1.812212e+06  -3.880826e+07   7.912538e+06   6.187695e-15   1.833133e+06   1.269516e-26   0.000000e+00   0.000000e+00
       88000   8.799900e-07   1.485561e-01   1.271421e+01   2.248062e+01   5.516803e+04   2.705913e+05   1.812212e+06  -3.121566e+07   6.364235e+06   2.128423e-15   1.833133e+06   8.213139e-27   0.000000e+00   0.000000e+00
       96000   9.599900e-07   1.529695e-01   1.273586e+01   2.262560e+01   5.516724e+04   2.705914e+05   1.812212e+06  -2.361894e+07   4.815347e+06  -4.007041e-15   1.833133e+06   4.701592e-27   0.000000e+00   0.000000e+00
      104000   1.039990e-06   1.573828e-01   1.275751e+01   2.277058e+01   5.516599e+04   2.705917e+05   1.812212e+06   1.138611e+07  -2.321306e+06   4.381545e-15   1.833133e+06   1.092145e-27   0.000000e+00   0.000000e+00
      112000   1.119990e-06   1.617960e-01   1.277915e+01   2.291555e+01   5.516432e+04   2.705920e+05   1.812212e+06   5.886307e+06  -1.200014e+06   1.242987e-16   1.833133e+06   2.916631e-28   0.000000e+00   0.000000e+00
      120000   1.199990e-06   1.662092e-01   1.280080e+01   2.306053e+01   5.516401e+04   2.705921e+05   1.812212e+06   4.387435e+05  -8.944406e+04  -7.396717e-17   1.833133e+06   1.588513e-30   0.000000e+00   0.000000e+00
      128000   1.279990e-06   1.706223e-01   1.282245e+01   2.320551e+01   5.516287e+04   2.705923e+05   1.812212e+06  -5.078456e+06   1.035293e+06  -2.712688e-16   1.833133e+06   2.178446e-28   0.000000e+00   0.000000e+00
      136000   1.359990e-06   1.750353e-01   1.284409e+01   2.335048e+01   5.516263e+04   2.705924e+05   1.812212e+06  -2.842783e+07   5.795262e+06  -1.129969e-15   1.833133e+06   6.811388e-27   0.000000e+00   0.000000e+00
      144000   1.439990e-06   1.794483e-01   1.286574e+01   2.349546e+01   5.516245e+04   2.705924e+05   1.812212e+06   2.684414e+07  -5.472395e+06  -1.478214e-14   1.833133e+06   6.073382e-27   0.000000e+00   0.000000e+00
      152000   1.519990e-06   1.838612e-01   1.288739e+01   2.364044e+01   5.516100e+04   2.705927e+05   1.812212e+06   2.132690e+07  -4.347542e+06  -5.058854e-16   1.833133e+06   3.833073e-27   0.000000e+00   0.000000e+00
      160000   1.599990e-06   1.882741e-01   1.290904e+01   2.378541e+01   5.516180e+04   2.705925e+05   1.812212e+06   1.591028e+07  -3.243398e+06   9.186594e-16   1.833133e+06   2.132955e-27   0.000000e+00   0.000000e+00
      168000   1.679990e-06   1.926870e-01   1.293068e+01   2.393039e+01   5.516087e+04   2.705927e+05   1.812212e+06   1.037572e+07  -2.115112e+06   1.198287e-15   1.833133e+06   9.068292e-28   0.000000e+00   0.000000e+00
      176000   1.759990e-06   1.970999e-01   1.295233e+01   2.407537e+01   5.516062e+04   2.705928e+05   1.812212e+06  -3.326647e+07   6.781403e+06  -2.127719e-15   1.833133e+06   9.327806e-27   0.000000e+00   0.000000e+00
      184000   1.839990e-06   2.015128e-01   1.297398e+01   2.422034e+01   5.516078e+04   2.705928e+05   1.812212e+06  -2.251137e+05   4.588980e+04   7.554265e-18   1.833133e+06   4.316309e-31   0.000000e+00   0.000000e+00
      192000   1.919990e-06   2.059256e-01   1.299563e+01   2.436532e+01   5.516064e+04   2.705928e+05   1.812212e+06  -8.673632e+06   1.768129e+06   3.222305e-15   1.833133e+06   6.341202e-28   0.000000e+00   0.000000e+00
      200000   1.999990e-06   2.103385e-01   1.301727e+01   2.451030e+01   5.516029e+04   2.705929e+05   1.812212e+06  -3.351810e+06   6.832657e+05  -6.343907e-16   1.833133e+06   9.478496e-29   0.000000e+00   0.000000e+00
      208000   2.079990e-06   2.147513e-01   1.303892e+01   2.465528e+01   5.516016e+04   2.705929e+05   1.812212e+06  -5.088818e+06   1.037352e+06  -1.547540e-16   1.833133e+06   2.182345e-28   0.000000e+00   0.000000e+00
      216000   2.159990e-06   2.191641e-01   1.306057e+01   2.480025e+01   5.516006e+04   2.705929e+05   1.812212e+06  -3.291301e+06   6.709281e+05   7.179576e-16   1.833133e+06   9.126830e-29   0.000000e+00   0.000000e+00
      224000   2.239990e-06   2.235769e-01   1.308222e+01   2.494523e+01   5.515974e+04   2.705930e+05   1.812212e+06   2.752342e+06  -5.610584e+05   2.280981e-16   1.833133e+06   6.381486e-29   0.000000e+00   0.000000e+00
      232000   2.319990e-06   2.279897e-01   1.310386e+01   2.509021e+01   5.515964e+04   2.705930e+05   1.812212e+06   1.193028e+06  -2.431956e+05   1.250150e-16   1.833133e+06   1.197677e-29   0.000000e+00   0.000000e+00
      240000   2.399990e-06   2.324024e-01   1.312551e+01   2.523518e+01   5.515943e+04   2.705930e+05   1.812212e+06  -3.748210e+05   7.640594e+04   7.230488e-17   1.833133e+06   1.191809e-30   0.000000e+00   0.000000e+00
      248000   2.479990e-06   2.368152e-01   1.314716e+01   2.538016e+01   5.515930e+04   2.705931e+05   1.812212e+06  -6.898941e+06   1.406321e+06  -3.249385e-16   1.833133e+06   4.011473e-28   0.000000e+00   0.000000e+00
      256000   2.559990e-06   2.412279e-01   1.316881e+01   2.552514e+01   5.515929e+04   2.705931e+05   1.812212e+06  -5.095828e+06   1.038764e+06   2.290561e-16   1.833133e+06   2.188357e-28   0.000000e+00   0.000000e+00
      264000   2.639990e-06   2.456406e-01   1.319045e+01   2.567011e+01   5.515912e+04   2.705931e+05   1.812212e+06   5.748262e+06  -1.171756e+06  -5.853405e-16   1.833133e+06   2.784704e-28   0.000000e+00   0.000000e+00
      272000   2.719990e-06   2.500534e-01   1.321210e+01   2.581509e+01   5.515915e+04   2.705931e+05   1.812212e+06  -1.477437e+06   3.011686e+05   4.957860e-16   1.833133e+06   1.837525e-29   0.000000e+00   0.000000e+00
      280000   2.799990e-06   2.544661e-01   1.323375e+01   2.596007e+01   5.515898e+04   2.705931e+05   1.812212e+06   2.620618e+06  -5.341992e+05   8.333685e-16   1.833133e+06   5.785001e-29   0.000000e+00   0.000000e+00
      288000   2.879990e-06   2.588788e-01   1.325540e+01   2.610505e+01   5.515878e+04   2.705932e+05   1.812212e+06   1.047931e+06  -2.136145e+05  -2.106139e-16   1.833133e+06   9.238119e-30   0.000000e+00   0.000000e+00
      296000   2.959990e-06   2.632915e-01   1.327704e+01   2.625002e+01   5.515884e+04   2.705932e+05   1.812212e+06  -6.911381e+06   1.408845e+06  -6.960707e-16   1.833133e+06   4.025948e-28   0.000000e+00   0.000000e+00
      304000   3.039990e-06   2.677042e-01   1.329869e+01   2.639500e+01   5.515891e+04   2.705931e+05   1.812212e+06   8.762585e+06  -1.786204e+06   2.516670e-15   1.833133e+06   6.471875e-28   0.000000e+00   0.000000e+00
      312000   3.119990e-06   2.721169e-01   1.332034e+01   2.653998e+01   5.515896e+04   2.705931e+05   1.812212e+06  -3.287379e+06   6.701145e+05   7.404124e-16   1.833133e+06   9.105008e-29   0.000000e+00   0.000000e+00
      320000   3.199990e-06   2.765296e-01   1.334199e+01   2.668495e+01   5.515893e+04   2.705931e+05   1.812212e+06   5.634426e+06  -1.148547e+06  -4.437288e-17   1.833133e+06   2.675473e-28   0.000000e+00   0.000000e+00
      328000   3.279990e-06   2.809424e-01   1.336363e+01   2.682993e+01   5.515872e+04   2.705932e+05   1.812212e+06   4.056911e+06  -8.269758e+05   1.021084e-15   1.833133e+06   1.386827e-28   0.000000e+00   0.000000e+00
      336000   3.359990e-06   2.853551e-01   1.338528e+01   2.697491e+01   5.515870e+04   2.705932e+05   1.812212e+06  -8.737943e+06   1.781174e+06   2.596791e-16   1.833133e+06   6.435558e-28   0.000000e+00   0.000000e+00
      344000   3.439990e-06   2.897678e-01   1.340693e+01   2.711988e+01   5.515876e+04   2.705932e+05   1.812212e+06   9.046402e+05  -1.844054e+05   1.419686e-17   1.833133e+06   6.881929e-30   0.000000e+00   0.000000e+00
      352000   3.519990e-06   2.941805e-01   1.342858e+01   2.726486e+01   5.515881e+04   2.705932e+05   1.812212e+06  -5.108303e+06   1.041297e+06   1.580408e-15   1.833133e+06   2.199077e-28   0.000000e+00   0.000000e+00
      360000   3.599990e-06   2.985932e-01   1.345022e+01   2.740984e+01   5.515894e+04   2.705931e+05   1.812212e+06  -3.288485e+06   6.703398e+05  -4.359691e-17   1.833133e+06   9.111121e-29   0.000000e+00   0.000000e+00
      368000   3.679990e-06   3.030059e-01   1.347187e+01   2.755481e+01   5.515881e+04   2.705932e+05   1.812212e+06   5.305198e+00  -1.081433e+00   8.551571e-22   1.833133e+06   2.373017e-40   0.000000e+00   0.000000e+00
      376000   3.759990e-06   3.074186e-01   1.349352e+01   2.769979e+01   5.515881e+04   2.705932e+05   1.812212e+06   6.407960e+00  -1.306225e+00   1.220105e-21   1.833133e+06   3.461400e-40   0.000000e+00   0.000000e+00
      384000   3.839990e-06   3.118313e-01   1.351517e+01   2.784477e+01   5.515881e+04   2.705932e+05   1.812212e+06   4.999646e+00  -1.019148e+00   2.901235e-22   1.833133e+06   2.106986e-40   0.000000e+00   0.000000e+00
      392000   3.919990e-06   3.162440e-01   1.353681e+01   2.798975e+01   5.515881e+04   2.705932e+05   1.812212e+06   2.074778e+00  -4.229313e-01  -6.467803e-23   1.833133e+06   3.632146e-41   0.000000e+00   0.000000e+00
      400000   3.999990e-06   3.206567e-01   1.355846e+01   2.813472e+01   5.515881e+04   2.705932e+05   1.812212e+06   2.763525e+00  -5.633281e-01   8.109050e-22   1.833133e+06   6.442613e-41   0.000000e+00   0.000000e+00
      408000   4.079990e-06   3.250694e-01   1.358011e+01   2.827970e+01   5.515881e+04   2.705932e+05   1.812212e+06   4.126302e+00  -8.411222e-01  -3.766294e-22   1.833133e+06   1.435108e-40   0.000000e+00   0.000000e+00
      416000   4.159990e-06   3.294821e-01   1.360176e+01   2.842468e+01   5.515881e+04   2.705932e+05   1.812212e+06   1.636235e+00  -3.335368e-01  -9.617221e-23   1.833133e+06   2.257101e-41   0.000000e+00   0.000000e+00
      424000   4.239990e-06   3.338948e-01   1.362340e+01   2.856965e+01   5.515881e+04   2.705932e+05   1.812212e+06  -7.449462e-02   1.518529e-02  -1.866291e-23   1.833133e+06   4.647310e-44   0.000000e+00   0.000000e+00
      432000   4.319990e-06   3.383075e-01   1.364505e+01   2.871463e+01   5.515881e+04   2.705932e+05   1.812212e+06  -2.250923e-01   4.588374e-02   7.805615e-23   1.833133e+06   4.262199e-43   0.000000e+00   0.000000e+00
      440000   4.399990e-06   3.427202e-01   1.366670e+01   2.885961e+01   5.515881e+04   2.705932e+05   1.812212e+06  -1.122741e+00   2.288642e-01   1.673580e-22   1.833133e+06   1.062847e-41   0.000000e+00   0.000000e+00
      448000   4.479990e-06   3.471329e-01   1.368834e+01   2.900458e+01   5.515881e+04   2.705932e+05   1.812212e+06  -2.660944e+00   5.424177e-01   9.706843e-23   1.833133e+06   5.969873e-41   0.000000e+00   0.000000e+00
      456000   4.559990e-06   3.515456e-01   1.370999e+01   2.914956e+01   5.515881e+04   2.705932e+05   1.812212e+06   1.541330e+00  -3.141909e-01  -1.369591e-22   1.833133e+06   2.004480e-41   0.000000e+00   0.000000e+00
      464000   4.639990e-06   3.559583e-01   1.373164e+01   2.929454e+01   5.515881e+04   2.705932e+05   1.812212e+06   1.019543e+01  -2.078278e+00  -2.663012e-21   1.833133e+06   8.762200e-40   0.000000e+00   0.000000e+00
      472000   4.719990e-06   3.603710e-01   1.375329e+01   2.943952e+01   5.515881e+04   2.705932e+05   1.812212e+06   1.075478e+01  -2.192298e+00  -8.788925e-22   1.833133e+06   9.750097e-40   0.000000e+00   0.000000e+00
      480000   4.799990e-06   3.647837e-01   1.377493e+01   2.958449e+01   5.515881e+04   2.705932e+05   1.812212e+06   1.142103e+00  -2.328110e-01   9.270849e-23   1.833133e+06   1.100872e-41   0.000000e+00   0.000000e+00
      488000   4.879990e-06   3.691965e-01   1.379658e+01   2.972947e+01   5.515881e+04   2.705932e+05   1.812212e+06   3.136938e+00  -5.474141e-01  -1.374193e-02   1.833133e+06   8.206737e-41   0.000000e+00   0.000000e+00
      496000   4.959990e-06   3.736092e-01   1.381823e+01   2.987445e+01   5.515881e+04   2.705932e+05   1.812212e+06   1.752306e+00  -1.452467e+01   2.115437e+00   1.833133e+06   1.766358e-39   0.000000e+00   0.000000e+00
      504000   5.039990e-06   3.780219e-01   1.383988e+01   3.001942e+01   5.515881e+04   2.705932e+05   1.812212e+06  -8.332351e+00   1.792132e+01  -2.422335e+00   1.833133e+06   3.205398e-39   0.000000e+00   0.000000e+00
      512000   5.119990e-06   3.824346e-01   1.386152e+01   3.016440e+01   5.515881e+04   2.705932e+05   1.812212e+06   3.252888e+00   4.448213e+00  -7.632006e-01   1.833133e+06   2.504752e-40   0.000000e+00   0.000000e+00
      520000   5.199990e-06   3.868473e-01   1.388317e+01   3.030938e+01   5.515881e+04   2.705932e+05   1.812212e+06   6.037121e-01  -1.230631e-01  -1.539259e-22   1.833133e+06   3.064732e-42   0.000000e+00   0.000000e+00
      528000   5.279990e-06   3.912600e-01   1.390482e+01   3.045435e+01   5.515881e+04   2.705932e+05   1.812212e+06   2.361063e+00  -4.812886e-01   7.600720e-23   1.833133e+06   4.702929e-41   0.000000e+00   0.000000e+00
      536000   5.359990e-06   3.956727e-01   1.392647e+01   3.059933e+01   5.515881e+04   2.705932e+05   1.812212e+06   1.065404e+01  -2.171762e+00  -1.531321e-21   1.833133e+06   9.568598e-40   0.000000e+00   0.000000e+00
      544000   5.439990e-06   4.000854e-01   1.394811e+01   3.074431e+01   5.515881e+04   2.705932e+05   1.812212e+06   1.960610e+00  -3.996588e-01   4.859531e-22   1.833133e+06   3.243068e-41   0.000000e+00   0.000000e+00
      552000   5.519990e-06   4.044981e-01   1.396976e+01   3.088928e+01   5.515881e+04   2.705932e+05   1.812212e+06   4.112576e+00  -8.383243e-01   1.103411e-22   1.833133e+06   1.425771e-40   0.000000e+00   0.000000e+00
      560000   5.599990e-06   4.089108e-01   1.399141e+01   3.103426e+01   5.515881e+04   2.705932e+05   1.812212e+06   2.149224e+00  -4.381066e-01  -2.067177e-22   1.833133e+06   3.893423e-41   0.000000e+00   0.000000e+00
      568000   5.679990e-06   4.133235e-01   1.401306e+01   3.117924e+01   5.515881e+04   2.705932e+05   1.812212e+06   2.360081e+00  -4.810886e-01  -1.243049e-22   1.833133e+06   4.693320e-41   0.000000e+00   0.000000e+00
      576000   5.759990e-06   4.177362e-01   1.403470e+01   3.132422e+01   5.515881e+04   2.705932e+05   1.812212e+06   2.715763e+00  -5.535922e-01  -9.766781e-22   1.833133e+06   6.215031e-41   0.000000e+00   0.000000e+00
      584000   5.839990e-06   4.221489e-01   1.405635e+01   3.146919e+01   5.515881e+04   2.705932e+05   1.812212e+06  -4.320416e-01   8.806913e-02   3.052669e-23   1.833133e+06   1.570410e-42   0.000000e+00   0.000000e+00
      592000   5.919990e-06   4.265616e-01   1.407800e+01   3.161417e+01   5.515881e+04   2.705932e+05   1.812212e+06   1.086411e+00  -2.214585e-01  -1.031200e-22   1.833133e+06   9.959426e-42   0.000000e+00   0.000000e+00
      600000   5.999990e-06   4.309743e-01   1.409965e+01   3.175915e+01   5.515881e+04   2.705932e+05   1.812212e+06   8.955648e+00  -1.825556e+00  -1.362752e-21   1.833133e+06   6.760949e-40   0.000000e+00   0.000000e+00
      608000   6.079990e-06   4.353870e-01   1.412129e+01   3.190412e+01   5.515881e+04   2.705932e+05   1.812212e+06   8.957902e-01  -1.826015e-01   2.359605e-22   1.833133e+06   6.779706e-42   0.000000e+00   0.000000e+00
      616000   6.159990e-06   4.397997e-01   1.414294e+01   3.204910e+01   5.515881e+04   2.705932e+05   1.812212e+06  -1.096195e+00   2.234530e-01   5.424321e-23   1.833133e+06   1.014103e-41   0.000000e+00   0.000000e+00
      624000   6.239990e-06   4.442124e-01   1.416459e+01   3.219408e+01   5.515881e+04   2.705932e+05   1.812212e+06  -6.609360e+00   1.347279e+00   2.341195e-22   1.833133e+06   3.681926e-40   0.000000e+00   0.000000e+00
      632000   6.319990e-06   4.486251e-01   1.418624e+01   3.233905e+01   5.515881e+04   2.705932e+05   1.812212e+06  -6.540215e+00   1.333184e+00   2.692028e-21   1.833133e+06   3.605280e-40   0.000000e+00   0.000000e+00
      640000   6.399990e-06   4.530378e-01   1.420788e+01   3.248403e+01   5.515881e+04   2.705932e+05   1.812212e+06   1.564100e+00  -3.188325e-01   8.568981e-23   1.833133e+06   2.062026e-41   0.000000e+00   0.000000e+00
      648000   6.479990e-06   4.574506e-01   1.422953e+01   3.262901e+01   5.515881e+04   2.705932e+05   1.812212e+06   2.534911e+00  -5.167266e-01   3.078857e-22   1.833133e+06   5.416699e-41   0.000000e+00   0.000000e+00
      656000   6.559990e-06   4.618633e-01   1.425118e+01   3.277399e+01   5.515881e+04   2.705932e+05   1.812212e+06   3.792975e+00  -7.731755e-01  -8.270493e-22   1.833133e+06   1.212860e-40   0.000000e+00   0.000000e+00
      664000   6.639990e-06   4.662760e-01   1.427283e+01   3.291896e+01   5.515881e+04   2.705932e+05   1.812212e+06   5.538355e+00  -1.128961e+00  -1.293724e-21   1.833133e+06   2.585959e-40   0.000000e+00   0.000000e+00
      672000   6.719990e-06   4.706887e-01   1.429447e+01   3.306394e+01   5.515881e+04   2.705932e+05   1.812212e+06   6.142678e+00  -1.252149e+00  -1.068133e-21   1.833133e+06   3.181023e-40   0.000000e+00   0.000000e+00
      680000   6.799990e-06   4.751014e-01   1.431612e+01   3.320892e+01   5.515881e+04   2.705932e+05   1.812212e+06   2.840645e-01  -5.790488e-02   3.783104e-23   1.833133e+06   6.784979e-43   0.000000e+00   0.000000e+00
      688000   6.879990e-06   4.795141e-01   1.433777e+01   3.335389e+01   5.515881e+04   2.705932e+05   1.812212e+06  -1.162361e+00   2.369403e-01   1.970032e-22   1.833133e+06   1.137949e-41   0.000000e+00   0.000000e+00
      696000   6.959990e-06   4.839268e-01   1.435942e+01   3.349887e+01   5.515881e+04   2.705932e+05   1.812212e+06   1.415169e+00  -2.884739e-01  -1.934121e-22   1.833133e+06   1.687576e-41   0.000000e+00   0.000000e+00
      704000   7.039990e-06   4.883395e-01   1.438106e+01   3.364385e+01   5.515881e+04   2.705932e+05   1.812212e+06  -5.028349e-01   1.024999e-01  -1.169391e-22   1.833133e+06   2.134959e-42   0.000000e+00   0.000000e+00
      712000   7.119990e-06   4.927522e-01   1.440271e+01   3.378882e+01   5.515881e+04   2.705932e+05   1.812212e+06  -4.392082e-01   8.952999e-02   4.951187e-23   1.833133e+06   1.626222e-42   0.000000e+00   0.000000e+00
      720000   7.199990e-06   4.971649e-01   1.442436e+01   3.393380e+01   5.515881e+04   2.705932e+05   1.812212e+06  -2.752334e-01   5.610471e-02  -1.357229e-23   1.833133e+06   6.385816e-43   0.000000e+00   0.000000e+00
      728000   7.279990e-06   5.015776e-01   1.444601e+01   3.407878e+01   5.515881e+04   2.705932e+05   1.812212e+06   9.201426e-01  -1.875656e-01   2.254566e-22   1.833133e+06   7.143246e-42   0.000000e+00   0.000000e+00
      736000   7.359990e-06   5.059903e-01   1.446765e+01   3.422375e+01   5.515881e+04   2.705932e+05   1.812212e+06   2.500345e+00  -5.096806e-01  -1.281450e-22   1.833133e+06   5.272211e-41   0.000000e+00   0.000000e+00
      744000   7.439990e-06   5.104030e-01   1.448930e+01   3.436873e+01   5.515881e+04   2.705932e+05   1.812212e+06   2.346804e+00  -4.783821e-01  -2.044469e-22   1.833133e+06   4.641726e-41   0.000000e+00   0.000000e+00
      752000   7.519990e-06   5.148157e-01   1.451095e+01   3.451371e+01   5.515881e+04   2.705932e+05   1.812212e+06   1.258473e-01  -2.565322e-02  -3.888597e-23   1.833133e+06   1.328316e-43   0.000000e+00   0.000000e+00
      760000   7.599990e-06   5.192284e-01   1.453260e+01   3.465869e+01   5.515881e+04   2.705932e+05   1.812212e+06  -2.228648e+00   4.542966e-01  -3.871895e-24   1.833133e+06   4.184962e-41   0.000000e+00   0.000000e+00
      768000   7.679990e-06   5.236411e-01   1.455424e+01   3.480366e+01   5.515881e+04   2.705932e+05   1.812212e+06  -2.728547e+00   5.561981e-01   7.069204e-23   1.833133e+06   6.273666e-41   0.000000e+00   0.000000e+00
      776000   7.759990e-06   5.280538e-01   1.457589e+01   3.494864e+01   5.515881e+04   2.705932e+05   1.812212e+06  -2.164168e+00   4.411529e-01   2.300812e-22   1.833133e+06   3.949975e-41   0.000000e+00   0.000000e+00
      784000   7.839990e-06   5.324665e-01   1.459754e+01   3.509362e+01   5.515881e+04   2.705932e+05   1.812212e+06  -8.809565e+00   1.795778e+00   1.492231e-21   1.833133e+06   6.542156e-40   0.000000e+00   0.000000e+00
      792000   7.919990e-06   5.368792e-01   1.461919e+01   3.523859e+01   5.515881e+04   2.705932e+05   1.812212e+06  -1.297950e+00   2.645794e-01  -1.205544e-22   1.833133e+06   1.420636e-41   0.000000e+00   0.000000e+00
      800000   7.999990e-06   5.412920e-01   1.464083e+01   3.538357e+01   5.515881e+04   2.705932e+05   1.812212e+06  -6.089916e+00   1.241393e+00  -7.745133e-23   1.833133e+06   3.126584e-40   0.000000e+00   0.000000e+00
      808000   8.079990e-06   5.457047e-01   1.466248e+01   3.552855e+01   5.515881e+04   2.705932e+05   1.812212e+06  -7.660026e+00   1.561451e+00  -1.389162e-21   1.833133e+06   4.946692e-40   0.000000e+00   0.000000e+00
      816000   8.159990e-06   5.501174e-01   1.468413e+01   3.567352e+01   5.515881e+04   2.705932e+05   1.812212e+06   1.226830e+00  -2.500820e-01  -6.703910e-22   1.833133e+06   1.268697e-41   0.000000e+00   0.000000e+00
      824000   8.239990e-06   5.545301e-01   1.470578e+01   3.581850e+01   5.515881e+04   2.705932e+05   1.812212e+06   1.333473e+00  -2.718206e-01  -1.690038e-24   1.833133e+06   1.503743e-41   0.000000e+00   0.000000e+00
      832000   8.319990e-06   5.589428e-01   1.472742e+01   3.596348e+01   5.515881e+04   2.705932e+05   1.812212e+06   5.137681e+00  -1.047286e+00  -3.871534e-23   1.833133e+06   2.223499e-40   0.000000e+00   0.000000e+00
      840000   8.399990e-06   5.633555e-01   1.474907e+01   3.610846e+01   5.515881e+04   2.705932e+05   1.812212e+06   1.593393e+00  -3.248037e-01   2.280276e-23   1.833133e+06   2.134552e-41   0.000000e+00   0.000000e+00
      848000   8.479990e-06   5.677682e-01   1.477072e+01   3.625343e+01   5.515881e+04   2.705932e+05   1.812212e+06  -4.633937e+00   9.446007e-01  -2.758365e-22   1.833133e+06   1.808837e-40   0.000000e+00   0.000000e+00
      856000   8.559990e-06   5.721809e-01   1.479237e+01   3.639841e+01   5.515881e+04   2.705932e+05   1.812212e+06   1.593706e+01  -3.248676e+00   1.022187e-22   1.833133e+06   2.140797e-39   0.000000e+00   0.000000e+00
      864000   8.639990e-06   5.765936e-01   1.481401e+01   3.654339e+01   5.515881e+04   2.705932e+05   1.812212e+06   3.188049e+00  -6.498650e-01   1.215312e-22   1.833133e+06   8.570696e-41   0.000000e+00   0.000000e+00
      872000   8.719990e-06   5.810063e-01   1.483566e+01   3.668836e+01   5.515881e+04   2.705932e+05   1.812212e+06   1.251966e+00  -2.552059e-01  -1.231169e-22   1.833133e+06   1.320203e-41   0.000000e+00   0.000000e+00
      880000   8.799990e-06   5.854190e-01   1.485731e+01   3.683334e+01   5.515881e+04   2.705932e+05   1.812212e+06   9.633492e-01  -1.963730e-01   2.120806e-22   1.833133e+06   7.814400e-42   0.000000e+00   0.000000e+00
      888000   8.879990e-06   5.898317e-01   1.487895e+01   3.697832e+01   5.515881e+04   2.705932e+05   1.812212e+06   6.049212e+00  -1.233096e+00  -1.604799e-21   1.833133e+06   3.085483e-40   0.000000e+00   0.000000e+00
      896000   8.959990e-06   5.942444e-01   1.490060e+01   3.712329e+01   5.515881e+04   2.705932e+05   1.812212e+06   2.305402e+00  -4.699425e-01  -6.152130e-23   1.833133e+06   4.482314e-41   0.000000e+00   0.000000e+00
      904000   9.039990e-06   5.986571e-01   1.492225e+01   3.726827e+01   5.515881e+04   2.705932e+05   1.812212e+06   9.318673e+00  -1.899556e+00  -2.871945e-23   1.833133e+06   7.320364e-40   0.000000e+00   0.000000e+00
      912000   9.119990e-06   6.030698e-01   1.494390e+01   3.741325e+01   5.515881e+04   2.705932e+05   1.812212e+06   1.626519e+00  -3.315563e-01   6.724861e-22   1.833133e+06   2.233110e-41   0.000000e+00   0.000000e+00
      920000   9.199990e-06   6.074825e-01   1.496554e+01   3.755822e+01   5.515881e+04   2.705932e+05   1.812212e+06   1.184643e+00  -2.414825e-01   2.862428e-22   1.833133e+06   1.182233e-41   0.000000e+00   0.000000e+00
      928000   9.279990e-06   6.118952e-01   1.498719e+01   3.770320e+01   5.515881e+04   2.705932e+05   1.812212e+06  -2.149867e+00   4.382378e-01  -1.609639e-22   1.833133e+06   3.898507e-41   0.000000e+00   0.000000e+00
      936000   9.359990e-06   6.163079e-01   1.500884e+01   3.784818e+01   5.515881e+04   2.705932e+05   1.812212e+06  -3.677054e+00   7.495457e-01  -5.761368e-22   1.833133e+06   1.139867e-40   0.000000e+00   0.000000e+00
      944000   9.439990e-06   6.207206e-01   1.503049e+01   3.799316e+01   5.515881e+04   2.705932e+05   1.812212e+06  -1.448957e+00   2.953613e-01  -1.153752e-23   1.833133e+06   1.769951e-41   0.000000e+00   0.000000e+00
      952000   9.519990e-06   6.251334e-01   1.505213e+01   3.813813e+01   5.515881e+04   2.705932e+05   1.812212e+06  -8.337041e-01   1.699456e-01  -7.962360e-24   1.833133e+06   5.859382e-42   0.000000e+00   0.000000e+00
      960000   9.599990e-06   6.295461e-01   1.507378e+01   3.828311e+01   5.515881e+04   2.705932e+05   1.812212e+06  -8.398596e+00   1.712004e+00  -2.578750e-21   1.833133e+06   5.946789e-40   0.000000e+00   0.000000e+00
      968000   9.679990e-06   6.339588e-01   1.509543e+01   3.842809e+01   5.515881e+04   2.705932e+05   1.812212e+06  -1.031254e+01   2.102150e+00   1.439870e-21   1.833133e+06   8.966073e-40   0.000000e+00   0.000000e+00
      976000   9.759990e-06   6.383715e-01   1.511708e+01   3.857306e+01   5.515881e+04   2.705932e+05   1.812212e+06  -5.134414e+00   1.046620e+00  -4.621012e-22   1.833133e+06   2.221526e-40   0.000000e+00   0.000000e+00
      984000   9.839990e-06   6.427842e-01   1.513872e+01   3.871804e+01   5.515881e+04   2.705932e+05   1.812212e+06   4.362430e-01  -8.892555e-02  -1.013088e-22   1.833133e+06   1.613676e-42   0.000000e+00   0.000000e+00
      992000   9.919990e-06   6.471969e-01   1.516037e+01   3.886302e+01   5.515881e+04   2.705932e+05   1.812212e+06   1.548866e+00  -3.157271e-01   5.752809e-22   1.833133e+06   2.018418e-41   0.000000e+00   0.000000e+00
     1000000   9.999990e-06   6.516096e-01   1.518202e+01   3.900799e+01   5.515881e+04   2.705932e+05   1.812212e+06  -1.204643e+00   2.455594e-01   6.386343e-23   1.833133e+06   1.226732e-41   0.000000e+00   0.000000e+00
     1008000   1.007999e-05   6.560223e-01   1.520367e+01   3.915297e+01   5.515881e+04   2.705932e+05   1.812212e+06  -1.179899e+00   2.405155e-01   6.069478e-22   1.833133e+06   1.171061e-41   0.000000e+00   0.000000e+00
     1016000   1.015999e-05   6.604350e-01   1.522531e+01   3.929795e+01   5.515881e+04   2.705932e+05   1.812212e+06   1.409355e+01  -2.872888e+00  -3.018732e-21   1.833133e+06   1.674274e-39   0.000000e+00   0.000000e+00
     1024000   1.023999e-05   6.648477e-01   1.524696e+01   3.944293e+01   5.515881e+04   2.705932e+05   1.812212e+06   1.224231e+01  -2.495522e+00   2.627206e-21   1.833133e+06   1.263275e-39   0.000000e+00   0.000000e+00
     1032000   1.031999e-05   6.692604e-01   1.526861e+01   3.958790e+01   5.515881e+04   2.705932e+05   1.812212e+06  -5.077513e+00   1.035021e+00   3.038574e-23   1.833133e+06   2.172464e-40   0.000000e+00   0.000000e+00
     1040000   1.039999e-05   6.736731e-01   1.529026e+01   3.973288e+01   5.515881e+04   2.705932e+05   1.812212e+06  -1.644985e+00   3.353206e-01   1.570190e-22   1.833133e+06   2.277688e-41   0.000000e+00   0.000000e+00
     1048000   1.047999e-05   6.780858e-01   1.531190e+01   3.987786e+01   5.515881e+04   2.705932e+05   1.812212e+06  -4.996435e+00   1.018494e+00  -1.808336e-22   1.833133e+06   2.104376e-40   0.000000e+00   0.000000e+00
     1056000   1.055999e-05   6.824985e-01   1.533355e+01   4.002283e+01   5.515881e+04   2.705932e+05   1.812212e+06  -6.202400e+00   1.264323e+00  -1.081879e-21   1.833133e+06   3.242929e-40   0.000000e+00   0.000000e+00
     1064000   1.063999e-05   6.869112e-01   1.535520e+01   4.016781e+01   5.515881e+04   2.705932e+05   1.812212e+06  -4.528626e-01   9.231337e-02   4.197714e-23   1.833133e+06   1.730235e-42   0.000000e+00   0.000000e+00
     1072000   1.071999e-05   6.913239e-01   1.537685e+01   4.031279e+01   5.515881e+04   2.705932e+05   1.812212e+06  -1.616181e+00   3.294489e-01  -1.025204e-22   1.833133e+06   2.202634e-41   0.000000e+00   0.000000e+00
     1080000   1.079999e-05   6.957366e-01   1.539849e+01   4.045776e+01   5.515881e+04   2.705932e+05   1.812212e+06  -1.219962e+01   2.486820e+00   1.916662e-21   1.833133e+06   1.254704e-39   0.000000e+00   0.000000e+00
     1088000   1.087999e-05   7.001493e-01   1.542014e+01   4.060274e+01   5.515881e+04   2.705932e+05   1.812212e+06  -1.279486e+00   2.608157e-01  -8.868112e-24   1.833133e+06   1.380064e-41   0.000000e+00   0.000000e+00
     1096000   1.095999e-05   7.045620e-01   1.544179e+01   4.074772e+01   5.515881e+04   2.705932e+05   1.812212e+06  -8.847984e-01   1.803609e-01   4.433174e-23   1.833133e+06   6.603425e-42   0.000000e+00   0.000000e+00
     1104000   1.103999e-05   7.089747e-01   1.546344e+01   4.089269e+01   5.515881e+04   2.705932e+05   1.812212e+06  -1.042929e+00   2.125949e-01  -4.972507e-23   1.833133e+06   9.169074e-42   0.000000e+00   0.000000e+00
     1112000   1.111999e-05   7.133875e-01   1.548508e+01   4.103767e+01   5.515881e+04   2.705932e+05   1.812212e+06  -1.839132e-01   3.748962e-02   1.390315e-24   1.833133e+06   2.849305e-43   0.000000e+00   0.000000e+00
     1120000   1.119999e-05   7.178002e-01   1.550673e+01   4.118265e+01   5.515881e+04   2.705932e+05   1.812212e+06  -3.897414e-01   7.944648e-02   1.785348e-23   1.833133e+06   1.279909e-42   0.000000e+00   0.000000e+00
     1128000   1.127999e-05   7.222129e-01   1.552838e+01   4.132763e+01   5.515881e+04   2.705932e+05   1.812212e+06  -6.929766e-01   1.412592e-01  -3.171937e-23   1.833133e+06   4.047386e-42   0.000000e+00   0.000000e+00
     1136000   1.135999e-05   7.266256e-01   1.555003e+01   4.147260e+01   5.515881e+04   2.705932e+05   1.812212e+06  -1.629439e+00   3.321515e-01  -1.841178e-22   1.833133e+06   2.238454e-41   0.000000e+00   0.000000e+00
     1144000   1.143999e-05   7.310383e-01   1.557167e+01   4.161758e+01   5.515881e+04   2.705932e+05   1.812212e+06  -2.370239e+00   4.831592e-01   4.072036e-22   1.833133e+06   4.736516e-41   0.000000e+00   0.000000e+00
     1152000   1.151999e-05   7.354510e-01   1.559332e+01   4.176256e+01   5.515881e+04   2.705932e+05   1.812212e+06  -2.213953e+00   4.513013e-01   1.044764e-21   1.833133e+06   4.132118e-41   0.000000e+00   0.000000e+00
     1160000   1.159999e-05   7.398637e-01   1.561497e+01   4.190753e+01   5.515881e+04   2.705932e+05   1.812212e+06  -4.826620e+00   9.838780e-01   1.621479e-21   1.833133e+06   1.964147e-40   0.000000e+00   0.000000e+00
     1168000   1.167999e-05   7.442764e-01   1.563662e+01   4.205251e+01   5.515881e+04   2.705932e+05   1.812212e+06  -4.421573e+00   9.013115e-01   8.621005e-22   1.833133e+06   1.648330e-40   0.000000e+00   0.000000e+00
     1176000   1.175999e-05   7.486891e-01   1.565826e+01   4.219749e+01   5.515881e+04   2.705932e+05   1.812212e+06  -3.223038e+00   6.569972e-01  -3.006332e-22   1.833133e+06   8.758346e-41   0.000000e+00   0.000000e+00
     1184000   1.183999e-05   7.531018e-01   1.567991e+01   4.234246e+01   5.515881e+04   2.705932e+05   1.812212e+06  -1.935543e+00   3.945490e-01  -3.362475e-22   1.833133e+06   3.158668e-41   0.000000e+00   0.000000e+00
     1192000   1.191999e-05   7.575145e-01   1.570156e+01   4.248744e+01   5.515881e+04   2.705932e+05   1.812212e+06   6.845069e+00  -1.395327e+00   1.172673e-22   1.833133e+06   3.948316e-40   0.000000e+00   0.000000e+00
     1200000   1.199999e-05   7.619272e-01   1.572321e+01   4.263242e+01   5.515881e+04   2.705932e+05   1.812212e+06   5.759286e+00  -1.173996e+00  -1.788805e-22   1.833133e+06   2.794803e-40   0.000000e+00   0.000000e+00
     1208000   1.207999e-05   7.663399e-01   1.574485e+01   4.277740e+01   5.515881e+04   2.705932e+05   1.812212e+06  -5.719753e+00   1.165938e+00  -1.452376e-21   1.833133e+06   2.756865e-40   0.000000e+00   0.000000e+00
     1216000   1.215999e-05   7.707526e-01   1.576650e+01   4.292237e+01   5.515881e+04   2.705932e+05   1.812212e+06  -2.052549e+00   4.184000e-01   8.497014e-23   1.833133e+06   3.546954e-41   0.000000e+00   0.000000e+00
     1224000   1.223999e-05   7.751653e-01   1.578815e+01   4.306735e+01   5.515881e+04   2.705932e+05   1.812212e+06   1.774060e+01  -3.616317e+00  -5.129455e-22   1.833133e+06   2.652961e-39   0.000000e+00   0.000000e+00
     1232000   1.231999e-05   7.795780e-01   1.580980e+01   4.321233e+01   5.515881e+04   2.705932e+05   1.812212e+06  -6.685243e+00   1.362747e+00  -1.219459e-21   1.833133e+06   3.766145e-40   0.000000e+00   0.000000e+00
     1240000   1.239999e-05   7.839907e-01   1.583144e+01   4.335730e+01   5.515881e+04   2.705932e+05   1.812212e+06  -1.159355e-01   2.363276e-02   2.157989e-23   1.833133e+06   1.158161e-43   0.000000e+00   0.000000e+00
     1248000   1.247999e-05   7.884034e-01   1.585309e+01   4.350228e+01   5.515881e+04   2.705932e+05   1.812212e+06  -3.777335e+00   7.699874e-01   1.105988e-21   1.833133e+06   1.203770e-40   0.000000e+00   0.000000e+00
     1256000   1.255999e-05   7.928161e-01   1.587474e+01   4.364726e+01   5.515881e+04   2.705932e+05   1.812212e+06  -1.932227e+01   3.938731e+00  -3.367244e-21   1.833133e+06   3.147181e-39   0.000000e+00   0.000000e+00
     1264000   1.263999e-05   7.972289e-01   1.589639e+01   4.379223e+01   5.515881e+04   2.705932e+05   1.812212e+06   2.713140e+00  -5.530575e-01   1.841604e-22   1.833133e+06   6.200386e-41   0.000000e+00   0.000000e+00
     1272000   1.271999e-05   8.016416e-01   1.591803e+01   4.393721e+01   5.515881e+04   2.705932e+05   1.812212e+06  -3.114908e+00   6.349555e-01   1.671141e-22   1.833133e+06   8.181489e-41   0.000000e+00   0.000000e+00
     1280000   1.279999e-05   8.060543e-01   1.593968e+01   4.408219e+01   5.515881e+04   2.705932e+05   1.812212e+06  -1.769725e+00   3.607479e-01  -5.036987e-22   1.833133e+06   2.640330e-41   0.000000e+00   0.000000e+00
     1288000   1.287999e-05   8.104670e-01   1.596133e+01   4.422716e+01   5.515881e+04   2.705932e+05   1.812212e+06  -2.017141e-01   4.111822e-02   2.488948e-24   1.833133e+06   3.428117e-43   0.000000e+00   0.000000e+00
     1296000   1.295999e-05   8.148797e-01   1.598297e+01   4.437214e+01   5.515881e+04   2.705932e+05   1.812212e+06  -2.078314e+00   4.236520e-01   1.386511e-22   1.833133e+06   3.642461e-41   0.000000e+00   0.000000e+00
     1304000   1.303999e-05   8.192924e-01   1.600462e+01   4.451712e+01   5.515881e+04   2.705932e+05   1.812212e+06  -2.905428e+00   5.922544e-01   5.168635e-22   1.833133e+06   7.120109e-41   0.000000e+00   0.000000e+00
     1312000   1.311999e-05   8.237051e-01   1.602627e+01   4.466210e+01   5.515881e+04   2.705932e+05   1.812212e+06  -4.792783e+00   9.769805e-01  -1.374916e-21   1.833133e+06   1.935866e-40   0.000000e+00   0.000000e+00
     1320000   1.319999e-05   8.281178e-01   1.604792e+01   4.480707e+01   5.515881e+04   2.705932e+05   1.812212e+06  -5.008082e+00   1.020868e+00   5.843710e-23   1.833133e+06   2.113734e-40   0.000000e+00   0.000000e+00
     1328000   1.327999e-05   8.325305e-01   1.606956e+01   4.495205e+01   5.515881e+04   2.705932e+05   1.812212e+06  -3.554656e+00   7.245956e-01  -5.686112e-22   1.833133e+06   1.065682e-40   0.000000e+00   0.000000e+00
     1336000   1.335999e-05   8.369432e-01   1.609121e+01   4.509703e+01   5.515881e+04   2.705932e+05   1.812212e+06  -1.321635e+01   2.694074e+00  -2.023411e-21   1.833133e+06   1.472441e-39   0.000000e+00   0.000000e+00
     1344000   1.343999e-05   8.413559e-01   1.611286e+01   4.524200e+01   5.515881e+04   2.705932e+05   1.812212e+06  -2.285302e+00   4.658453e-01  -9.590377e-22   1.833133e+06   4.406900e-41   0.000000e+00   0.000000e+00
     1352000   1.351999e-05   8.457686e-01   1.613451e+01   4.538698e+01   5.515881e+04   2.705932e+05   1.812212e+06  -5.303015e+00   1.080988e+00  -1.853340e-21   1.833133e+06   2.370364e-40   0.000000e+00   0.000000e+00
     1360000   1.359999e-05   8.501813e-01   1.615615e+01   4.553196e+01   5.515881e+04   2.705932e+05   1.812212e+06  -2.908139e+00   5.928069e-01   6.494148e-22   1.833133e+06   7.127017e-41   0.000000e+00   0.000000e+00
     1368000   1.367999e-05   8.545940e-01   1.617780e+01   4.567693e+01   5.515881e+04   2.705932e+05   1.812212e+06   5.119447e+00  -1.043569e+00  -2.741798e-22   1.833133e+06   2.208837e-40   0.000000e+00   0.000000e+00
     1376000   1.375999e-05   8.590067e-01   1.619945e+01   4.582191e+01   5.515881e+04   2.705932e+05   1.812212e+06   4.975307e+00  -1.014187e+00   3.411844e-22   1.833133e+06   2.086184e-40   0.000000e+00   0.000000e+00
     1384000   1.383999e-05   8.634194e-01   1.622110e+01   4.596689e+01   5.515881e+04   2.705932e+05   1.812212e+06   1.820403e+00  -3.710783e-01  -6.657756e-22   1.833133e+06   2.791243e-41   0.000000e+00   0.000000e+00
     1392000   1.391999e-05   8.678321e-01   1.624274e+01   4.611187e+01   5.515881e+04   2.705932e+05   1.812212e+06   1.405262e+00  -2.864544e-01   4.834767e-22   1.833133e+06   1.662854e-41   0.000000e+00   0.000000e+00
     1400000   1.399999e-05   8.722448e-01   1.626439e+01   4.625684e+01   5.515881e+04   2.705932e+05   1.812212e+06  -1.769519e+00   3.607060e-01  -6.799416e-22   1.833133e+06   2.637830e-41   0.000000e+00   0.000000e+00
     1408000   1.407999e-05   8.766575e-01   1.628604e+01   4.640182e+01   5.515881e+04   2.705932e+05   1.812212e+06   4.078592e-02  -8.313968e-03  -3.318416e-24   1.833133e+06   1.451138e-44   0.000000e+00   0.000000e+00
     1416000   1.415999e-05   8.810702e-01   1.630769e+01   4.654680e+01   5.515881e+04   2.705932e+05   1.812212e+06  -4.044684e+00   8.244850e-01  -3.707591e-22   1.833133e+06   1.378504e-40   0.000000e+00   0.000000e+00
     1424000   1.423999e-05   8.854830e-01   1.632933e+01   4.669177e+01   5.515881e+04   2.705932e+05   1.812212e+06   2.428069e+00  -4.949476e-01   4.568846e-22   1.833133e+06   4.966855e-41   0.000000e+00   0.000000e+00
     1432000   1.431999e-05   8.898957e-01   1.635098e+01   4.683675e+01   5.515881e+04   2.705932e+05   1.812212e+06   1.736838e-01  -3.540442e-02   7.235212e-23   1.833133e+06   2.517077e-43   0.000000e+00   0.000000e+00
     1440000   1.439999e-05   8.943084e-01   1.637263e+01   4.698173e+01   5.515881e+04   2.705932e+05   1.812212e+06  -1.221161e+01   2.489265e+00  -1.843633e-21   1.833133e+06   1.257032e-39   0.000000e+00   0.000000e+00
     1448000   1.447999e-05   8.987211e-01   1.639428e+01   4.712670e+01   5.515881e+04   2.705932e+05   1.812212e+06  -1.178752e+01   2.402817e+00  -1.576126e-21   1.833133e+06   1.171231e-39   0.000000e+00   0.000000e+00
     1456000   1.455999e-05   9.031338e-01   1.641592e+01   4.727168e+01   5.515881e+04   2.705932e+05   1.812212e+06   3.065530e+00  -6.248902e-01   1.212770e-21   1.833133e+06   7.920889e-41   0.000000e+00   0.000000e+00
     1464000   1.463999e-05   9.075465e-01   1.643757e+01   4.741666e+01   5.515881e+04   2.705932e+05   1.812212e+06   1.935059e+00  -3.944504e-01  -5.644925e-23   1.833133e+06   3.155603e-41   0.000000e+00   0.000000e+00
     1472000   1.471999e-05   9.119592e-01   1.645922e+01   4.756163e+01   5.515881e+04   2.705932e+05   1.812212e+06  -1.271303e+00   2.591477e-01  -2.785912e-22   1.833133e+06   1.361421e-41   0.000000e+00   0.000000e+00
     1480000   1.479999e-05   9.163719e-01   1.648087e+01   4.770661e+01   5.515881e+04   2.705932e+05   1.812212e+06  -1.335082e+00   2.721485e-01  -3.769092e-23   1.833133e+06   1.501510e-41   0.000000e+00   0.000000e+00
     1488000   1.487999e-05   9.207846e-01   1.650251e+01   4.785159e+01   5.515881e+04   2.705932e+05   1.812212e+06  -1.724970e+00   3.516248e-01  -9.314739e-23   1.833133e+06   2.506413e-41   0.000000e+00   0.000000e+00
     1496000   1.495999e-05   9.251973e-01   1.652416e+01   4.799657e+01   5.515881e+04   2.705932e+05   1.812212e+06  -8.859253e-01   1.805906e-01  -8.038691e-23   1.833133e+06   6.621235e-42   0.000000e+00   0.000000e+00
     1504000   1.503999e-05   9.296100e-01   1.654581e+01   4.814154e+01   5.515881e+04   2.705932e+05   1.812212e+06  -3.956583e+00   8.065261e-01   2.205657e-22   1.833133e+06   1.320020e-40   0.000000e+00   0.000000e+00
     1512000   1.511999e-05   9.340227e-01   1.656746e+01   4.828652e+01   5.515881e+04   2.705932e+05   1.812212e+06  -9.904551e+00   2.018984e+00  -3.821659e-21   1.833133e+06   8.269555e-40   0.000000e+00   0.000000e+00
     1520000   1.519999e-05   9.384354e-01   1.658910e+01   4.843150e+01   5.515881e+04   2.705932e+05   1.812212e+06  -1.088892e+01   2.219642e+00   4.275594e-22   1.833133e+06   9.995133e-40   0.000000e+00   0.000000e+00
     1528000   1.527999e-05   9.428481e-01   1.661075e+01   4.857647e+01   5.515881e+04   2.705932e+05   1.812212e+06  -4.109381e+00   8.376729e-01  -6.797877e-22   1.833133e+06   1.423915e-40   0.000000e+00   0.000000e+00
     1536000   1.535999e-05   9.472608e-01   1.663240e+01   4.872145e+01   5.515881e+04   2.705932e+05   1.812212e+06  -2.383459e+00   4.858540e-01  -5.786917e-22   1.833133e+06   4.790527e-41   0.000000e+00   0.000000e+00
     1544000   1.543999e-05   9.516735e-01   1.665405e+01   4.886643e+01   5.515881e+04   2.705932e+05   1.812212e+06  -1.696599e+00   3.458416e-01   4.251419e-22   1.833133e+06   2.427195e-41   0.000000e+00   0.000000e+00
     1552000   1.551999e-05   9.560862e-01   1.667569e+01   4.901140e+01   5.515881e+04   2.705932e+05   1.812212e+06  -4.778587e-01   9.740866e-02  -1.258000e-22   1.833133e+06   1.926252e-42   0.000000e+00   0.000000e+00
     1560000   1.559999e-05   9.604989e-01   1.669734e+01   4.915638e+01   5.515881e+04   2.705932e+05   1.812212e+06   2.984903e+00  -6.084549e-01   8.499149e-22   1.833133e+06   7.510546e-41   0.000000e+00   0.000000e+00
     1568000   1.567999e-05   9.649116e-01   1.671899e+01   4.930136e+01   5.515881e+04   2.705932e+05   1.812212e+06  -1.207857e+00   2.462146e-01  -1.436060e-22   1.833133e+06   1.228762e-41   0.000000e+00   0.000000e+00
     1576000   1.575999e-05   9.693244e-01   1.674064e+01   4.944634e+01   5.515881e+04   2.705932e+05   1.812212e+06   8.528345e-01  -1.738453e-01  -9.097075e-23   1.833133e+06   6.123944e-42   0.000000e+00   0.000000e+00
     1584000   1.583999e-05   9.737371e-01   1.676228e+01   4.959131e+01   5.515881e+04   2.705932e+05   1.812212e+06  -5.194211e+00   1.058809e+00  -7.225084e-22   1.833133e+06   2.274137e-40   0.000000e+00   0.000000e+00
     1592000   1.591999e-05   9.781499e-01   1.678393e+01   4.973629e+01   5.516299e+04   2.705809e+05   1.812214e+06   1.821281e+07  -5.417723e+07   7.534791e+06   1.833133e+06   2.689362e-26   0.000000e+00   0.000000e+00
     1600000   1.599999e-05   9.825631e-01   1.680558e+01   4.988127e+01   5.516680e+04   2.705696e+05   1.812215e+06   3.434266e+07  -1.007071e+08   1.399045e+07   1.833133e+06   9.333719e-26   0.000000e+00   0.000000e+00
