     timestep     time              x             y              z              vx             vy             vz             ax             ay             az         v_magnitude      ELoss        Electronic      Nuclear
           0   0.000000e+00   1.000000e-01   9.998944e+00   1.193090e+01   1.166832e+06  -1.179132e+05   1.096496e+05   0.000000e+00   0.000000e+00   0.000000e+00   1.177889e+06   0.000000e+00   0.000000e+00   0.000000e+00
        8000   7.999000e-08   1.933465e-01   9.989511e+00   1.193967e+01   1.166832e+06  -1.179132e+05   1.096496e+05   0.000000e+00   0.000000e+00   0.000000e+00   1.177889e+06   0.000000e+00   0.000000e+00   0.000000e+00
       16000   1.599900e-07   2.866931e-01   9.980078e+00   1.194844e+01   1.166832e+06  -1.179132e+05   1.096496e+05   0.000000e+00   0.000000e+00   0.000000e+00   1.177889e+06   0.000000e+00   0.000000e+00   0.000000e+00
       24000   2.399900e-07   3.800396e-01   9.970645e+00   1.195721e+01   1.166832e+06  -1.179132e+05   1.096496e+05   0.000000e+00   0.000000e+00   0.000000e+00   1.177889e+06   0.000000e+00   0.000000e+00   0.000000e+00
       32000   3.199900e-07   4.733862e-01   9.961212e+00   1.196599e+01   1.166832e+06  -1.179132e+05   1.096496e+05   0.000000e+00   0.000000e+00   0.000000e+00   1.177889e+06   0.000000e+00   0.000000e+00   0.000000e+00
       40000   3.999900e-07   5.667327e-01   9.951779e+00   1.197476e+01   1.166832e+06  -1.179132e+05   1.096496e+05   0.000000e+00   0.000000e+00   0.000000e+00   1.177889e+06   0.000000e+00   0.000000e+00   0.000000e+00
       48000   4.799900e-07   6.600793e-01   9.942346e+00   1.198353e+01   1.166832e+06  -1.179132e+05   1.096496e+05   0.000000e+00   0.000000e+00   0.000000e+00   1.177889e+06   0.000000e+00   0.000000e+00   0.000000e+00
       56000   5.599900e-07   7.534258e-01   9.932913e+00   1.199230e+01   1.166832e+06  -1.179132e+05   1.096496e+05   0.000000e+00   0.000000e+00   0.000000e+00   1.177889e+06   0.000000e+00   0.000000e+00   0.000000e+00
       64000   6.399900e-07   8.467723e-01   9.923480e+00   1.200107e+01   1.166832e+06  -1.179132e+05   1.096496e+05   0.000000e+00   0.000000e+00   0.000000e+00   1.177889e+06   0.000000e+00   0.000000e+00   0.000000e+00
       72000   7.199900e-07   9.401189e-01   9.914046e+00   1.200985e+01   1.166832e+06  -1.179132e+05   1.096496e+05   0.000000e+00   0.000000e+00   0.000000e+00   1.177889e+06   0.000000e+00   0.000000e+00   0.000000e+00
       80000   7.999900e-07   1.033465e+00   9.904613e+00   1.201862e+01   1.166832e+06  -1.179132e+05   1.096496e+05   0.000000e+00   0.000000e+00   0.000000e+00   1.177889e+06   0.000000e+00   0.000000e+00   0.000000e+00
       88000   8.799900e-07   1.126812e+00   9.895180e+00   1.202739e+01   1.166832e+06  -1.179132e+05   1.096496e+05   0.000000e+00   0.000000e+00   0.000000e+00   1.177889e+06   0.000000e+00   0.000000e+00   0.000000e+00
       96000   9.599900e-07   1.220159e+00   9.885747e+00   1.203616e+01   1.166832e+06  -1.179132e+05   1.096496e+05   0.000000e+00   0.000000e+00   0.000000e+00   1.177889e+06   0.000000e+00   0.000000e+00   0.000000e+00
      104000   1.039990e-06   1.313505e+00   9.876314e+00   1.204493e+01   1.166832e+06  -1.179132e+05   1.096496e+05   0.000000e+00   0.000000e+00   0.000000e+00   1.177889e+06   0.000000e+00   0.000000e+00   0.000000e+00
      112000   1.119990e-06   1.406852e+00   9.866881e+00   1.205371e+01   1.166832e+06  -1.179132e+05   1.096496e+05   0.000000e+00   0.000000e+00   0.000000e+00   1.177889e+06   0.000000e+00   0.000000e+00   0.000000e+00
      120000   1.199990e-06   1.500198e+00   9.857448e+00   1.206248e+01   1.166832e+06  -1.179132e+05   1.096496e+05   0.000000e+00   0.000000e+00   0.000000e+00   1.177889e+06   0.000000e+00   0.000000e+00   0.000000e+00
      128000   1.279990e-06   1.593545e+00   9.848015e+00   1.207125e+01   1.166832e+06  -1.179132e+05   1.096496e+05   0.000000e+00   0.000000e+00   0.000000e+00   1.177889e+06   0.000000e+00   0.000000e+00   0.000000e+00
      136000   1.359990e-06   1.686891e+00   9.838582e+00   1.208002e+01   1.166832e+06  -1.179132e+05   1.096496e+05   0.000000e+00   0.000000e+00   0.000000e+00   1.177889e+06   0.000000e+00   0.000000e+00   0.000000e+00
      144000   1.439990e-06   1.780238e+00   9.829149e+00   1.208879e+01   1.166832e+06  -1.179132e+05   1.096496e+05   0.000000e+00   0.000000e+00   0.000000e+00   1.177889e+06   0.000000e+00   0.000000e+00   0.000000e+00
      152000   1.519990e-06   1.873584e+00   9.819716e+00   1.209757e+01   1.166832e+06  -1.179132e+05   1.096496e+05   0.000000e+00   0.000000e+00   0.000000e+00   1.177889e+06   0.000000e+00   0.000000e+00   0.000000e+00
      160000   1.599990e-06   1.966931e+00   9.810283e+00   1.210634e+01   1.166832e+06  -1.179132e+05   1.096496e+05   0.000000e+00   0.000000e+00   0.000000e+00   1.177889e+06   0.000000e+00   0.000000e+00   0.000000e+00
      168000   1.679990e-06   2.060277e+00   9.800850e+00   1.211511e+01   1.166832e+06  -1.179132e+05   1.096496e+05   0.000000e+00   0.000000e+00   0.000000e+00   1.177889e+06   0.000000e+00   0.000000e+00   0.000000e+00
      176000   1.759990e-06   2.153624e+00   9.791417e+00   1.212388e+01   1.166832e+06  -1.179132e+05   1.096496e+05   0.000000e+00   0.000000e+00   0.000000e+00   1.177889e+06   0.000000e+00   0.000000e+00   0.000000e+00
      184000   1.839990e-06   2.246970e+00   9.781984e+00   1.213265e+01   1.166832e+06  -1.179132e+05   1.096496e+05   0.000000e+00   0.000000e+00   0.000000e+00   1.177889e+06   0.000000e+00   0.000000e+00   0.000000e+00
      192000   1.919990e-06   2.340317e+00   9.772551e+00   1.214143e+01   1.166832e+06  -1.179132e+05   1.096496e+05   0.000000e+00   0.000000e+00   0.000000e+00   1.177889e+06   0.000000e+00   0.000000e+00   0.000000e+00
      200000   1.999990e-06   2.433664e+00   9.763118e+00   1.215020e+01   1.166832e+06  -1.179132e+05   1.096496e+05   0.000000e+00   0.000000e+00   0.000000e+00   1.177889e+06   0.000000e+00   0.000000e+00   0.000000e+00
      208000   2.079990e-06   2.527010e+00   9.753684e+00   1.215897e+01   1.166832e+06  -1.179132e+05   1.096496e+05   0.000000e+00   0.000000e+00   0.000000e+00   1.177889e+06   0.000000e+00   0.000000e+00   0.000000e+00
      216000   2.159990e-06   2.620357e+00   9.744251e+00   1.216774e+01   1.166832e+06  -1.179132e+05   1.096496e+05   0.000000e+00   0.000000e+00   0.000000e+00   1.177889e+06   0.000000e+00   0.000000e+00   0.000000e+00
      224000   2.239990e-06   2.713703e+00   9.734818e+00   1.217651e+01   1.166832e+06  -1.179132e+05   1.096496e+05   0.000000e+00   0.000000e+00   0.000000e+00   1.177889e+06   0.000000e+00   0.000000e+00   0.000000e+00
      232000   2.319990e-06   2.807050e+00   9.725385e+00   1.218529e+01   1.166832e+06  -1.179132e+05   1.096496e+05   0.000000e+00   0.000000e+00   0.000000e+00   1.177889e+06   0.000000e+00   0.000000e+00   0.000000e+00
      240000   2.399990e-06   2.900396e+00   9.715952e+00   1.219406e+01   1.166832e+06  -1.179132e+05   1.096496e+05   0.000000e+00   0.000000e+00   0.000000e+00   1.177889e+06   0.000000e+00   0.000000e+00   0.000000e+00
      248000   2.479990e-06   2.993743e+00   9.706519e+00   1.220283e+01   1.166832e+06  -1.179132e+05   1.096496e+05   0.000000e+00   0.000000e+00   0.000000e+00   1.177889e+06   0.000000e+00   0.000000e+00   0.000000e+00
      256000   2.559990e-06   3.087089e+00   9.697086e+00   1.221160e+01   1.166832e+06  -1.179132e+05   1.096496e+05   0.000000e+00   0.000000e+00   0.000000e+00   1.177889e+06   0.000000e+00   0.000000e+00   0.000000e+00
      264000   2.639990e-06   3.180436e+00   9.687653e+00   1.222037e+01   1.166832e+06  -1.179132e+05   1.096496e+05   0.000000e+00   0.000000e+00   0.000000e+00   1.177889e+06   0.000000e+00   0.000000e+00   0.000000e+00
      272000   2.719990e-06   3.273782e+00   9.678220e+00   1.222915e+01   1.166832e+06  -1.179132e+05   1.096496e+05   0.000000e+00   0.000000e+00   0.000000e+00   1.177889e+06   0.000000e+00   0.000000e+00   0.000000e+00
      280000   2.799990e-06   3.367129e+00   9.668787e+00   1.223792e+01   1.166832e+06  -1.179132e+05   1.096496e+05   0.000000e+00   0.000000e+00   0.000000e+00   1.177889e+06   0.000000e+00   0.000000e+00   0.000000e+00
      288000   2.879990e-06   3.460476e+00   9.659354e+00   1.224669e+01   1.166832e+06  -1.179132e+05   1.096496e+05   0.000000e+00   0.000000e+00   0.000000e+00   1.177889e+06   0.000000e+00   0.000000e+00   0.000000e+00
      296000   2.959990e-06   3.553822e+00   9.649921e+00   1.225546e+01   1.166832e+06  -1.179132e+05   1.096496e+05   0.000000e+00   0.000000e+00   0.000000e+00   1.177889e+06   0.000000e+00   0.000000e+00   0.000000e+00
      304000   3.039990e-06   3.647169e+00   9.640488e+00   1.226423e+01   1.166832e+06  -1.179132e+05   1.096496e+05   0.000000e+00   0.000000e+00   0.000000e+00   1.177889e+06   0.000000e+00   0.000000e+00   0.000000e+00
      312000   3.119990e-06   3.740515e+00   9.631055e+00   1.227301e+01   1.166832e+06  -1.179132e+05   1.096496e+05   0.000000e+00   0.000000e+00   0.000000e+00   1.177889e+06   0.000000e+00   0.000000e+00   0.000000e+00
      320000   3.199990e-06   3.833862e+00   9.621622e+00   1.228178e+01   1.166832e+06  -1.179132e+05   1.096496e+05   0.000000e+00   0.000000e+00   0.000000e+00   1.177889e+06   0.000000e+00   0.000000e+00   0.000000e+00
      328000   3.279990e-06   3.927208e+00   9.612189e+00   1.229055e+01   1.166832e+06  -1.179132e+05   1.096496e+05   0.000000e+00   0.000000e+00   0.000000e+00   1.177889e+06   0.000000e+00   0.000000e+00   0.000000e+00
      336000   3.359990e-06   4.020555e+00   9.602755e+00   1.229932e+01   1.166832e+06  -1.179132e+05   1.096496e+05   0.000000e+00   0.000000e+00   0.000000e+00   1.177889e+06   0.000000e+00   0.000000e+00   0.000000e+00
      344000   3.439990e-06   4.113901e+00   9.593322e+00   1.230809e+01   1.166832e+06  -1.179132e+05   1.096496e+05   0.000000e+00   0.000000e+00   0.000000e+00   1.177889e+06   0.000000e+00   0.000000e+00   0.000000e+00
      352000   3.519990e-06   4.207248e+00   9.583889e+00   1.231687e+01   1.166832e+06  -1.179132e+05   1.096496e+05   0.000000e+00   0.000000e+00   0.000000e+00   1.177889e+06   0.000000e+00   0.000000e+00   0.000000e+00
      360000   3.599990e-06   4.300594e+00   9.574456e+00   1.232564e+01   1.166832e+06  -1.179132e+05   1.096496e+05   0.000000e+00   0.000000e+00   0.000000e+00   1.177889e+06   0.000000e+00   0.000000e+00   0.000000e+00
      368000   3.679990e-06   4.393941e+00   9.565023e+00   1.233441e+01   1.166832e+06  -1.179132e+05   1.096496e+05   0.000000e+00   0.000000e+00   0.000000e+00   1.177889e+06   0.000000e+00   0.000000e+00   0.000000e+00
      376000   3.759990e-06   4.487287e+00   9.555590e+00   1.234318e+01   1.166832e+06  -1.179132e+05   1.096496e+05   0.000000e+00   0.000000e+00   0.000000e+00   1.177889e+06   0.000000e+00   0.000000e+00   0.000000e+00
      384000   3.839990e-06   4.580634e+00   9.546157e+00   1.235195e+01   1.166832e+06  -1.179132e+05   1.096496e+05   0.000000e+00   0.000000e+00   0.000000e+00   1.177889e+06   0.000000e+00   0.000000e+00   0.000000e+00
      392000   3.919990e-06   4.673981e+00   9.536724e+00   1.236073e+01   1.166832e+06  -1.179132e+05   1.096496e+05   0.000000e+00   0.000000e+00   0.000000e+00   1.177889e+06   0.000000e+00   0.000000e+00   0.000000e+00
      400000   3.999990e-06   4.767327e+00   9.527291e+00   1.236950e+01   1.166832e+06  -1.179132e+05   1.096496e+05   0.000000e+00   0.000000e+00   0.000000e+00   1.177889e+06   0.000000e+00   0.000000e+00   0.000000e+00
      408000   4.079990e-06   4.860674e+00   9.517858e+00   1.237827e+01   1.166832e+06  -1.179132e+05   1.096496e+05   0.000000e+00   0.000000e+00   0.000000e+00   1.177889e+06   0.000000e+00   0.000000e+00   0.000000e+00
      416000   4.159990e-06   4.954020e+00   9.508425e+00   1.238704e+01   1.166832e+06  -1.179132e+05   1.096496e+05   0.000000e+00   0.000000e+00   0.000000e+00   1.177889e+06   0.000000e+00   0.000000e+00   0.000000e+00
      424000   4.239990e-06   5.047367e+00   9.498992e+00   1.239581e+01   1.166832e+06  -1.179132e+05   1.096496e+05   0.000000e+00   0.000000e+00   0.000000e+00   1.177889e+06   0.000000e+00   0.000000e+00   0.000000e+00
      432000   4.319990e-06   5.140713e+00   9.489559e+00   1.240459e+01   1.166832e+06  -1.179132e+05   1.096496e+05   0.000000e+00   0.000000e+00   0.000000e+00   1.177889e+06   0.000000e+00   0.000000e+00   0.000000e+00
      440000   4.399990e-06   5.234060e+00   9.480126e+00   1.241336e+01   1.166832e+06  -1.179132e+05   1.096496e+05   0.000000e+00   0.000000e+00   0.000000e+00   1.177889e+06   0.000000e+00   0.000000e+00   0.000000e+00
      448000   4.479990e-06   5.327406e+00   9.470693e+00   1.242213e+01   1.166832e+06  -1.179132e+05   1.096496e+05   0.000000e+00   0.000000e+00   0.000000e+00   1.177889e+06   0.000000e+00   0.000000e+00   0.000000e+00
      456000   4.559990e-06   5.420753e+00   9.461260e+00   1.243090e+01   1.166832e+06  -1.179132e+05   1.096496e+05   0.000000e+00   0.000000e+00   0.000000e+00   1.177889e+06   0.000000e+00   0.000000e+00   0.000000e+00
      464000   4.639990e-06   5.514099e+00   9.451827e+00   1.243967e+01   1.166832e+06  -1.179132e+05   1.096496e+05   0.000000e+00   0.000000e+00   0.000000e+00   1.177889e+06   0.000000e+00   0.000000e+00   0.000000e+00
      472000   4.719990e-06   5.607446e+00   9.442393e+00   1.244845e+01   1.166832e+06  -1.179132e+05   1.096496e+05   0.000000e+00   0.000000e+00   0.000000e+00   1.177889e+06   0.000000e+00   0.000000e+00   0.000000e+00
      480000   4.799990e-06   5.700793e+00   9.432960e+00   1.245722e+01   1.166832e+06  -1.179132e+05   1.096496e+05   0.000000e+00   0.000000e+00   0.000000e+00   1.177889e+06   0.000000e+00   0.000000e+00   0.000000e+00
      488000   4.879990e-06   5.794139e+00   9.423527e+00   1.246599e+01   1.166832e+06  -1.179132e+05   1.096496e+05   0.000000e+00   0.000000e+00   0.000000e+00   1.177889e+06   0.000000e+00   0.000000e+00   0.000000e+00
      496000   4.959990e-06   5.887486e+00   9.414094e+00   1.247476e+01   1.166832e+06  -1.179132e+05   1.096496e+05   0.000000e+00   0.000000e+00   0.000000e+00   1.177889e+06   0.000000e+00   0.000000e+00   0.000000e+00
      504000   5.039990e-06   5.980832e+00   9.404661e+00   1.248353e+01   1.166832e+06  -1.179132e+05   1.096496e+05   0.000000e+00   0.000000e+00   0.000000e+00   1.177889e+06   0.000000e+00   0.000000e+00   0.000000e+00
      512000   5.119990e-06   6.074179e+00   9.395228e+00   1.249230e+01   1.166832e+06  -1.179132e+05   1.096496e+05   0.000000e+00   0.000000e+00   0.000000e+00   1.177889e+06   0.000000e+00   0.000000e+00   0.000000e+00
      520000   5.199990e-06   6.167525e+00   9.385795e+00   1.250108e+01   1.166832e+06  -1.179132e+05   1.096496e+05   0.000000e+00   0.000000e+00   0.000000e+00   1.177889e+06   0.000000e+00   0.000000e+00   0.000000e+00
      528000   5.279990e-06   6.260872e+00   9.376362e+00   1.250985e+01   1.166832e+06  -1.179132e+05   1.096496e+05   0.000000e+00   0.000000e+00   0.000000e+00   1.177889e+06   0.000000e+00   0.000000e+00   0.000000e+00
      536000   5.359990e-06   6.354218e+00   9.366929e+00   1.251862e+01   1.166832e+06  -1.179132e+05   1.096496e+05   0.000000e+00   0.000000e+00   0.000000e+00   1.177889e+06   0.000000e+00   0.000000e+00   0.000000e+00
      544000   5.439990e-06   6.447565e+00   9.357496e+00   1.252739e+01   1.166832e+06  -1.179132e+05   1.096496e+05   0.000000e+00   0.000000e+00   0.000000e+00   1.177889e+06   0.000000e+00   0.000000e+00   0.000000e+00
      552000   5.519990e-06   6.540911e+00   9.348063e+00   1.253616e+01   1.166832e+06  -1.179132e+05   1.096496e+05   0.000000e+00   0.000000e+00   0.000000e+00   1.177889e+06   0.000000e+00   0.000000e+00   0.000000e+00
      560000   5.599990e-06   6.634258e+00   9.338630e+00   1.254494e+01   1.166832e+06  -1.179132e+05   1.096496e+05   0.000000e+00   0.000000e+00   0.000000e+00   1.177889e+06   0.000000e+00   0.000000e+00   0.000000e+00
      568000   5.679990e-06   6.727604e+00   9.329197e+00   1.255371e+01   1.166832e+06  -1.179132e+05   1.096496e+05   0.000000e+00   0.000000e+00   0.000000e+00   1.177889e+06   0.000000e+00   0.000000e+00   0.000000e+00
      576000   5.759990e-06   6.820951e+00   9.319764e+00   1.256248e+01   1.166832e+06  -1.179132e+05   1.096496e+05   0.000000e+00   0.000000e+00   0.000000e+00   1.177889e+06   0.000000e+00   0.000000e+00   0.000000e+00
      584000   5.839990e-06   6.914298e+00   9.310331e+00   1.257125e+01   1.166832e+06  -1.179132e+05   1.096496e+05   0.000000e+00   0.000000e+00   0.000000e+00   1.177889e+06   0.000000e+00   0.000000e+00   0.000000e+00
      592000   5.919990e-06   7.007644e+00   9.300898e+00   1.258002e+01   1.166832e+06  -1.179132e+05   1.096496e+05   0.000000e+00   0.000000e+00   0.000000e+00   1.177889e+06   0.000000e+00   0.000000e+00   0.000000e+00
      600000   5.999990e-06   7.100991e+00   9.291465e+00   1.258880e+01   1.166832e+06  -1.179132e+05   1.096496e+05   0.000000e+00   0.000000e+00   0.000000e+00   1.177889e+06   0.000000e+00   0.000000e+00   0.000000e+00
      608000   6.079990e-06   7.194337e+00   9.282031e+00   1.259757e+01   1.166832e+06  -1.179132e+05   1.096496e+05   0.000000e+00   0.000000e+00   0.000000e+00   1.177889e+06   0.000000e+00   0.000000e+00   0.000000e+00
      616000   6.159990e-06   7.287684e+00   9.272598e+00   1.260634e+01   1.166832e+06  -1.179132e+05   1.096496e+05   0.000000e+00   0.000000e+00   0.000000e+00   1.177889e+06   0.000000e+00   0.000000e+00   0.000000e+00
      624000   6.239990e-06   7.381030e+00   9.263165e+00   1.261511e+01   1.166832e+06  -1.179132e+05   1.096496e+05   0.000000e+00   0.000000e+00   0.000000e+00   1.177889e+06   0.000000e+00   0.000000e+00   0.000000e+00
      632000   6.319990e-06   7.474377e+00   9.253732e+00   1.262388e+01   1.166832e+06  -1.179132e+05   1.096496e+05   0.000000e+00   0.000000e+00   0.000000e+00   1.177889e+06   0.000000e+00   0.000000e+00   0.000000e+00
      640000   6.399990e-06   7.567723e+00   9.244299e+00   1.263266e+01   1.166832e+06  -1.179132e+05   1.096496e+05   0.000000e+00   0.000000e+00   0.000000e+00   1.177889e+06   0.000000e+00   0.000000e+00   0.000000e+00
      648000   6.479990e-06   7.661070e+00   9.234866e+00   1.264143e+01   1.166832e+06  -1.179132e+05   1.096496e+05   0.000000e+00   0.000000e+00   0.000000e+00   1.177889e+06   0.000000e+00   0.000000e+00   0.000000e+00
      656000   6.559990e-06   7.754416e+00   9.225433e+00   1.265020e+01   1.166832e+06  -1.179132e+05   1.096496e+05   0.000000e+00   0.000000e+00   0.000000e+00   1.177889e+06   0.000000e+00   0.000000e+00   0.000000e+00
      664000   6.639990e-06   7.847763e+00   9.216000e+00   1.265897e+01   1.166832e+06  -1.179132e+05   1.096496e+05   0.000000e+00   0.000000e+00   0.000000e+00   1.177889e+06   0.000000e+00   0.000000e+00   0.000000e+00
      672000   6.719990e-06   7.941110e+00   9.206567e+00   1.266774e+01   1.166832e+06  -1.179132e+05   1.096496e+05   0.000000e+00   0.000000e+00   0.000000e+00   1.177889e+06   0.000000e+00   0.000000e+00   0.000000e+00
      680000   6.799990e-06   8.034456e+00   9.197134e+00   1.267652e+01   1.166832e+06  -1.179132e+05   1.096496e+05   0.000000e+00   0.000000e+00   0.000000e+00   1.177889e+06   0.000000e+00   0.000000e+00   0.000000e+00
      688000   6.879990e-06   8.127803e+00   9.187701e+00   1.268529e+01   1.166832e+06  -1.179132e+05   1.096496e+05   0.000000e+00   0.000000e+00   0.000000e+00   1.177889e+06   0.000000e+00   0.000000e+00   0.000000e+00
      696000   6.959990e-06   8.221149e+00   9.178268e+00   1.269406e+01   1.166832e+06  -1.179132e+05   1.096496e+05   0.000000e+00   0.000000e+00   0.000000e+00   1.177889e+06   0.000000e+00   0.000000e+00   0.000000e+00
      704000   7.039990e-06   8.314496e+00   9.168835e+00   1.270283e+01   1.166832e+06  -1.179132e+05   1.096496e+05   0.000000e+00   0.000000e+00   0.000000e+00   1.177889e+06   0.000000e+00   0.000000e+00   0.000000e+00
      712000   7.119990e-06   8.407842e+00   9.159402e+00   1.271160e+01   1.166832e+06  -1.179132e+05   1.096496e+05   0.000000e+00   0.000000e+00   0.000000e+00   1.177889e+06   0.000000e+00   0.000000e+00   0.000000e+00
      720000   7.199990e-06   8.501189e+00   9.149969e+00   1.272038e+01   1.166832e+06  -1.179132e+05   1.096496e+05   0.000000e+00   0.000000e+00   0.000000e+00   1.177889e+06   0.000000e+00   0.000000e+00   0.000000e+00
      728000   7.279990e-06   8.594535e+00   9.140536e+00   1.272915e+01   1.166832e+06  -1.179132e+05   1.096496e+05   0.000000e+00   0.000000e+00   0.000000e+00   1.177889e+06   0.000000e+00   0.000000e+00   0.000000e+00
      736000   7.359990e-06   8.687882e+00   9.131102e+00   1.273792e+01   1.166832e+06  -1.179132e+05   1.096496e+05   0.000000e+00   0.000000e+00   0.000000e+00   1.177889e+06   0.000000e+00   0.000000e+00   0.000000e+00
      744000   7.439990e-06   8.781228e+00   9.121669e+00   1.274669e+01   1.166832e+06  -1.179132e+05   1.096496e+05   0.000000e+00   0.000000e+00   0.000000e+00   1.177889e+06   0.000000e+00   0.000000e+00   0.000000e+00
      752000   7.519990e-06   8.874575e+00   9.112236e+00   1.275546e+01   1.166832e+06  -1.179132e+05   1.096496e+05   0.000000e+00   0.000000e+00   0.000000e+00   1.177889e+06   0.000000e+00   0.000000e+00   0.000000e+00
      760000   7.599990e-06   8.967921e+00   9.102803e+00   1.276424e+01   1.166832e+06  -1.179132e+05   1.096496e+05   0.000000e+00   0.000000e+00   0.000000e+00   1.177889e+06   0.000000e+00   0.000000e+00   0.000000e+00
      768000   7.679990e-06   9.061268e+00   9.093370e+00   1.277301e+01   1.166832e+06  -1.179132e+05   1.096496e+05   0.000000e+00   0.000000e+00   0.000000e+00   1.177889e+06   0.000000e+00   0.000000e+00   0.000000e+00
      776000   7.759990e-06   9.154615e+00   9.083937e+00   1.278178e+01   1.166832e+06  -1.179132e+05   1.096496e+05   0.000000e+00   0.000000e+00   0.000000e+00   1.177889e+06   0.000000e+00   0.000000e+00   0.000000e+00
      784000   7.839990e-06   9.247961e+00   9.074504e+00   1.279055e+01   1.166832e+06  -1.179132e+05   1.096496e+05   0.000000e+00   0.000000e+00   0.000000e+00   1.177889e+06   0.000000e+00   0.000000e+00   0.000000e+00
      792000   7.919990e-06   9.341308e+00   9.065071e+00   1.279932e+01   1.166832e+06  -1.179132e+05   1.096496e+05   0.000000e+00   0.000000e+00   0.000000e+00   1.177889e+06   0.000000e+00   0.000000e+00   0.000000e+00
      800000   7.999990e-06   9.434654e+00   9.055638e+00   1.280810e+01   1.166832e+06  -1.179132e+05   1.096496e+05   0.000000e+00   0.000000e+00   0.000000e+00   1.177889e+06   0.000000e+00   0.000000e+00   0.000000e+00
      808000   8.079990e-06   9.528001e+00   9.046205e+00   1.281687e+01   1.166832e+06  -1.179132e+05   1.096496e+05   0.000000e+00   0.000000e+00   0.000000e+00   1.177889e+06   0.000000e+00   0.000000e+00   0.000000e+00
      816000   8.159990e-06   9.621347e+00   9.036772e+00   1.282564e+01   1.166832e+06  -1.179132e+05   1.096496e+05   0.000000e+00   0.000000e+00   0.000000e+00   1.177889e+06   0.000000e+00   0.000000e+00   0.000000e+00
      824000   8.239990e-06   9.714694e+00   9.027339e+00   1.283441e+01   1.166832e+06  -1.179132e+05   1.096496e+05   0.000000e+00   0.000000e+00   0.000000e+00   1.177889e+06   0.000000e+00   0.000000e+00   0.000000e+00
      832000   8.319990e-06   9.808040e+00   9.017906e+00   1.284318e+01   1.166832e+06  -1.179132e+05   1.096496e+05   0.000000e+00   0.000000e+00   0.000000e+00   1.177889e+06   0.000000e+00   0.000000e+00   0.000000e+00
      840000   8.399990e-06   9.901387e+00   9.008473e+00   1.285196e+01   1.166832e+06  -1.179132e+05   1.096496e+05   0.000000e+00   0.000000e+00   0.000000e+00   1.177889e+06   0.000000e+00   0.000000e+00   0.000000e+00
      848000   8.479990e-06   9.994733e+00   8.999040e+00   1.286073e+01   1.166832e+06  -1.179132e+05   1.096496e+05   0.000000e+00   0.000000e+00   0.000000e+00   1.177889e+06   0.000000e+00   0.000000e+00   0.000000e+00
      856000   8.559990e-06   1.008808e+01   8.989607e+00   1.286950e+01   1.166832e+06  -1.179132e+05   1.096496e+05   0.000000e+00   0.000000e+00   0.000000e+00   1.177889e+06   0.000000e+00   0.000000e+00   0.000000e+00
      864000   8.639990e-06   1.018143e+01   8.980174e+00   1.287827e+01   1.166832e+06  -1.179132e+05   1.096496e+05   0.000000e+00   0.000000e+00   0.000000e+00   1.177889e+06   0.000000e+00   0.000000e+00   0.000000e+00
      872000   8.719990e-06   1.027477e+01   8.970740e+00   1.288704e+01   1.166832e+06  -1.179132e+05   1.096496e+05   0.000000e+00   0.000000e+00   0.000000e+00   1.177889e+06   0.000000e+00   0.000000e+00   0.000000e+00
      880000   8.799990e-06   1.036812e+01   8.961307e+00   1.289582e+01   1.166832e+06  -1.179132e+05   1.096496e+05   0.000000e+00   0.000000e+00   0.000000e+00   1.177889e+06   0.000000e+00   0.000000e+00   0.000000e+00
      888000   8.879990e-06   1.046147e+01   8.951874e+00   1.290459e+01   1.166832e+06  -1.179132e+05   1.096496e+05   0.000000e+00   0.000000e+00   0.000000e+00   1.177889e+06   0.000000e+00   0.000000e+00   0.000000e+00
      896000   8.959990e-06   1.055481e+01   8.942441e+00   1.291336e+01   1.166832e+06  -1.179132e+05   1.096496e+05   0.000000e+00   0.000000e+00   0.000000e+00   1.177889e+06   0.000000e+00   0.000000e+00   0.000000e+00
      904000   9.039990e-06   1.064816e+01   8.933008e+00   1.292213e+01   1.166832e+06  -1.179132e+05   1.096496e+05   0.000000e+00   0.000000e+00   0.000000e+00   1.177889e+06   0.000000e+00   0.000000e+00   0.000000e+00
      912000   9.119990e-06   1.074151e+01   8.923575e+00   1.293090e+01   1.166832e+06  -1.179132e+05   1.096496e+05   0.000000e+00   0.000000e+00   0.000000e+00   1.177889e+06   0.000000e+00   0.000000e+00   0.000000e+00
      920000   9.199990e-06   1.083485e+01   8.914142e+00   1.293968e+01   1.166832e+06  -1.179132e+05   1.096496e+05   0.000000e+00   0.000000e+00   0.000000e+00   1.177889e+06   0.000000e+00   0.000000e+00   0.000000e+00
      928000   9.279990e-06   1.092820e+01   8.904709e+00   1.294845e+01   1.166832e+06  -1.179132e+05   1.096496e+05   0.000000e+00   0.000000e+00   0.000000e+00   1.177889e+06   0.000000e+00   0.000000e+00   0.000000e+00
      936000   9.359990e-06   1.102155e+01   8.895276e+00   1.295722e+01   1.166832e+06  -1.179132e+05   1.096496e+05   0.000000e+00   0.000000e+00   0.000000e+00   1.177889e+06   0.000000e+00   0.000000e+00   0.000000e+00
      944000   9.439990e-06   1.111489e+01   8.885843e+00   1.296599e+01   1.166832e+06  -1.179132e+05   1.096496e+05   0.000000e+00   0.000000e+00   0.000000e+00   1.177889e+06   0.000000e+00   0.000000e+00   0.000000e+00
      952000   9.519990e-06   1.120824e+01   8.876410e+00   1.297476e+01   1.166832e+06  -1.179132e+05   1.096496e+05   0.000000e+00   0.000000e+00   0.000000e+00   1.177889e+06   0.000000e+00   0.000000e+00   0.000000e+00
      960000   9.599990e-06   1.130159e+01   8.866977e+00   1.298354e+01   1.166832e+06  -1.179132e+05   1.096496e+05   0.000000e+00   0.000000e+00   0.000000e+00   1.177889e+06   0.000000e+00   0.000000e+00   0.000000e+00
      968000   9.679990e-06   1.139493e+01   8.857544e+00   1.299231e+01   1.166832e+06  -1.179132e+05   1.096496e+05   0.000000e+00   0.000000e+00   0.000000e+00   1.177889e+06   0.000000e+00   0.000000e+00   0.000000e+00
      976000   9.759990e-06   1.148828e+01   8.848111e+00   1.300108e+01   1.166832e+06  -1.179132e+05   1.096496e+05   0.000000e+00   0.000000e+00   0.000000e+00   1.177889e+06   0.000000e+00   0.000000e+00   0.000000e+00
      984000   9.839990e-06   1.158162e+01   8.838678e+00   1.300985e+01   1.166832e+06  -1.179132e+05   1.096496e+05   0.000000e+00   0.000000e+00   0.000000e+00   1.177889e+06   0.000000e+00   0.000000e+00   0.000000e+00
      992000   9.919990e-06   1.167497e+01   8.829245e+00   1.301862e+01   1.166832e+06  -1.179132e+05   1.096496e+05   0.000000e+00   0.000000e+00   0.000000e+00   1.177889e+06   0.000000e+00   0.000000e+00   0.000000e+00
     1000000   9.999990e-06   1.176832e+01   8.819812e+00   1.302739e+01   1.166832e+06  -1.179132e+05   1.096496e+05   0.000000e+00   0.000000e+00   0.000000e+00   1.177889e+06   0.000000e+00   0.000000e+00   0.000000e+00
     1008000   1.007999e-05   1.186166e+01   8.810378e+00   1.303617e+01   1.166832e+06  -1.179132e+05   1.096496e+05   0.000000e+00   0.000000e+00   0.000000e+00   1.177889e+06   0.000000e+00   0.000000e+00   0.000000e+00
     1016000   1.015999e-05   1.195501e+01   8.800945e+00   1.304494e+01   1.166832e+06  -1.179132e+05   1.096496e+05   0.000000e+00   0.000000e+00   0.000000e+00   1.177889e+06   0.000000e+00   0.000000e+00   0.000000e+00
     1024000   1.023999e-05   1.204836e+01   8.791512e+00   1.305371e+01   1.166832e+06  -1.179132e+05   1.096496e+05   0.000000e+00   0.000000e+00   0.000000e+00   1.177889e+06   0.000000e+00   0.000000e+00   0.000000e+00
     1032000   1.031999e-05   1.214170e+01   8.782079e+00   1.306248e+01   1.166832e+06  -1.179132e+05   1.096496e+05   0.000000e+00   0.000000e+00   0.000000e+00   1.177889e+06   0.000000e+00   0.000000e+00   0.000000e+00
     1040000   1.039999e-05   1.223505e+01   8.772646e+00   1.307125e+01   1.166832e+06  -1.179132e+05   1.096496e+05   0.000000e+00   0.000000e+00   0.000000e+00   1.177889e+06   0.000000e+00   0.000000e+00   0.000000e+00
     1048000   1.047999e-05   1.232840e+01   8.763213e+00   1.308003e+01   1.166832e+06  -1.179132e+05   1.096496e+05   0.000000e+00   0.000000e+00   0.000000e+00   1.177889e+06   0.000000e+00   0.000000e+00   0.000000e+00
     1056000   1.055999e-05   1.242174e+01   8.753780e+00   1.308880e+01   1.166832e+06  -1.179132e+05   1.096496e+05   0.000000e+00   0.000000e+00   0.000000e+00   1.177889e+06   0.000000e+00   0.000000e+00   0.000000e+00
     1064000   1.063999e-05   1.251509e+01   8.744347e+00   1.309757e+01   1.166832e+06  -1.179132e+05   1.096496e+05   0.000000e+00   0.000000e+00   0.000000e+00   1.177889e+06   0.000000e+00   0.000000e+00   0.000000e+00
     1072000   1.071999e-05   1.260844e+01   8.734914e+00   1.310634e+01   1.166832e+06  -1.179132e+05   1.096496e+05   0.000000e+00   0.000000e+00   0.000000e+00   1.177889e+06   0.000000e+00   0.000000e+00   0.000000e+00
     1080000   1.079999e-05   1.270178e+01   8.725481e+00   1.311511e+01   1.166832e+06  -1.179132e+05   1.096496e+05   0.000000e+00   0.000000e+00   0.000000e+00   1.177889e+06   0.000000e+00   0.000000e+00   0.000000e+00
     1088000   1.087999e-05   1.279513e+01   8.716048e+00   1.312389e+01   1.166832e+06  -1.179132e+05   1.096496e+05   0.000000e+00   0.000000e+00   0.000000e+00   1.177889e+06   0.000000e+00   0.000000e+00   0.000000e+00
     1096000   1.095999e-05   1.288848e+01   8.706615e+00   1.313266e+01   1.166832e+06  -1.179132e+05   1.096496e+05   0.000000e+00   0.000000e+00   0.000000e+00   1.177889e+06   0.000000e+00   0.000000e+00   0.000000e+00
     1104000   1.103999e-05   1.298182e+01   8.697182e+00   1.314143e+01   1.166832e+06  -1.179132e+05   1.096496e+05   0.000000e+00   0.000000e+00   0.000000e+00   1.177889e+06   0.000000e+00   0.000000e+00   0.000000e+00
     1112000   1.111999e-05   1.307517e+01   8.687749e+00   1.315020e+01   1.166832e+06  -1.179132e+05   1.096496e+05   0.000000e+00   0.000000e+00   0.000000e+00   1.177889e+06   0.000000e+00   0.000000e+00   0.000000e+00
     1120000   1.119999e-05   1.316852e+01   8.678316e+00   1.315897e+01   1.166832e+06  -1.179132e+05   1.096496e+05   0.000000e+00   0.000000e+00   0.000000e+00   1.177889e+06   0.000000e+00   0.000000e+00   0.000000e+00
     1128000   1.127999e-05   1.326186e+01   8.668883e+00   1.316775e+01   1.166832e+06  -1.179132e+05   1.096496e+05   0.000000e+00   0.000000e+00   0.000000e+00   1.177889e+06   0.000000e+00   0.000000e+00   0.000000e+00
     1136000   1.135999e-05   1.335521e+01   8.659450e+00   1.317652e+01   1.166832e+06  -1.179132e+05   1.096496e+05   0.000000e+00   0.000000e+00   0.000000e+00   1.177889e+06   0.000000e+00   0.000000e+00   0.000000e+00
     1144000   1.143999e-05   1.344856e+01   8.650016e+00   1.318529e+01   1.166832e+06  -1.179132e+05   1.096496e+05   0.000000e+00   0.000000e+00   0.000000e+00   1.177889e+06   0.000000e+00   0.000000e+00   0.000000e+00
     1152000   1.151999e-05   1.354190e+01   8.640583e+00   1.319406e+01   1.166832e+06  -1.179132e+05   1.096496e+05   0.000000e+00   0.000000e+00   0.000000e+00   1.177889e+06   0.000000e+00   0.000000e+00   0.000000e+00
     1160000   1.159999e-05   1.363525e+01   8.631150e+00   1.320283e+01   1.166832e+06  -1.179132e+05   1.096496e+05   0.000000e+00   0.000000e+00   0.000000e+00   1.177889e+06   0.000000e+00   0.000000e+00   0.000000e+00
     1168000   1.167999e-05   1.372860e+01   8.621717e+00   1.321161e+01   1.166832e+06  -1.179132e+05   1.096496e+05   0.000000e+00   0.000000e+00   0.000000e+00   1.177889e+06   0.000000e+00   0.000000e+00   0.000000e+00
     1176000   1.175999e-05   1.382194e+01   8.612284e+00   1.322038e+01   1.166832e+06  -1.179132e+05   1.096496e+05   0.000000e+00   0.000000e+00   0.000000e+00   1.177889e+06   0.000000e+00   0.000000e+00   0.000000e+00
     1184000   1.183999e-05   1.391529e+01   8.602851e+00   1.322915e+01   1.166832e+06  -1.179132e+05   1.096496e+05   0.000000e+00   0.000000e+00   0.000000e+00   1.177889e+06   0.000000e+00   0.000000e+00   0.000000e+00
     1192000   1.191999e-05   1.400863e+01   8.593418e+00   1.323792e+01   1.166832e+06  -1.179132e+05   1.096496e+05   0.000000e+00   0.000000e+00   0.000000e+00   1.177889e+06   0.000000e+00   0.000000e+00   0.000000e+00
     1200000   1.199999e-05   1.410198e+01   8.583985e+00   1.324669e+01   1.166832e+06  -1.179132e+05   1.096496e+05   0.000000e+00   0.000000e+00   0.000000e+00   1.177889e+06   0.000000e+00   0.000000e+00   0.000000e+00
     1208000   1.207999e-05   1.419533e+01   8.574552e+00   1.325547e+01   1.166832e+06  -1.179132e+05   1.096496e+05   0.000000e+00   0.000000e+00   0.000000e+00   1.177889e+06   0.000000e+00   0.000000e+00   0.000000e+00
     1216000   1.215999e-05   1.428867e+01   8.565119e+00   1.326424e+01   1.166832e+06  -1.179132e+05   1.096496e+05   0.000000e+00   0.000000e+00   0.000000e+00   1.177889e+06   0.000000e+00   0.000000e+00   0.000000e+00
     1224000   1.223999e-05   1.438202e+01   8.555686e+00   1.327301e+01   1.166832e+06  -1.179132e+05   1.096496e+05   0.000000e+00   0.000000e+00   0.000000e+00   1.177889e+06   0.000000e+00   0.000000e+00   0.000000e+00
     1232000   1.231999e-05   1.447537e+01   8.546253e+00   1.328178e+01   1.166832e+06  -1.179132e+05   1.096496e+05   0.000000e+00   0.000000e+00   0.000000e+00   1.177889e+06   0.000000e+00   0.000000e+00   0.000000e+00
     1240000   1.239999e-05   1.456871e+01   8.536820e+00   1.329055e+01   1.166832e+06  -1.179132e+05   1.096496e+05   0.000000e+00   0.000000e+00   0.000000e+00   1.177889e+06   0.000000e+00   0.000000e+00   0.000000e+00
     1248000   1.247999e-05   1.466206e+01   8.527387e+00   1.329933e+01   1.166832e+06  -1.179132e+05   1.096496e+05   0.000000e+00   0.000000e+00   0.000000e+00   1.177889e+06   0.000000e+00   0.000000e+00   0.000000e+00
     1256000   1.255999e-05   1.475541e+01   8.517954e+00   1.330810e+01   1.166832e+06  -1.179132e+05   1.096496e+05   0.000000e+00   0.000000e+00   0.000000e+00   1.177889e+06   0.000000e+00   0.000000e+00   0.000000e+00
     1264000   1.263999e-05   1.484875e+01   8.508521e+00   1.331687e+01   1.166832e+06  -1.179132e+05   1.096496e+05   0.000000e+00   0.000000e+00   0.000000e+00   1.177889e+06   0.000000e+00   0.000000e+00   0.000000e+00
     1272000   1.271999e-05   1.494210e+01   8.499087e+00   1.332564e+01   1.166832e+06  -1.179132e+05   1.096496e+05   0.000000e+00   0.000000e+00   0.000000e+00   1.177889e+06   0.000000e+00   0.000000e+00   0.000000e+00
     1280000   1.279999e-05   1.503545e+01   8.489654e+00   1.333441e+01   1.166832e+06  -1.179132e+05   1.096496e+05   0.000000e+00   0.000000e+00   0.000000e+00   1.177889e+06   0.000000e+00   0.000000e+00   0.000000e+00
     1288000   1.287999e-05   1.512879e+01   8.480221e+00   1.334319e+01   1.166832e+06  -1.179132e+05   1.096496e+05   0.000000e+00   0.000000e+00   0.000000e+00   1.177889e+06   0.000000e+00   0.000000e+00   0.000000e+00
     1296000   1.295999e-05   1.522214e+01   8.470788e+00   1.335196e+01   1.166832e+06  -1.179132e+05   1.096496e+05   0.000000e+00   0.000000e+00   0.000000e+00   1.177889e+06   0.000000e+00   0.000000e+00   0.000000e+00
     1304000   1.303999e-05   1.531549e+01   8.461355e+00   1.336073e+01   1.166832e+06  -1.179132e+05   1.096496e+05   0.000000e+00   0.000000e+00   0.000000e+00   1.177889e+06   0.000000e+00   0.000000e+00   0.000000e+00
     1312000   1.311999e-05   1.540883e+01   8.451922e+00   1.336950e+01   1.166832e+06  -1.179132e+05   1.096496e+05   0.000000e+00   0.000000e+00   0.000000e+00   1.177889e+06   0.000000e+00   0.000000e+00   0.000000e+00
     1320000   1.319999e-05   1.550218e+01   8.442489e+00   1.337827e+01   1.166832e+06  -1.179132e+05   1.096496e+05   0.000000e+00   0.000000e+00   0.000000e+00   1.177889e+06   0.000000e+00   0.000000e+00   0.000000e+00
     1328000   1.327999e-05   1.559553e+01   8.433056e+00   1.338705e+01   1.166832e+06  -1.179132e+05   1.096496e+05   0.000000e+00   0.000000e+00   0.000000e+00   1.177889e+06   0.000000e+00   0.000000e+00   0.000000e+00
     1336000   1.335999e-05   1.568887e+01   8.423623e+00   1.339582e+01   1.166832e+06  -1.179132e+05   1.096496e+05   0.000000e+00   0.000000e+00   0.000000e+00   1.177889e+06   0.000000e+00   0.000000e+00   0.000000e+00
     1344000   1.343999e-05   1.578222e+01   8.414190e+00   1.340459e+01   1.166832e+06  -1.179132e+05   1.096496e+05   0.000000e+00   0.000000e+00   0.000000e+00   1.177889e+06   0.000000e+00   0.000000e+00   0.000000e+00
     1352000   1.351999e-05   1.587557e+01   8.404757e+00   1.341336e+01   1.166832e+06  -1.179132e+05   1.096496e+05   0.000000e+00   0.000000e+00   0.000000e+00   1.177889e+06   0.000000e+00   0.000000e+00   0.000000e+00
     1360000   1.359999e-05   1.596891e+01   8.395324e+00   1.342213e+01   1.166832e+06  -1.179132e+05   1.096496e+05   0.000000e+00   0.000000e+00   0.000000e+00   1.177889e+06   0.000000e+00   0.000000e+00   0.000000e+00
     1368000   1.367999e-05   1.606226e+01   8.385891e+00   1.343091e+01   1.166832e+06  -1.179132e+05   1.096496e+05   0.000000e+00   0.000000e+00   0.000000e+00   1.177889e+06   0.000000e+00   0.000000e+00   0.000000e+00
     1376000   1.375999e-05   1.615561e+01   8.376458e+00   1.343968e+01   1.166832e+06  -1.179132e+05   1.096496e+05   0.000000e+00   0.000000e+00   0.000000e+00   1.177889e+06   0.000000e+00   0.000000e+00   0.000000e+00
     1384000   1.383999e-05   1.624895e+01   8.367025e+00   1.344845e+01   1.166832e+06  -1.179132e+05   1.096496e+05   0.000000e+00   0.000000e+00   0.000000e+00   1.177889e+06   0.000000e+00   0.000000e+00   0.000000e+00
     1392000   1.391999e-05   1.634230e+01   8.357592e+00   1.345722e+01   1.166832e+06  -1.179132e+05   1.096496e+05   0.000000e+00   0.000000e+00   0.000000e+00   1.177889e+06   0.000000e+00   0.000000e+00   0.000000e+00
     1400000   1.399999e-05   1.643564e+01   8.348159e+00   1.346599e+01   1.166832e+06  -1.179132e+05   1.096496e+05   0.000000e+00   0.000000e+00   0.000000e+00   1.177889e+06   0.000000e+00   0.000000e+00   0.000000e+00
     1408000   1.407999e-05   1.652899e+01   8.338725e+00   1.347477e+01   1.166832e+06  -1.179132e+05   1.096496e+05   0.000000e+00   0.000000e+00   0.000000e+00   1.177889e+06   0.000000e+00   0.000000e+00   0.000000e+00
     1416000   1.415999e-05   1.662234e+01   8.329292e+00   1.348354e+01   1.166832e+06  -1.179132e+05   1.096496e+05   0.000000e+00   0.000000e+00   0.000000e+00   1.177889e+06   0.000000e+00   0.000000e+00   0.000000e+00
     1424000   1.423999e-05   1.671568e+01   8.319859e+00   1.349231e+01   1.166832e+06  -1.179132e+05   1.096496e+05   0.000000e+00   0.000000e+00   0.000000e+00   1.177889e+06   0.000000e+00   0.000000e+00   0.000000e+00
     1432000   1.431999e-05   1.680903e+01   8.310426e+00   1.350108e+01   1.166832e+06  -1.179132e+05   1.096496e+05   0.000000e+00   0.000000e+00   0.000000e+00   1.177889e+06   0.000000e+00   0.000000e+00   0.000000e+00
     1440000   1.439999e-05   1.690238e+01   8.300993e+00   1.350985e+01   1.166832e+06  -1.179132e+05   1.096496e+05   0.000000e+00   0.000000e+00   0.000000e+00   1.177889e+06   0.000000e+00   0.000000e+00   0.000000e+00
     1448000   1.447999e-05   1.699572e+01   8.291560e+00   1.351863e+01   1.166832e+06  -1.179132e+05   1.096496e+05   0.000000e+00   0.000000e+00   0.000000e+00   1.177889e+06   0.000000e+00   0.000000e+00   0.000000e+00
     1456000   1.455999e-05   1.708907e+01   8.282127e+00   1.352740e+01   1.166832e+06  -1.179132e+05   1.096496e+05   0.000000e+00   0.000000e+00   0.000000e+00   1.177889e+06   0.000000e+00   0.000000e+00   0.000000e+00
     1464000   1.463999e-05   1.718242e+01   8.272694e+00   1.353617e+01   1.166832e+06  -1.179132e+05   1.096496e+05   0.000000e+00   0.000000e+00   0.000000e+00   1.177889e+06   0.000000e+00   0.000000e+00   0.000000e+00
     1472000   1.471999e-05   1.727576e+01   8.263261e+00   1.354494e+01   1.166832e+06  -1.179132e+05   1.096496e+05   0.000000e+00   0.000000e+00   0.000000e+00   1.177889e+06   0.000000e+00   0.000000e+00   0.000000e+00
     1480000   1.479999e-05   1.736911e+01   8.253828e+00   1.355371e+01   1.166832e+06  -1.179132e+05   1.096496e+05   0.000000e+00   0.000000e+00   0.000000e+00   1.177889e+06   0.000000e+00   0.000000e+00   0.000000e+00
     1488000   1.487999e-05   1.746246e+01   8.244395e+00   1.356248e+01   1.166832e+06  -1.179132e+05   1.096496e+05   0.000000e+00   0.000000e+00   0.000000e+00   1.177889e+06   0.000000e+00   0.000000e+00   0.000000e+00
     1496000   1.495999e-05   1.755580e+01   8.234962e+00   1.357126e+01   1.166832e+06  -1.179132e+05   1.096496e+05   0.000000e+00   0.000000e+00   0.000000e+00   1.177889e+06   0.000000e+00   0.000000e+00   0.000000e+00
     1504000   1.503999e-05   1.764915e+01   8.225529e+00   1.358003e+01   1.166832e+06  -1.179132e+05   1.096496e+05   0.000000e+00   0.000000e+00   0.000000e+00   1.177889e+06   0.000000e+00   0.000000e+00   0.000000e+00
     1512000   1.511999e-05   1.774250e+01   8.216096e+00   1.358880e+01   1.166832e+06  -1.179132e+05   1.096496e+05   0.000000e+00   0.000000e+00   0.000000e+00   1.177889e+06   0.000000e+00   0.000000e+00   0.000000e+00
     1520000   1.519999e-05   1.783584e+01   8.206663e+00   1.359757e+01   1.166832e+06  -1.179132e+05   1.096496e+05   0.000000e+00   0.000000e+00   0.000000e+00   1.177889e+06   0.000000e+00   0.000000e+00   0.000000e+00
     1528000   1.527999e-05   1.792919e+01   8.197230e+00   1.360634e+01   1.166832e+06  -1.179132e+05   1.096496e+05   0.000000e+00   0.000000e+00   0.000000e+00   1.177889e+06   0.000000e+00   0.000000e+00   0.000000e+00
     1536000   1.535999e-05   1.802254e+01   8.187797e+00   1.361512e+01   1.166832e+06  -1.179132e+05   1.096496e+05   0.000000e+00   0.000000e+00   0.000000e+00   1.177889e+06   0.000000e+00   0.000000e+00   0.000000e+00
     1544000   1.543999e-05   1.811588e+01   8.178363e+00   1.362389e+01   1.166832e+06  -1.179132e+05   1.096496e+05   0.000000e+00   0.000000e+00   0.000000e+00   1.177889e+06   0.000000e+00   0.000000e+00   0.000000e+00
     1552000   1.551999e-05   1.820923e+01   8.168930e+00   1.363266e+01   1.166832e+06  -1.179132e+05   1.096496e+05   0.000000e+00   0.000000e+00   0.000000e+00   1.177889e+06   0.000000e+00   0.000000e+00   0.000000e+00
     1560000   1.559999e-05   1.830258e+01   8.159497e+00   1.364143e+01   1.166832e+06  -1.179132e+05   1.096496e+05   0.000000e+00   0.000000e+00   0.000000e+00   1.177889e+06   0.000000e+00   0.000000e+00   0.000000e+00
     1568000   1.567999e-05   1.839592e+01   8.150064e+00   1.365020e+01   1.166832e+06  -1.179132e+05   1.096496e+05   0.000000e+00   0.000000e+00   0.000000e+00   1.177889e+06   0.000000e+00   0.000000e+00   0.000000e+00
     1576000   1.575999e-05   1.848927e+01   8.140631e+00   1.365898e+01   1.166832e+06  -1.179132e+05   1.096496e+05   0.000000e+00   0.000000e+00   0.000000e+00   1.177889e+06   0.000000e+00   0.000000e+00   0.000000e+00
     1584000   1.583999e-05   1.858262e+01   8.131198e+00   1.366775e+01   1.166832e+06  -1.179132e+05   1.096496e+05   0.000000e+00   0.000000e+00   0.000000e+00   1.177889e+06   0.000000e+00   0.000000e+00   0.000000e+00
     1592000   1.591999e-05   1.867596e+01   8.121765e+00   1.367652e+01   1.166832e+06  -1.179132e+05   1.096496e+05   0.000000e+00   0.000000e+00   0.000000e+00   1.177889e+06   0.000000e+00   0.000000e+00   0.000000e+00
     1600000   1.599999e-05   1.876931e+01   8.112332e+00   1.368529e+01   1.166832e+06  -1.179132e+05   1.096496e+05   0.000000e+00   0.000000e+00   0.000000e+00   1.177889e+06   0.000000e+00   0.000000e+00   0.000000e+00
     1608000   1.607999e-05   1.886265e+01   8.102899e+00   1.369406e+01   1.166832e+06  -1.179132e+05   1.096496e+05   0.000000e+00   0.000000e+00   0.000000e+00   1.177889e+06   0.000000e+00   0.000000e+00   0.000000e+00
     1616000   1.615999e-05   1.895600e+01   8.093466e+00   1.370284e+01   1.166832e+06  -1.179132e+05   1.096496e+05   0.000000e+00   0.000000e+00   0.000000e+00   1.177889e+06   0.000000e+00   0.000000e+00   0.000000e+00
     1624000   1.623999e-05   1.904935e+01   8.084033e+00   1.371161e+01   1.166832e+06  -1.179132e+05   1.096496e+05   0.000000e+00   0.000000e+00   0.000000e+00   1.177889e+06   0.000000e+00   0.000000e+00   0.000000e+00
     1632000   1.631999e-05   1.914269e+01   8.074600e+00   1.372038e+01   1.166832e+06  -1.179132e+05   1.096496e+05   0.000000e+00   0.000000e+00   0.000000e+00   1.177889e+06   0.000000e+00   0.000000e+00   0.000000e+00
     1640000   1.639999e-05   1.923604e+01   8.065167e+00   1.372915e+01   1.166832e+06  -1.179132e+05   1.096496e+05   0.000000e+00   0.000000e+00   0.000000e+00   1.177889e+06   0.000000e+00   0.000000e+00   0.000000e+00
     1648000   1.647999e-05   1.932939e+01   8.055734e+00   1.373792e+01   1.166832e+06  -1.179132e+05   1.096496e+05   0.000000e+00   0.000000e+00   0.000000e+00   1.177889e+06   0.000000e+00   0.000000e+00   0.000000e+00
     1656000   1.655999e-05   1.942273e+01   8.046301e+00   1.374670e+01   1.166832e+06  -1.179132e+05   1.096496e+05   0.000000e+00   0.000000e+00   0.000000e+00   1.177889e+06   0.000000e+00   0.000000e+00   0.000000e+00
     1664000   1.663999e-05   1.951608e+01   8.036868e+00   1.375547e+01   1.166832e+06  -1.179132e+05   1.096496e+05   0.000000e+00   0.000000e+00   0.000000e+00   1.177889e+06   0.000000e+00   0.000000e+00   0.000000e+00
     1672000   1.671999e-05   1.960943e+01   8.027434e+00   1.376424e+01   1.166832e+06  -1.179132e+05   1.096496e+05   0.000000e+00   0.000000e+00   0.000000e+00   1.177889e+06   0.000000e+00   0.000000e+00   0.000000e+00
     1680000   1.679999e-05   1.970277e+01   8.018001e+00   1.377301e+01   1.166832e+06  -1.179132e+05   1.096496e+05   0.000000e+00   0.000000e+00   0.000000e+00   1.177889e+06   0.000000e+00   0.000000e+00   0.000000e+00
     1688000   1.687999e-05   1.979612e+01   8.008568e+00   1.378178e+01   1.166832e+06  -1.179132e+05   1.096496e+05   0.000000e+00   0.000000e+00   0.000000e+00   1.177889e+06   0.000000e+00   0.000000e+00   0.000000e+00
     1696000   1.695999e-05   1.988947e+01   7.999135e+00   1.379056e+01   1.166832e+06  -1.179132e+05   1.096496e+05   0.000000e+00   0.000000e+00   0.000000e+00   1.177889e+06   0.000000e+00   0.000000e+00   0.000000e+00
     1704000   1.703999e-05   1.998281e+01   7.989702e+00   1.379933e+01   1.166832e+06  -1.179132e+05   1.096496e+05   0.000000e+00   0.000000e+00   0.000000e+00   1.177889e+06   0.000000e+00   0.000000e+00   0.000000e+00
     1712000   1.711999e-05   2.007616e+01   7.980269e+00   1.380810e+01   1.166832e+06  -1.179132e+05   1.096496e+05   0.000000e+00   0.000000e+00   0.000000e+00   1.177889e+06   0.000000e+00   0.000000e+00   0.000000e+00
     1720000   1.719999e-05   2.016951e+01   7.970836e+00   1.381687e+01   1.166832e+06  -1.179132e+05   1.096496e+05   0.000000e+00   0.000000e+00   0.000000e+00   1.177889e+06   0.000000e+00   0.000000e+00   0.000000e+00
     1728000   1.727999e-05   2.026285e+01   7.961403e+00   1.382564e+01   1.166832e+06  -1.179132e+05   1.096496e+05   0.000000e+00   0.000000e+00   0.000000e+00   1.177889e+06   0.000000e+00   0.000000e+00   0.000000e+00
     1736000   1.735999e-05   2.035620e+01   7.951970e+00   1.383442e+01   1.166832e+06  -1.179132e+05   1.096496e+05   0.000000e+00   0.000000e+00   0.000000e+00   1.177889e+06   0.000000e+00   0.000000e+00   0.000000e+00
     1744000   1.743999e-05   2.044955e+01   7.942537e+00   1.384319e+01   1.166832e+06  -1.179132e+05   1.096496e+05   0.000000e+00   0.000000e+00   0.000000e+00   1.177889e+06   0.000000e+00   0.000000e+00   0.000000e+00
     1752000   1.751999e-05   2.054289e+01   7.933104e+00   1.385196e+01   1.166832e+06  -1.179132e+05   1.096496e+05   0.000000e+00   0.000000e+00   0.000000e+00   1.177889e+06   0.000000e+00   0.000000e+00   0.000000e+00
     1760000   1.759999e-05   2.063624e+01   7.923671e+00   1.386073e+01   1.166832e+06  -1.179132e+05   1.096496e+05   0.000000e+00   0.000000e+00   0.000000e+00   1.177889e+06   0.000000e+00   0.000000e+00   0.000000e+00
     1768000   1.767999e-05   2.072959e+01   7.914238e+00   1.386950e+01   1.166832e+06  -1.179132e+05   1.096496e+05   0.000000e+00   0.000000e+00   0.000000e+00   1.177889e+06   0.000000e+00   0.000000e+00   0.000000e+00
     1776000   1.775999e-05   2.082293e+01   7.904805e+00   1.387828e+01   1.166832e+06  -1.179132e+05   1.096496e+05   0.000000e+00   0.000000e+00   0.000000e+00   1.177889e+06   0.000000e+00   0.000000e+00   0.000000e+00
     1784000   1.783999e-05   2.091628e+01   7.895372e+00   1.388705e+01   1.166832e+06  -1.179132e+05   1.096496e+05   0.000000e+00   0.000000e+00   0.000000e+00   1.177889e+06   0.000000e+00   0.000000e+00   0.000000e+00
     1792000   1.791999e-05   2.100963e+01   7.885939e+00   1.389582e+01   1.166832e+06  -1.179132e+05   1.096496e+05   0.000000e+00   0.000000e+00   0.000000e+00   1.177889e+06   0.000000e+00   0.000000e+00   0.000000e+00
     1800000   1.799999e-05   2.110297e+01   7.876506e+00   1.390459e+01   1.166832e+06  -1.179132e+05   1.096496e+05   0.000000e+00   0.000000e+00   0.000000e+00   1.177889e+06   0.000000e+00   0.000000e+00   0.000000e+00
     1808000   1.807999e-05   2.119632e+01   7.867072e+00   1.391336e+01   1.166832e+06  -1.179132e+05   1.096496e+05   0.000000e+00   0.000000e+00   0.000000e+00   1.177889e+06   0.000000e+00   0.000000e+00   0.000000e+00
     1816000   1.815999e-05   2.128966e+01   7.857639e+00   1.392214e+01   1.166832e+06  -1.179132e+05   1.096496e+05   0.000000e+00   0.000000e+00   0.000000e+00   1.177889e+06   0.000000e+00   0.000000e+00   0.000000e+00
     1824000   1.823999e-05   2.138301e+01   7.848206e+00   1.393091e+01   1.166832e+06  -1.179132e+05   1.096496e+05   0.000000e+00   0.000000e+00   0.000000e+00   1.177889e+06   0.000000e+00   0.000000e+00   0.000000e+00
     1832000   1.831999e-05   2.147636e+01   7.838773e+00   1.393968e+01   1.166832e+06  -1.179132e+05   1.096496e+05   0.000000e+00   0.000000e+00   0.000000e+00   1.177889e+06   0.000000e+00   0.000000e+00   0.000000e+00
     1840000   1.839999e-05   2.156970e+01   7.829340e+00   1.394845e+01   1.166832e+06  -1.179132e+05   1.096496e+05   0.000000e+00   0.000000e+00   0.000000e+00   1.177889e+06   0.000000e+00   0.000000e+00   0.000000e+00
     1848000   1.847999e-05   2.166305e+01   7.819907e+00   1.395722e+01   1.166832e+06  -1.179132e+05   1.096496e+05   0.000000e+00   0.000000e+00   0.000000e+00   1.177889e+06   0.000000e+00   0.000000e+00   0.000000e+00
     1856000   1.855999e-05   2.175640e+01   7.810474e+00   1.396600e+01   1.166832e+06  -1.179132e+05   1.096496e+05   0.000000e+00   0.000000e+00   0.000000e+00   1.177889e+06   0.000000e+00   0.000000e+00   0.000000e+00
     1864000   1.863999e-05   2.184974e+01   7.801041e+00   1.397477e+01   1.166832e+06  -1.179132e+05   1.096496e+05   0.000000e+00   0.000000e+00   0.000000e+00   1.177889e+06   0.000000e+00   0.000000e+00   0.000000e+00
     1872000   1.871999e-05   2.194309e+01   7.791608e+00   1.398354e+01   1.166832e+06  -1.179132e+05   1.096496e+05   0.000000e+00   0.000000e+00   0.000000e+00   1.177889e+06   0.000000e+00   0.000000e+00   0.000000e+00
     1880000   1.879999e-05   2.203644e+01   7.782175e+00   1.399231e+01   1.166832e+06  -1.179132e+05   1.096496e+05   0.000000e+00   0.000000e+00   0.000000e+00   1.177889e+06   0.000000e+00   0.000000e+00   0.000000e+00
     1888000   1.887999e-05   2.212978e+01   7.772742e+00   1.400108e+01   1.166832e+06  -1.179132e+05   1.096496e+05   0.000000e+00   0.000000e+00   0.000000e+00   1.177889e+06   0.000000e+00   0.000000e+00   0.000000e+00
     1896000   1.895999e-05   2.222313e+01   7.763309e+00   1.400986e+01   1.166832e+06  -1.179132e+05   1.096496e+05   0.000000e+00   0.000000e+00   0.000000e+00   1.177889e+06   0.000000e+00   0.000000e+00   0.000000e+00
     1904000   1.903999e-05   2.231648e+01   7.753876e+00   1.401863e+01   1.166832e+06  -1.179132e+05   1.096496e+05   0.000000e+00   0.000000e+00   0.000000e+00   1.177889e+06   0.000000e+00   0.000000e+00   0.000000e+00
     1912000   1.911999e-05   2.240982e+01   7.744443e+00   1.402740e+01   1.166832e+06  -1.179132e+05   1.096496e+05   0.000000e+00   0.000000e+00   0.000000e+00   1.177889e+06   0.000000e+00   0.000000e+00   0.000000e+00
     1920000   1.919999e-05   2.250317e+01   7.735010e+00   1.403617e+01   1.166832e+06  -1.179132e+05   1.096496e+05   0.000000e+00   0.000000e+00   0.000000e+00   1.177889e+06   0.000000e+00   0.000000e+00   0.000000e+00
     1928000   1.927999e-05   2.259652e+01   7.725577e+00   1.404494e+01   1.166832e+06  -1.179132e+05   1.096496e+05   0.000000e+00   0.000000e+00   0.000000e+00   1.177889e+06   0.000000e+00   0.000000e+00   0.000000e+00
     1936000   1.935999e-05   2.268986e+01   7.716144e+00   1.405372e+01   1.166832e+06  -1.179132e+05   1.096496e+05   0.000000e+00   0.000000e+00   0.000000e+00   1.177889e+06   0.000000e+00   0.000000e+00   0.000000e+00
     1944000   1.943999e-05   2.278321e+01   7.706710e+00   1.406249e+01   1.166832e+06  -1.179132e+05   1.096496e+05   0.000000e+00   0.000000e+00   0.000000e+00   1.177889e+06   0.000000e+00   0.000000e+00   0.000000e+00
     1952000   1.951999e-05   2.287656e+01   7.697277e+00   1.407126e+01   1.166832e+06  -1.179132e+05   1.096496e+05   0.000000e+00   0.000000e+00   0.000000e+00   1.177889e+06   0.000000e+00   0.000000e+00   0.000000e+00
     1960000   1.959999e-05   2.296990e+01   7.687844e+00   1.408003e+01   1.166832e+06  -1.179132e+05   1.096496e+05   0.000000e+00   0.000000e+00   0.000000e+00   1.177889e+06   0.000000e+00   0.000000e+00   0.000000e+00
     1968000   1.967999e-05   2.306325e+01   7.678411e+00   1.408880e+01   1.166832e+06  -1.179132e+05   1.096496e+05   0.000000e+00   0.000000e+00   0.000000e+00   1.177889e+06   0.000000e+00   0.000000e+00   0.000000e+00
     1976000   1.975999e-05   2.315660e+01   7.668978e+00   1.409757e+01   1.166832e+06  -1.179132e+05   1.096496e+05   0.000000e+00   0.000000e+00   0.000000e+00   1.177889e+06   0.000000e+00   0.000000e+00   0.000000e+00
     1984000   1.983999e-05   2.324994e+01   7.659545e+00   1.410635e+01   1.166832e+06  -1.179132e+05   1.096496e+05   0.000000e+00   0.000000e+00   0.000000e+00   1.177889e+06   0.000000e+00   0.000000e+00   0.000000e+00
     1992000   1.991999e-05   2.334329e+01   7.650112e+00   1.411512e+01   1.166832e+06  -1.179132e+05   1.096496e+05   0.000000e+00   0.000000e+00   0.000000e+00   1.177889e+06   0.000000e+00   0.000000e+00   0.000000e+00
     2000000   1.999999e-05   2.343664e+01   7.640679e+00   1.412389e+01   1.166832e+06  -1.179132e+05   1.096496e+05   0.000000e+00   0.000000e+00   0.000000e+00   1.177889e+06   0.000000e+00   0.000000e+00   0.000000e+00
     2008000   2.007999e-05   2.352998e+01   7.631246e+00   1.413266e+01   1.166832e+06  -1.179132e+05   1.096496e+05   0.000000e+00   0.000000e+00   0.000000e+00   1.177889e+06   0.000000e+00   0.000000e+00   0.000000e+00
     2016000   2.015999e-05   2.362333e+01   7.621813e+00   1.414143e+01   1.166832e+06  -1.179132e+05   1.096496e+05   0.000000e+00   0.000000e+00   0.000000e+00   1.177889e+06   0.000000e+00   0.000000e+00   0.000000e+00
     2024000   2.023999e-05   2.371668e+01   7.612380e+00   1.415021e+01   1.166832e+06  -1.179132e+05   1.096496e+05   0.000000e+00   0.000000e+00   0.000000e+00   1.177889e+06   0.000000e+00   0.000000e+00   0.000000e+00
     2032000   2.031999e-05   2.381002e+01   7.602947e+00   1.415898e+01   1.166832e+06  -1.179132e+05   1.096496e+05   0.000000e+00   0.000000e+00   0.000000e+00   1.177889e+06   0.000000e+00   0.000000e+00   0.000000e+00
     2040000   2.039999e-05   2.390337e+01   7.593514e+00   1.416775e+01   1.166832e+06  -1.179132e+05   1.096496e+05   0.000000e+00   0.000000e+00   0.000000e+00   1.177889e+06   0.000000e+00   0.000000e+00   0.000000e+00
     2048000   2.047999e-05   2.399671e+01   7.584081e+00   1.417652e+01   1.166832e+06  -1.179132e+05   1.096496e+05   0.000000e+00   0.000000e+00   0.000000e+00   1.177889e+06   0.000000e+00   0.000000e+00   0.000000e+00
     2056000   2.055999e-05   2.409006e+01   7.574648e+00   1.418529e+01   1.166832e+06  -1.179132e+05   1.096496e+05   0.000000e+00   0.000000e+00   0.000000e+00   1.177889e+06   0.000000e+00   0.000000e+00   0.000000e+00
     2064000   2.063999e-05   2.418341e+01   7.565215e+00   1.419407e+01   1.166832e+06  -1.179132e+05   1.096496e+05   0.000000e+00   0.000000e+00   0.000000e+00   1.177889e+06   0.000000e+00   0.000000e+00   0.000000e+00
     2072000   2.071999e-05   2.427675e+01   7.555782e+00   1.420284e+01   1.166832e+06  -1.179132e+05   1.096496e+05   0.000000e+00   0.000000e+00   0.000000e+00   1.177889e+06   0.000000e+00   0.000000e+00   0.000000e+00
     2080000   2.079999e-05   2.437010e+01   7.546348e+00   1.421161e+01   1.166832e+06  -1.179132e+05   1.096496e+05   0.000000e+00   0.000000e+00   0.000000e+00   1.177889e+06   0.000000e+00   0.000000e+00   0.000000e+00
     2088000   2.087999e-05   2.446345e+01   7.536915e+00   1.422038e+01   1.166832e+06  -1.179132e+05   1.096496e+05   0.000000e+00   0.000000e+00   0.000000e+00   1.177889e+06   0.000000e+00   0.000000e+00   0.000000e+00
     2096000   2.095999e-05   2.455679e+01   7.527482e+00   1.422915e+01   1.166832e+06  -1.179132e+05   1.096496e+05   0.000000e+00   0.000000e+00   0.000000e+00   1.177889e+06   0.000000e+00   0.000000e+00   0.000000e+00
     2104000   2.103999e-05   2.465014e+01   7.518049e+00   1.423793e+01   1.166832e+06  -1.179132e+05   1.096496e+05   0.000000e+00   0.000000e+00   0.000000e+00   1.177889e+06   0.000000e+00   0.000000e+00   0.000000e+00
     2112000   2.111999e-05   2.474349e+01   7.508616e+00   1.424670e+01   1.166832e+06  -1.179132e+05   1.096496e+05   0.000000e+00   0.000000e+00   0.000000e+00   1.177889e+06   0.000000e+00   0.000000e+00   0.000000e+00
     2120000   2.119999e-05   2.483683e+01   7.499183e+00   1.425547e+01   1.166832e+06  -1.179132e+05   1.096496e+05   0.000000e+00   0.000000e+00   0.000000e+00   1.177889e+06   0.000000e+00   0.000000e+00   0.000000e+00
     2128000   2.127999e-05   2.493018e+01   7.489750e+00   1.426424e+01   1.166832e+06  -1.179132e+05   1.096496e+05   0.000000e+00   0.000000e+00   0.000000e+00   1.177889e+06   0.000000e+00   0.000000e+00   0.000000e+00
     2136000   2.135999e-05   2.502353e+01   7.480317e+00   1.427301e+01   1.166832e+06  -1.179132e+05   1.096496e+05   0.000000e+00   0.000000e+00   0.000000e+00   1.177889e+06   0.000000e+00   0.000000e+00   0.000000e+00
     2144000   2.143999e-05   2.511687e+01   7.470884e+00   1.428179e+01   1.166832e+06  -1.179132e+05   1.096496e+05   0.000000e+00   0.000000e+00   0.000000e+00   1.177889e+06   0.000000e+00   0.000000e+00   0.000000e+00
     2152000   2.151999e-05   2.521022e+01   7.461451e+00   1.429056e+01   1.166832e+06  -1.179132e+05   1.096496e+05   0.000000e+00   0.000000e+00   0.000000e+00   1.177889e+06   0.000000e+00   0.000000e+00   0.000000e+00
     2160000   2.159999e-05   2.530357e+01   7.452018e+00   1.429933e+01   1.166832e+06  -1.179132e+05   1.096496e+05   0.000000e+00   0.000000e+00   0.000000e+00   1.177889e+06   0.000000e+00   0.000000e+00   0.000000e+00
     2168000   2.167999e-05   2.539691e+01   7.442585e+00   1.430810e+01   1.166832e+06  -1.179132e+05   1.096496e+05   0.000000e+00   0.000000e+00   0.000000e+00   1.177889e+06   0.000000e+00   0.000000e+00   0.000000e+00
     2176000   2.175999e-05   2.549026e+01   7.433152e+00   1.431687e+01   1.166832e+06  -1.179132e+05   1.096496e+05   0.000000e+00   0.000000e+00   0.000000e+00   1.177889e+06   0.000000e+00   0.000000e+00   0.000000e+00
     2184000   2.183999e-05   2.558361e+01   7.423719e+00   1.432565e+01   1.166832e+06  -1.179132e+05   1.096496e+05   0.000000e+00   0.000000e+00   0.000000e+00   1.177889e+06   0.000000e+00   0.000000e+00   0.000000e+00
     2192000   2.191999e-05   2.567695e+01   7.414286e+00   1.433442e+01   1.166832e+06  -1.179132e+05   1.096496e+05   0.000000e+00   0.000000e+00   0.000000e+00   1.177889e+06   0.000000e+00   0.000000e+00   0.000000e+00
     2200000   2.199999e-05   2.577030e+01   7.404853e+00   1.434319e+01   1.166832e+06  -1.179132e+05   1.096496e+05   0.000000e+00   0.000000e+00   0.000000e+00   1.177889e+06   0.000000e+00   0.000000e+00   0.000000e+00
     2208000   2.207999e-05   2.586365e+01   7.395419e+00   1.435196e+01   1.166832e+06  -1.179132e+05   1.096496e+05   0.000000e+00   0.000000e+00   0.000000e+00   1.177889e+06   0.000000e+00   0.000000e+00   0.000000e+00
     2216000   2.215999e-05   2.595699e+01   7.385986e+00   1.436073e+01   1.166832e+06  -1.179132e+05   1.096496e+05   0.000000e+00   0.000000e+00   0.000000e+00   1.177889e+06   0.000000e+00   0.000000e+00   0.000000e+00
     2224000   2.223999e-05   2.605034e+01   7.376553e+00   1.436951e+01   1.166832e+06  -1.179132e+05   1.096496e+05   0.000000e+00   0.000000e+00   0.000000e+00   1.177889e+06   0.000000e+00   0.000000e+00   0.000000e+00
     2232000   2.231999e-05   2.614369e+01   7.367120e+00   1.437828e+01   1.166832e+06  -1.179132e+05   1.096496e+05   0.000000e+00   0.000000e+00   0.000000e+00   1.177889e+06   0.000000e+00   0.000000e+00   0.000000e+00
     2240000   2.239999e-05   2.623703e+01   7.357687e+00   1.438705e+01   1.166832e+06  -1.179132e+05   1.096496e+05   0.000000e+00   0.000000e+00   0.000000e+00   1.177889e+06   0.000000e+00   0.000000e+00   0.000000e+00
     2248000   2.247999e-05   2.633038e+01   7.348254e+00   1.439582e+01   1.166832e+06  -1.179132e+05   1.096496e+05   0.000000e+00   0.000000e+00   0.000000e+00   1.177889e+06   0.000000e+00   0.000000e+00   0.000000e+00
     2256000   2.255999e-05   2.642372e+01   7.338821e+00   1.440459e+01   1.166832e+06  -1.179132e+05   1.096496e+05   0.000000e+00   0.000000e+00   0.000000e+00   1.177889e+06   0.000000e+00   0.000000e+00   0.000000e+00
     2264000   2.263999e-05   2.651707e+01   7.329388e+00   1.441337e+01   1.166832e+06  -1.179132e+05   1.096496e+05   0.000000e+00   0.000000e+00   0.000000e+00   1.177889e+06   0.000000e+00   0.000000e+00   0.000000e+00
     2272000   2.271999e-05   2.661042e+01   7.319955e+00   1.442214e+01   1.166832e+06  -1.179132e+05   1.096496e+05   0.000000e+00   0.000000e+00   0.000000e+00   1.177889e+06   0.000000e+00   0.000000e+00   0.000000e+00
     2280000   2.279999e-05   2.670376e+01   7.310522e+00   1.443091e+01   1.166832e+06  -1.179132e+05   1.096496e+05   0.000000e+00   0.000000e+00   0.000000e+00   1.177889e+06   0.000000e+00   0.000000e+00   0.000000e+00
     2288000   2.287999e-05   2.679711e+01   7.301089e+00   1.443968e+01   1.166832e+06  -1.179132e+05   1.096496e+05   0.000000e+00   0.000000e+00   0.000000e+00   1.177889e+06   0.000000e+00   0.000000e+00   0.000000e+00
     2296000   2.295999e-05   2.689046e+01   7.291656e+00   1.444845e+01   1.166832e+06  -1.179132e+05   1.096496e+05   0.000000e+00   0.000000e+00   0.000000e+00   1.177889e+06   0.000000e+00   0.000000e+00   0.000000e+00
     2304000   2.303999e-05   2.698380e+01   7.282223e+00   1.445723e+01   1.166832e+06  -1.179132e+05   1.096496e+05   0.000000e+00   0.000000e+00   0.000000e+00   1.177889e+06   0.000000e+00   0.000000e+00   0.000000e+00
     2312000   2.311999e-05   2.707715e+01   7.272790e+00   1.446600e+01   1.166832e+06  -1.179132e+05   1.096496e+05   0.000000e+00   0.000000e+00   0.000000e+00   1.177889e+06   0.000000e+00   0.000000e+00   0.000000e+00
     2320000   2.319999e-05   2.717050e+01   7.263357e+00   1.447477e+01   1.166832e+06  -1.179132e+05   1.096496e+05   0.000000e+00   0.000000e+00   0.000000e+00   1.177889e+06   0.000000e+00   0.000000e+00   0.000000e+00
     2328000   2.327999e-05   2.726384e+01   7.253924e+00   1.448354e+01   1.166832e+06  -1.179132e+05   1.096496e+05   0.000000e+00   0.000000e+00   0.000000e+00   1.177889e+06   0.000000e+00   0.000000e+00   0.000000e+00
     2336000   2.335999e-05   2.735719e+01   7.244491e+00   1.449231e+01   1.166832e+06  -1.179132e+05   1.096496e+05   0.000000e+00   0.000000e+00   0.000000e+00   1.177889e+06   0.000000e+00   0.000000e+00   0.000000e+00
     2344000   2.343999e-05   2.745054e+01   7.235057e+00   1.450109e+01   1.166832e+06  -1.179132e+05   1.096496e+05   0.000000e+00   0.000000e+00   0.000000e+00   1.177889e+06   0.000000e+00   0.000000e+00   0.000000e+00
     2352000   2.351999e-05   2.754388e+01   7.225624e+00   1.450986e+01   1.166832e+06  -1.179132e+05   1.096496e+05   0.000000e+00   0.000000e+00   0.000000e+00   1.177889e+06   0.000000e+00   0.000000e+00   0.000000e+00
     2360000   2.359999e-05   2.763723e+01   7.216191e+00   1.451863e+01   1.166832e+06  -1.179132e+05   1.096496e+05   0.000000e+00   0.000000e+00   0.000000e+00   1.177889e+06   0.000000e+00   0.000000e+00   0.000000e+00
     2368000   2.367999e-05   2.773058e+01   7.206758e+00   1.452740e+01   1.166832e+06  -1.179132e+05   1.096496e+05   0.000000e+00   0.000000e+00   0.000000e+00   1.177889e+06   0.000000e+00   0.000000e+00   0.000000e+00
     2376000   2.375999e-05   2.782392e+01   7.197325e+00   1.453617e+01   1.166832e+06  -1.179132e+05   1.096496e+05   0.000000e+00   0.000000e+00   0.000000e+00   1.177889e+06   0.000000e+00   0.000000e+00   0.000000e+00
     2384000   2.383999e-05   2.791727e+01   7.187892e+00   1.454495e+01   1.166832e+06  -1.179132e+05   1.096496e+05   0.000000e+00   0.000000e+00   0.000000e+00   1.177889e+06   0.000000e+00   0.000000e+00   0.000000e+00
     2392000   2.391999e-05   2.801062e+01   7.178459e+00   1.455372e+01   1.166832e+06  -1.179132e+05   1.096496e+05   0.000000e+00   0.000000e+00   0.000000e+00   1.177889e+06   0.000000e+00   0.000000e+00   0.000000e+00
     2400000   2.399999e-05   2.810396e+01   7.169026e+00   1.456249e+01   1.166832e+06  -1.179132e+05   1.096496e+05   0.000000e+00   0.000000e+00   0.000000e+00   1.177889e+06   0.000000e+00   0.000000e+00   0.000000e+00
     2408000   2.407999e-05   2.819731e+01   7.159593e+00   1.457126e+01   1.166832e+06  -1.179132e+05   1.096496e+05   0.000000e+00   0.000000e+00   0.000000e+00   1.177889e+06   0.000000e+00   0.000000e+00   0.000000e+00
     2416000   2.415999e-05   2.829066e+01   7.150160e+00   1.458003e+01   1.166832e+06  -1.179132e+05   1.096496e+05   0.000000e+00   0.000000e+00   0.000000e+00   1.177889e+06   0.000000e+00   0.000000e+00   0.000000e+00
     2424000   2.423999e-05   2.838400e+01   7.140727e+00   1.458881e+01   1.166832e+06  -1.179132e+05   1.096496e+05   0.000000e+00   0.000000e+00   0.000000e+00   1.177889e+06   0.000000e+00   0.000000e+00   0.000000e+00
     2432000   2.431999e-05   2.847735e+01   7.131294e+00   1.459758e+01   1.166832e+06  -1.179132e+05   1.096496e+05   0.000000e+00   0.000000e+00   0.000000e+00   1.177889e+06   0.000000e+00   0.000000e+00   0.000000e+00
     2440000   2.439999e-05   2.857070e+01   7.121861e+00   1.460635e+01   1.166832e+06  -1.179132e+05   1.096496e+05   0.000000e+00   0.000000e+00   0.000000e+00   1.177889e+06   0.000000e+00   0.000000e+00   0.000000e+00
     2448000   2.447999e-05   2.866404e+01   7.112428e+00   1.461512e+01   1.166832e+06  -1.179132e+05   1.096496e+05   0.000000e+00   0.000000e+00   0.000000e+00   1.177889e+06   0.000000e+00   0.000000e+00   0.000000e+00
     2456000   2.455999e-05   2.875739e+01   7.102995e+00   1.462389e+01   1.166832e+06  -1.179132e+05   1.096496e+05   0.000000e+00   0.000000e+00   0.000000e+00   1.177889e+06   0.000000e+00   0.000000e+00   0.000000e+00
     2464000   2.463999e-05   2.885073e+01   7.093562e+00   1.463266e+01   1.166832e+06  -1.179132e+05   1.096496e+05   0.000000e+00   0.000000e+00   0.000000e+00   1.177889e+06   0.000000e+00   0.000000e+00   0.000000e+00
     2472000   2.471999e-05   2.894408e+01   7.084129e+00   1.464144e+01   1.166832e+06  -1.179132e+05   1.096496e+05   0.000000e+00   0.000000e+00   0.000000e+00   1.177889e+06   0.000000e+00   0.000000e+00   0.000000e+00
     2480000   2.479999e-05   2.903743e+01   7.074695e+00   1.465021e+01   1.166832e+06  -1.179132e+05   1.096496e+05   0.000000e+00   0.000000e+00   0.000000e+00   1.177889e+06   0.000000e+00   0.000000e+00   0.000000e+00
     2488000   2.487999e-05   2.913077e+01   7.065262e+00   1.465898e+01   1.166832e+06  -1.179132e+05   1.096496e+05   0.000000e+00   0.000000e+00   0.000000e+00   1.177889e+06   0.000000e+00   0.000000e+00   0.000000e+00
     2496000   2.495999e-05   2.922412e+01   7.055829e+00   1.466775e+01   1.166832e+06  -1.179132e+05   1.096496e+05   0.000000e+00   0.000000e+00   0.000000e+00   1.177889e+06   0.000000e+00   0.000000e+00   0.000000e+00
     2504000   2.503999e-05   2.931747e+01   7.046396e+00   1.467652e+01   1.166832e+06  -1.179132e+05   1.096496e+05   0.000000e+00   0.000000e+00   0.000000e+00   1.177889e+06   0.000000e+00   0.000000e+00   0.000000e+00
     2512000   2.511999e-05   2.941081e+01   7.036963e+00   1.468530e+01   1.166832e+06  -1.179132e+05   1.096496e+05   0.000000e+00   0.000000e+00   0.000000e+00   1.177889e+06   0.000000e+00   0.000000e+00   0.000000e+00
     2520000   2.519999e-05   2.950416e+01   7.027530e+00   1.469407e+01   1.166832e+06  -1.179132e+05   1.096496e+05   0.000000e+00   0.000000e+00   0.000000e+00   1.177889e+06   0.000000e+00   0.000000e+00   0.000000e+00
     2528000   2.527999e-05   2.959751e+01   7.018097e+00   1.470284e+01   1.166832e+06  -1.179132e+05   1.096496e+05   0.000000e+00   0.000000e+00   0.000000e+00   1.177889e+06   0.000000e+00   0.000000e+00   0.000000e+00
     2536000   2.535999e-05   2.969085e+01   7.008664e+00   1.471161e+01   1.166832e+06  -1.179132e+05   1.096496e+05   0.000000e+00   0.000000e+00   0.000000e+00   1.177889e+06   0.000000e+00   0.000000e+00   0.000000e+00
     2544000   2.543999e-05   2.978420e+01   6.999231e+00   1.472038e+01   1.166832e+06  -1.179132e+05   1.096496e+05   0.000000e+00   0.000000e+00   0.000000e+00   1.177889e+06   0.000000e+00   0.000000e+00   0.000000e+00
     2552000   2.551999e-05   2.987755e+01   6.989798e+00   1.472916e+01   1.166832e+06  -1.179132e+05   1.096496e+05   0.000000e+00   0.000000e+00   0.000000e+00   1.177889e+06   0.000000e+00   0.000000e+00   0.000000e+00
     2560000   2.559999e-05   2.997089e+01   6.980365e+00   1.473793e+01   1.166832e+06  -1.179132e+05   1.096496e+05   0.000000e+00   0.000000e+00   0.000000e+00   1.177889e+06   0.000000e+00   0.000000e+00   0.000000e+00
     2568000   2.567999e-05   3.006424e+01   6.970932e+00   1.474670e+01   1.166832e+06  -1.179132e+05   1.096496e+05   0.000000e+00   0.000000e+00   0.000000e+00   1.177889e+06   0.000000e+00   0.000000e+00   0.000000e+00
     2576000   2.575999e-05   3.015759e+01   6.961499e+00   1.475547e+01   1.166832e+06  -1.179132e+05   1.096496e+05   0.000000e+00   0.000000e+00   0.000000e+00   1.177889e+06   0.000000e+00   0.000000e+00   0.000000e+00
     2584000   2.583999e-05   3.025093e+01   6.952066e+00   1.476424e+01   1.166832e+06  -1.179132e+05   1.096496e+05   0.000000e+00   0.000000e+00   0.000000e+00   1.177889e+06   0.000000e+00   0.000000e+00   0.000000e+00
     2592000   2.591999e-05   3.034428e+01   6.942633e+00   1.477302e+01   1.166832e+06  -1.179132e+05   1.096496e+05   0.000000e+00   0.000000e+00   0.000000e+00   1.177889e+06   0.000000e+00   0.000000e+00   0.000000e+00
     2600000   2.599999e-05   3.043763e+01   6.933200e+00   1.478179e+01   1.166832e+06  -1.179132e+05   1.096496e+05   0.000000e+00   0.000000e+00   0.000000e+00   1.177889e+06   0.000000e+00   0.000000e+00   0.000000e+00
     2608000   2.607999e-05   3.053097e+01   6.923767e+00   1.479056e+01   1.166832e+06  -1.179132e+05   1.096496e+05   0.000000e+00   0.000000e+00   0.000000e+00   1.177889e+06   0.000000e+00   0.000000e+00   0.000000e+00
     2616000   2.615999e-05   3.062432e+01   6.914333e+00   1.479933e+01   1.166832e+06  -1.179132e+05   1.096496e+05   0.000000e+00   0.000000e+00   0.000000e+00   1.177889e+06   0.000000e+00   0.000000e+00   0.000000e+00
     2624000   2.623999e-05   3.071767e+01   6.904900e+00   1.480810e+01   1.166832e+06  -1.179132e+05   1.096496e+05   0.000000e+00   0.000000e+00   0.000000e+00   1.177889e+06   0.000000e+00   0.000000e+00   0.000000e+00
     2632000   2.631999e-05   3.081101e+01   6.895467e+00   1.481688e+01   1.166832e+06  -1.179132e+05   1.096496e+05   0.000000e+00   0.000000e+00   0.000000e+00   1.177889e+06   0.000000e+00   0.000000e+00   0.000000e+00
     2640000   2.639999e-05   3.090436e+01   6.886034e+00   1.482565e+01   1.166832e+06  -1.179132e+05   1.096496e+05   0.000000e+00   0.000000e+00   0.000000e+00   1.177889e+06   0.000000e+00   0.000000e+00   0.000000e+00
     2648000   2.647999e-05   3.099771e+01   6.876601e+00   1.483442e+01   1.166832e+06  -1.179132e+05   1.096496e+05   0.000000e+00   0.000000e+00   0.000000e+00   1.177889e+06   0.000000e+00   0.000000e+00   0.000000e+00
     2656000   2.655999e-05   3.109105e+01   6.867168e+00   1.484319e+01   1.166832e+06  -1.179132e+05   1.096496e+05   0.000000e+00   0.000000e+00   0.000000e+00   1.177889e+06   0.000000e+00   0.000000e+00   0.000000e+00
     2664000   2.663999e-05   3.118440e+01   6.857735e+00   1.485196e+01   1.166832e+06  -1.179132e+05   1.096496e+05   0.000000e+00   0.000000e+00   0.000000e+00   1.177889e+06   0.000000e+00   0.000000e+00   0.000000e+00
     2672000   2.671999e-05   3.127774e+01   6.848302e+00   1.486074e+01   1.166832e+06  -1.179132e+05   1.096496e+05   0.000000e+00   0.000000e+00   0.000000e+00   1.177889e+06   0.000000e+00   0.000000e+00   0.000000e+00
     2680000   2.679999e-05   3.137109e+01   6.838869e+00   1.486951e+01   1.166832e+06  -1.179132e+05   1.096496e+05   0.000000e+00   0.000000e+00   0.000000e+00   1.177889e+06   0.000000e+00   0.000000e+00   0.000000e+00
     2688000   2.687999e-05   3.146444e+01   6.829436e+00   1.487828e+01   1.166832e+06  -1.179132e+05   1.096496e+05   0.000000e+00   0.000000e+00   0.000000e+00   1.177889e+06   0.000000e+00   0.000000e+00   0.000000e+00
     2696000   2.695999e-05   3.155778e+01   6.820003e+00   1.488705e+01   1.166832e+06  -1.179132e+05   1.096496e+05   0.000000e+00   0.000000e+00   0.000000e+00   1.177889e+06   0.000000e+00   0.000000e+00   0.000000e+00
     2704000   2.703999e-05   3.165113e+01   6.810570e+00   1.489582e+01   1.166832e+06  -1.179132e+05   1.096496e+05   0.000000e+00   0.000000e+00   0.000000e+00   1.177889e+06   0.000000e+00   0.000000e+00   0.000000e+00
     2712000   2.711999e-05   3.174448e+01   6.801137e+00   1.490460e+01   1.166832e+06  -1.179132e+05   1.096496e+05   0.000000e+00   0.000000e+00   0.000000e+00   1.177889e+06   0.000000e+00   0.000000e+00   0.000000e+00
     2720000   2.719999e-05   3.183782e+01   6.791704e+00   1.491337e+01   1.166832e+06  -1.179132e+05   1.096496e+05   0.000000e+00   0.000000e+00   0.000000e+00   1.177889e+06   0.000000e+00   0.000000e+00   0.000000e+00
     2728000   2.727999e-05   3.193117e+01   6.782271e+00   1.492214e+01   1.166832e+06  -1.179132e+05   1.096496e+05   0.000000e+00   0.000000e+00   0.000000e+00   1.177889e+06   0.000000e+00   0.000000e+00   0.000000e+00
     2736000   2.735999e-05   3.202452e+01   6.772838e+00   1.493091e+01   1.166832e+06  -1.179132e+05   1.096496e+05   0.000000e+00   0.000000e+00   0.000000e+00   1.177889e+06   0.000000e+00   0.000000e+00   0.000000e+00
     2744000   2.743999e-05   3.211786e+01   6.763404e+00   1.493968e+01   1.166832e+06  -1.179132e+05   1.096496e+05   0.000000e+00   0.000000e+00   0.000000e+00   1.177889e+06   0.000000e+00   0.000000e+00   0.000000e+00
     2752000   2.751999e-05   3.221121e+01   6.753971e+00   1.494846e+01   1.166832e+06  -1.179132e+05   1.096496e+05   0.000000e+00   0.000000e+00   0.000000e+00   1.177889e+06   0.000000e+00   0.000000e+00   0.000000e+00
     2760000   2.759999e-05   3.230456e+01   6.744538e+00   1.495723e+01   1.166832e+06  -1.179132e+05   1.096496e+05   0.000000e+00   0.000000e+00   0.000000e+00   1.177889e+06   0.000000e+00   0.000000e+00   0.000000e+00
     2768000   2.767999e-05   3.239790e+01   6.735105e+00   1.496600e+01   1.166832e+06  -1.179132e+05   1.096496e+05   0.000000e+00   0.000000e+00   0.000000e+00   1.177889e+06   0.000000e+00   0.000000e+00   0.000000e+00
     2776000   2.775999e-05   3.249125e+01   6.725672e+00   1.497477e+01   1.166832e+06  -1.179132e+05   1.096496e+05   0.000000e+00   0.000000e+00   0.000000e+00   1.177889e+06   0.000000e+00   0.000000e+00   0.000000e+00
     2784000   2.783999e-05   3.258460e+01   6.716239e+00   1.498354e+01   1.166832e+06  -1.179132e+05   1.096496e+05   0.000000e+00   0.000000e+00   0.000000e+00   1.177889e+06   0.000000e+00   0.000000e+00   0.000000e+00
     2792000   2.791999e-05   3.267794e+01   6.706806e+00   1.499232e+01   1.166832e+06  -1.179132e+05   1.096496e+05   0.000000e+00   0.000000e+00   0.000000e+00   1.177889e+06   0.000000e+00   0.000000e+00   0.000000e+00
     2800000   2.799999e-05   3.277129e+01   6.697373e+00   1.500109e+01   1.166832e+06  -1.179132e+05   1.096496e+05   0.000000e+00   0.000000e+00   0.000000e+00   1.177889e+06   0.000000e+00   0.000000e+00   0.000000e+00
     2808000   2.807999e-05   3.286464e+01   6.687940e+00   1.500986e+01   1.166832e+06  -1.179132e+05   1.096496e+05   0.000000e+00   0.000000e+00   0.000000e+00   1.177889e+06   0.000000e+00   0.000000e+00   0.000000e+00
     2816000   2.815999e-05   3.295798e+01   6.678507e+00   1.501863e+01   1.166832e+06  -1.179132e+05   1.096496e+05   0.000000e+00   0.000000e+00   0.000000e+00   1.177889e+06   0.000000e+00   0.000000e+00   0.000000e+00
     2824000   2.823999e-05   3.305133e+01   6.669074e+00   1.502740e+01   1.166832e+06  -1.179132e+05   1.096496e+05   0.000000e+00   0.000000e+00   0.000000e+00   1.177889e+06   0.000000e+00   0.000000e+00   0.000000e+00
     2832000   2.831999e-05   3.314468e+01   6.659641e+00   1.503618e+01   1.166832e+06  -1.179132e+05   1.096496e+05   0.000000e+00   0.000000e+00   0.000000e+00   1.177889e+06   0.000000e+00   0.000000e+00   0.000000e+00
     2840000   2.839999e-05   3.323802e+01   6.650208e+00   1.504495e+01   1.166832e+06  -1.179132e+05   1.096496e+05   0.000000e+00   0.000000e+00   0.000000e+00   1.177889e+06   0.000000e+00   0.000000e+00   0.000000e+00
     2848000   2.847999e-05   3.333137e+01   6.640775e+00   1.505372e+01   1.166832e+06  -1.179132e+05   1.096496e+05   0.000000e+00   0.000000e+00   0.000000e+00   1.177889e+06   0.000000e+00   0.000000e+00   0.000000e+00
     2856000   2.855999e-05   3.342472e+01   6.631342e+00   1.506249e+01   1.166832e+06  -1.179132e+05   1.096496e+05   0.000000e+00   0.000000e+00   0.000000e+00   1.177889e+06   0.000000e+00   0.000000e+00   0.000000e+00
     2864000   2.863999e-05   3.351806e+01   6.621909e+00   1.507126e+01   1.166832e+06  -1.179132e+05   1.096496e+05   0.000000e+00   0.000000e+00   0.000000e+00   1.177889e+06   0.000000e+00   0.000000e+00   0.000000e+00
     2872000   2.871999e-05   3.361141e+01   6.612476e+00   1.508004e+01   1.166832e+06  -1.179132e+05   1.096496e+05   0.000000e+00   0.000000e+00   0.000000e+00   1.177889e+06   0.000000e+00   0.000000e+00   0.000000e+00
     2880000   2.879999e-05   3.370476e+01   6.603042e+00   1.508881e+01   1.166832e+06  -1.179132e+05   1.096496e+05   0.000000e+00   0.000000e+00   0.000000e+00   1.177889e+06   0.000000e+00   0.000000e+00   0.000000e+00
     2888000   2.887999e-05   3.379810e+01   6.593609e+00   1.509758e+01   1.166832e+06  -1.179132e+05   1.096496e+05   0.000000e+00   0.000000e+00   0.000000e+00   1.177889e+06   0.000000e+00   0.000000e+00   0.000000e+00
     2896000   2.895999e-05   3.389145e+01   6.584176e+00   1.510635e+01   1.166832e+06  -1.179132e+05   1.096496e+05   0.000000e+00   0.000000e+00   0.000000e+00   1.177889e+06   0.000000e+00   0.000000e+00   0.000000e+00
     2904000   2.903999e-05   3.398479e+01   6.574743e+00   1.511512e+01   1.166832e+06  -1.179132e+05   1.096496e+05   0.000000e+00   0.000000e+00   0.000000e+00   1.177889e+06   0.000000e+00   0.000000e+00   0.000000e+00
     2912000   2.911999e-05   3.407814e+01   6.565310e+00   1.512390e+01   1.166832e+06  -1.179132e+05   1.096496e+05   0.000000e+00   0.000000e+00   0.000000e+00   1.177889e+06   0.000000e+00   0.000000e+00   0.000000e+00
     2920000   2.919999e-05   3.417149e+01   6.555877e+00   1.513267e+01   1.166832e+06  -1.179132e+05   1.096496e+05   0.000000e+00   0.000000e+00   0.000000e+00   1.177889e+06   0.000000e+00   0.000000e+00   0.000000e+00
     2928000   2.927999e-05   3.426483e+01   6.546444e+00   1.514144e+01   1.166832e+06  -1.179132e+05   1.096496e+05   0.000000e+00   0.000000e+00   0.000000e+00   1.177889e+06   0.000000e+00   0.000000e+00   0.000000e+00
     2936000   2.935999e-05   3.435818e+01   6.537011e+00   1.515021e+01   1.166832e+06  -1.179132e+05   1.096496e+05   0.000000e+00   0.000000e+00   0.000000e+00   1.177889e+06   0.000000e+00   0.000000e+00   0.000000e+00
     2944000   2.943999e-05   3.445153e+01   6.527578e+00   1.515898e+01   1.166832e+06  -1.179132e+05   1.096496e+05   0.000000e+00   0.000000e+00   0.000000e+00   1.177889e+06   0.000000e+00   0.000000e+00   0.000000e+00
     2952000   2.951999e-05   3.454487e+01   6.518145e+00   1.516775e+01   1.166832e+06  -1.179132e+05   1.096496e+05   0.000000e+00   0.000000e+00   0.000000e+00   1.177889e+06   0.000000e+00   0.000000e+00   0.000000e+00
     2960000   2.959999e-05   3.463822e+01   6.508712e+00   1.517653e+01   1.166832e+06  -1.179132e+05   1.096496e+05   0.000000e+00   0.000000e+00   0.000000e+00   1.177889e+06   0.000000e+00   0.000000e+00   0.000000e+00
     2968000   2.967999e-05   3.473157e+01   6.499279e+00   1.518530e+01   1.166832e+06  -1.179132e+05   1.096496e+05   0.000000e+00   0.000000e+00   0.000000e+00   1.177889e+06   0.000000e+00   0.000000e+00   0.000000e+00
     2976000   2.975999e-05   3.482491e+01   6.489846e+00   1.519407e+01   1.166832e+06  -1.179132e+05   1.096496e+05   0.000000e+00   0.000000e+00   0.000000e+00   1.177889e+06   0.000000e+00   0.000000e+00   0.000000e+00
     2984000   2.983999e-05   3.491826e+01   6.480413e+00   1.520284e+01   1.166832e+06  -1.179132e+05   1.096496e+05   0.000000e+00   0.000000e+00   0.000000e+00   1.177889e+06   0.000000e+00   0.000000e+00   0.000000e+00
     2992000   2.991999e-05   3.501161e+01   6.470980e+00   1.521161e+01   1.166832e+06  -1.179132e+05   1.096496e+05   0.000000e+00   0.000000e+00   0.000000e+00   1.177889e+06   0.000000e+00   0.000000e+00   0.000000e+00
     3000000   2.999999e-05   3.510495e+01   6.461547e+00   1.522039e+01   1.166832e+06  -1.179132e+05   1.096496e+05   0.000000e+00   0.000000e+00   0.000000e+00   1.177889e+06   0.000000e+00   0.000000e+00   0.000000e+00
     3008000   3.007999e-05   3.519830e+01   6.452114e+00   1.522916e+01   1.166832e+06  -1.179132e+05   1.096496e+05   0.000000e+00   0.000000e+00   0.000000e+00   1.177889e+06   0.000000e+00   0.000000e+00   0.000000e+00
     3016000   3.015999e-05   3.529165e+01   6.442680e+00   1.523793e+01   1.166832e+06  -1.179132e+05   1.096496e+05   0.000000e+00   0.000000e+00   0.000000e+00   1.177889e+06   0.000000e+00   0.000000e+00   0.000000e+00
     3024000   3.023999e-05   3.538499e+01   6.433247e+00   1.524670e+01   1.166832e+06  -1.179132e+05   1.096496e+05   0.000000e+00   0.000000e+00   0.000000e+00   1.177889e+06   0.000000e+00   0.000000e+00   0.000000e+00
     3032000   3.031999e-05   3.547834e+01   6.423814e+00   1.525547e+01   1.166832e+06  -1.179132e+05   1.096496e+05   0.000000e+00   0.000000e+00   0.000000e+00   1.177889e+06   0.000000e+00   0.000000e+00   0.000000e+00
     3040000   3.039999e-05   3.557169e+01   6.414381e+00   1.526425e+01   1.166832e+06  -1.179132e+05   1.096496e+05   0.000000e+00   0.000000e+00   0.000000e+00   1.177889e+06   0.000000e+00   0.000000e+00   0.000000e+00
     3048000   3.047999e-05   3.566503e+01   6.404948e+00   1.527302e+01   1.166832e+06  -1.179132e+05   1.096496e+05   0.000000e+00   0.000000e+00   0.000000e+00   1.177889e+06   0.000000e+00   0.000000e+00   0.000000e+00
     3056000   3.055999e-05   3.575838e+01   6.395515e+00   1.528179e+01   1.166832e+06  -1.179132e+05   1.096496e+05   0.000000e+00   0.000000e+00   0.000000e+00   1.177889e+06   0.000000e+00   0.000000e+00   0.000000e+00
     3064000   3.063999e-05   3.585173e+01   6.386082e+00   1.529056e+01   1.166832e+06  -1.179132e+05   1.096496e+05   0.000000e+00   0.000000e+00   0.000000e+00   1.177889e+06   0.000000e+00   0.000000e+00   0.000000e+00
     3072000   3.071999e-05   3.594507e+01   6.376649e+00   1.529933e+01   1.166832e+06  -1.179132e+05   1.096496e+05   0.000000e+00   0.000000e+00   0.000000e+00   1.177889e+06   0.000000e+00   0.000000e+00   0.000000e+00
     3080000   3.079999e-05   3.603842e+01   6.367216e+00   1.530811e+01   1.166832e+06  -1.179132e+05   1.096496e+05   0.000000e+00   0.000000e+00   0.000000e+00   1.177889e+06   0.000000e+00   0.000000e+00   0.000000e+00
     3088000   3.087999e-05   3.613177e+01   6.357783e+00   1.531688e+01   1.166832e+06  -1.179132e+05   1.096496e+05   0.000000e+00   0.000000e+00   0.000000e+00   1.177889e+06   0.000000e+00   0.000000e+00   0.000000e+00
     3096000   3.095999e-05   3.622511e+01   6.348350e+00   1.532565e+01   1.166832e+06  -1.179132e+05   1.096496e+05   0.000000e+00   0.000000e+00   0.000000e+00   1.177889e+06   0.000000e+00   0.000000e+00   0.000000e+00
     3104000   3.103999e-05   3.631846e+01   6.338917e+00   1.533442e+01   1.166832e+06  -1.179132e+05   1.096496e+05   0.000000e+00   0.000000e+00   0.000000e+00   1.177889e+06   0.000000e+00   0.000000e+00   0.000000e+00
     3112000   3.111999e-05   3.641180e+01   6.329484e+00   1.534319e+01   1.166832e+06  -1.179132e+05   1.096496e+05   0.000000e+00   0.000000e+00   0.000000e+00   1.177889e+06   0.000000e+00   0.000000e+00   0.000000e+00
     3120000   3.119999e-05   3.650515e+01   6.320051e+00   1.535197e+01   1.166832e+06  -1.179132e+05   1.096496e+05   0.000000e+00   0.000000e+00   0.000000e+00   1.177889e+06   0.000000e+00   0.000000e+00   0.000000e+00
     3128000   3.127999e-05   3.659850e+01   6.310618e+00   1.536074e+01   1.166832e+06  -1.179132e+05   1.096496e+05   0.000000e+00   0.000000e+00   0.000000e+00   1.177889e+06   0.000000e+00   0.000000e+00   0.000000e+00
     3136000   3.135999e-05   3.669184e+01   6.301185e+00   1.536951e+01   1.166832e+06  -1.179132e+05   1.096496e+05   0.000000e+00   0.000000e+00   0.000000e+00   1.177889e+06   0.000000e+00   0.000000e+00   0.000000e+00
     3144000   3.143999e-05   3.678519e+01   6.291751e+00   1.537828e+01   1.166832e+06  -1.179132e+05   1.096496e+05   0.000000e+00   0.000000e+00   0.000000e+00   1.177889e+06   0.000000e+00   0.000000e+00   0.000000e+00
     3152000   3.151999e-05   3.687854e+01   6.282318e+00   1.538705e+01   1.166832e+06  -1.179132e+05   1.096496e+05   0.000000e+00   0.000000e+00   0.000000e+00   1.177889e+06   0.000000e+00   0.000000e+00   0.000000e+00
     3160000   3.159999e-05   3.697188e+01   6.272885e+00   1.539583e+01   1.166832e+06  -1.179132e+05   1.096496e+05   0.000000e+00   0.000000e+00   0.000000e+00   1.177889e+06   0.000000e+00   0.000000e+00   0.000000e+00
     3168000   3.167999e-05   3.706523e+01   6.263452e+00   1.540460e+01   1.166832e+06  -1.179132e+05   1.096496e+05   0.000000e+00   0.000000e+00   0.000000e+00   1.177889e+06   0.000000e+00   0.000000e+00   0.000000e+00
     3176000   3.175999e-05   3.715858e+01   6.254019e+00   1.541337e+01   1.166832e+06  -1.179132e+05   1.096496e+05   0.000000e+00   0.000000e+00   0.000000e+00   1.177889e+06   0.000000e+00   0.000000e+00   0.000000e+00
     3184000   3.183999e-05   3.725192e+01   6.244586e+00   1.542214e+01   1.166832e+06  -1.179132e+05   1.096496e+05   0.000000e+00   0.000000e+00   0.000000e+00   1.177889e+06   0.000000e+00   0.000000e+00   0.000000e+00
     3192000   3.191999e-05   3.734527e+01   6.235153e+00   1.543091e+01   1.166832e+06  -1.179132e+05   1.096496e+05   0.000000e+00   0.000000e+00   0.000000e+00   1.177889e+06   0.000000e+00   0.000000e+00   0.000000e+00
     3200000   3.199999e-05   3.743862e+01   6.225720e+00   1.543969e+01   1.166832e+06  -1.179132e+05   1.096496e+05   0.000000e+00   0.000000e+00   0.000000e+00   1.177889e+06   0.000000e+00   0.000000e+00   0.000000e+00
     3208000   3.207999e-05   3.753196e+01   6.216287e+00   1.544846e+01   1.166832e+06  -1.179132e+05   1.096496e+05   0.000000e+00   0.000000e+00   0.000000e+00   1.177889e+06   0.000000e+00   0.000000e+00   0.000000e+00
     3216000   3.215999e-05   3.762531e+01   6.206854e+00   1.545723e+01   1.166832e+06  -1.179132e+05   1.096496e+05   0.000000e+00   0.000000e+00   0.000000e+00   1.177889e+06   0.000000e+00   0.000000e+00   0.000000e+00
     3224000   3.223999e-05   3.771866e+01   6.197421e+00   1.546600e+01   1.166832e+06  -1.179132e+05   1.096496e+05   0.000000e+00   0.000000e+00   0.000000e+00   1.177889e+06   0.000000e+00   0.000000e+00   0.000000e+00
     3232000   3.231999e-05   3.781200e+01   6.187988e+00   1.547477e+01   1.166832e+06  -1.179132e+05   1.096496e+05   0.000000e+00   0.000000e+00   0.000000e+00   1.177889e+06   0.000000e+00   0.000000e+00   0.000000e+00
     3240000   3.239999e-05   3.790535e+01   6.178555e+00   1.548355e+01   1.166832e+06  -1.179132e+05   1.096496e+05   0.000000e+00   0.000000e+00   0.000000e+00   1.177889e+06   0.000000e+00   0.000000e+00   0.000000e+00
     3248000   3.247999e-05   3.799870e+01   6.169122e+00   1.549232e+01   1.166832e+06  -1.179132e+05   1.096496e+05   0.000000e+00   0.000000e+00   0.000000e+00   1.177889e+06   0.000000e+00   0.000000e+00   0.000000e+00
     3256000   3.255999e-05   3.809204e+01   6.159689e+00   1.550109e+01   1.166832e+06  -1.179132e+05   1.096496e+05   0.000000e+00   0.000000e+00   0.000000e+00   1.177889e+06   0.000000e+00   0.000000e+00   0.000000e+00
     3264000   3.263999e-05   3.818539e+01   6.150256e+00   1.550986e+01   1.166832e+06  -1.179132e+05   1.096496e+05   0.000000e+00   0.000000e+00   0.000000e+00   1.177889e+06   0.000000e+00   0.000000e+00   0.000000e+00
     3272000   3.271999e-05   3.827874e+01   6.140823e+00   1.551863e+01   1.166832e+06  -1.179132e+05   1.096496e+05   0.000000e+00   0.000000e+00   0.000000e+00   1.177889e+06   0.000000e+00   0.000000e+00   0.000000e+00
     3280000   3.279999e-05   3.837208e+01   6.131389e+00   1.552741e+01   1.166832e+06  -1.179132e+05   1.096496e+05   0.000000e+00   0.000000e+00   0.000000e+00   1.177889e+06   0.000000e+00   0.000000e+00   0.000000e+00
     3288000   3.287999e-05   3.846543e+01   6.121956e+00   1.553618e+01   1.166832e+06  -1.179132e+05   1.096496e+05   0.000000e+00   0.000000e+00   0.000000e+00   1.177889e+06   0.000000e+00   0.000000e+00   0.000000e+00
     3296000   3.295999e-05   3.855878e+01   6.112523e+00   1.554495e+01   1.166832e+06  -1.179132e+05   1.096496e+05   0.000000e+00   0.000000e+00   0.000000e+00   1.177889e+06   0.000000e+00   0.000000e+00   0.000000e+00
     3304000   3.303999e-05   3.865212e+01   6.103090e+00   1.555372e+01   1.166832e+06  -1.179132e+05   1.096496e+05   0.000000e+00   0.000000e+00   0.000000e+00   1.177889e+06   0.000000e+00   0.000000e+00   0.000000e+00
     3312000   3.311999e-05   3.874547e+01   6.093657e+00   1.556249e+01   1.166832e+06  -1.179132e+05   1.096496e+05   0.000000e+00   0.000000e+00   0.000000e+00   1.177889e+06   0.000000e+00   0.000000e+00   0.000000e+00
     3320000   3.319999e-05   3.883881e+01   6.084224e+00   1.557127e+01   1.166832e+06  -1.179132e+05   1.096496e+05   0.000000e+00   0.000000e+00   0.000000e+00   1.177889e+06   0.000000e+00   0.000000e+00   0.000000e+00
     3328000   3.327999e-05   3.893216e+01   6.074791e+00   1.558004e+01   1.166832e+06  -1.179132e+05   1.096496e+05   0.000000e+00   0.000000e+00   0.000000e+00   1.177889e+06   0.000000e+00   0.000000e+00   0.000000e+00
     3336000   3.335999e-05   3.902551e+01   6.065358e+00   1.558881e+01   1.166832e+06  -1.179132e+05   1.096496e+05   0.000000e+00   0.000000e+00   0.000000e+00   1.177889e+06   0.000000e+00   0.000000e+00   0.000000e+00
     3344000   3.343999e-05   3.911885e+01   6.055925e+00   1.559758e+01   1.166832e+06  -1.179132e+05   1.096496e+05   0.000000e+00   0.000000e+00   0.000000e+00   1.177889e+06   0.000000e+00   0.000000e+00   0.000000e+00
     3352000   3.351999e-05   3.921220e+01   6.046492e+00   1.560635e+01   1.166832e+06  -1.179132e+05   1.096496e+05   0.000000e+00   0.000000e+00   0.000000e+00   1.177889e+06   0.000000e+00   0.000000e+00   0.000000e+00
     3360000   3.359999e-05   3.930555e+01   6.037059e+00   1.561513e+01   1.166832e+06  -1.179132e+05   1.096496e+05   0.000000e+00   0.000000e+00   0.000000e+00   1.177889e+06   0.000000e+00   0.000000e+00   0.000000e+00
     3368000   3.367999e-05   3.939889e+01   6.027626e+00   1.562390e+01   1.166832e+06  -1.179132e+05   1.096496e+05   0.000000e+00   0.000000e+00   0.000000e+00   1.177889e+06   0.000000e+00   0.000000e+00   0.000000e+00
     3376000   3.375999e-05   3.949224e+01   6.018193e+00   1.563267e+01   1.166832e+06  -1.179132e+05   1.096496e+05   0.000000e+00   0.000000e+00   0.000000e+00   1.177889e+06   0.000000e+00   0.000000e+00   0.000000e+00
     3384000   3.383999e-05   3.958559e+01   6.008760e+00   1.564144e+01   1.166832e+06  -1.179132e+05   1.096496e+05   0.000000e+00   0.000000e+00   0.000000e+00   1.177889e+06   0.000000e+00   0.000000e+00   0.000000e+00
     3392000   3.391999e-05   3.967893e+01   5.999327e+00   1.565021e+01   1.166832e+06  -1.179132e+05   1.096496e+05   0.000000e+00   0.000000e+00   0.000000e+00   1.177889e+06   0.000000e+00   0.000000e+00   0.000000e+00
     3400000   3.399999e-05   3.977228e+01   5.989894e+00   1.565899e+01   1.166832e+06  -1.179132e+05   1.096496e+05   0.000000e+00   0.000000e+00   0.000000e+00   1.177889e+06   0.000000e+00   0.000000e+00   0.000000e+00
     3408000   3.407999e-05   3.986563e+01   5.980461e+00   1.566776e+01   1.166832e+06  -1.179132e+05   1.096496e+05   0.000000e+00   0.000000e+00   0.000000e+00   1.177889e+06   0.000000e+00   0.000000e+00   0.000000e+00
     3416000   3.415999e-05   3.995897e+01   5.971027e+00   1.567653e+01   1.166832e+06  -1.179132e+05   1.096496e+05   0.000000e+00   0.000000e+00   0.000000e+00   1.177889e+06   0.000000e+00   0.000000e+00   0.000000e+00
     3424000   3.423999e-05   4.005232e+01   5.961594e+00   1.568530e+01   1.166832e+06  -1.179132e+05   1.096496e+05   0.000000e+00   0.000000e+00   0.000000e+00   1.177889e+06   0.000000e+00   0.000000e+00   0.000000e+00
     3432000   3.431999e-05   4.014567e+01   5.952161e+00   1.569407e+01   1.166832e+06  -1.179132e+05   1.096496e+05   0.000000e+00   0.000000e+00   0.000000e+00   1.177889e+06   0.000000e+00   0.000000e+00   0.000000e+00
     3440000   3.439999e-05   4.023901e+01   5.942728e+00   1.570284e+01   1.166832e+06  -1.179132e+05   1.096496e+05   0.000000e+00   0.000000e+00   0.000000e+00   1.177889e+06   0.000000e+00   0.000000e+00   0.000000e+00
     3448000   3.447999e-05   4.033236e+01   5.933295e+00   1.571162e+01   1.166832e+06  -1.179132e+05   1.096496e+05   0.000000e+00   0.000000e+00   0.000000e+00   1.177889e+06   0.000000e+00   0.000000e+00   0.000000e+00
     3456000   3.455999e-05   4.042571e+01   5.923862e+00   1.572039e+01   1.166832e+06  -1.179132e+05   1.096496e+05   0.000000e+00   0.000000e+00   0.000000e+00   1.177889e+06   0.000000e+00   0.000000e+00   0.000000e+00
     3464000   3.463999e-05   4.051905e+01   5.914429e+00   1.572916e+01   1.166832e+06  -1.179132e+05   1.096496e+05   0.000000e+00   0.000000e+00   0.000000e+00   1.177889e+06   0.000000e+00   0.000000e+00   0.000000e+00
     3472000   3.471999e-05   4.061240e+01   5.904996e+00   1.573793e+01   1.166832e+06  -1.179132e+05   1.096496e+05   0.000000e+00   0.000000e+00   0.000000e+00   1.177889e+06   0.000000e+00   0.000000e+00   0.000000e+00
     3480000   3.479999e-05   4.070575e+01   5.895563e+00   1.574670e+01   1.166832e+06  -1.179132e+05   1.096496e+05   0.000000e+00   0.000000e+00   0.000000e+00   1.177889e+06   0.000000e+00   0.000000e+00   0.000000e+00
     3488000   3.487999e-05   4.079909e+01   5.886130e+00   1.575548e+01   1.166832e+06  -1.179132e+05   1.096496e+05   0.000000e+00   0.000000e+00   0.000000e+00   1.177889e+06   0.000000e+00   0.000000e+00   0.000000e+00
     3496000   3.495999e-05   4.089244e+01   5.876697e+00   1.576425e+01   1.166832e+06  -1.179132e+05   1.096496e+05   0.000000e+00   0.000000e+00   0.000000e+00   1.177889e+06   0.000000e+00   0.000000e+00   0.000000e+00
     3504000   3.503999e-05   4.098579e+01   5.867264e+00   1.577302e+01   1.166832e+06  -1.179132e+05   1.096496e+05   0.000000e+00   0.000000e+00   0.000000e+00   1.177889e+06   0.000000e+00   0.000000e+00   0.000000e+00
     3512000   3.511999e-05   4.107913e+01   5.857831e+00   1.578179e+01   1.166832e+06  -1.179132e+05   1.096496e+05   0.000000e+00   0.000000e+00   0.000000e+00   1.177889e+06   0.000000e+00   0.000000e+00   0.000000e+00
     3520000   3.519999e-05   4.117248e+01   5.848398e+00   1.579056e+01   1.166832e+06  -1.179132e+05   1.096496e+05   0.000000e+00   0.000000e+00   0.000000e+00   1.177889e+06   0.000000e+00   0.000000e+00   0.000000e+00
     3528000   3.527999e-05   4.126582e+01   5.838965e+00   1.579934e+01   1.166832e+06  -1.179132e+05   1.096496e+05   0.000000e+00   0.000000e+00   0.000000e+00   1.177889e+06   0.000000e+00   0.000000e+00   0.000000e+00
     3536000   3.535999e-05   4.135917e+01   5.829532e+00   1.580811e+01   1.166832e+06  -1.179132e+05   1.096496e+05   0.000000e+00   0.000000e+00   0.000000e+00   1.177889e+06   0.000000e+00   0.000000e+00   0.000000e+00
     3544000   3.543999e-05   4.145252e+01   5.820099e+00   1.581688e+01   1.166832e+06  -1.179132e+05   1.096496e+05   0.000000e+00   0.000000e+00   0.000000e+00   1.177889e+06   0.000000e+00   0.000000e+00   0.000000e+00
     3552000   3.551999e-05   4.154586e+01   5.810665e+00   1.582565e+01   1.166832e+06  -1.179132e+05   1.096496e+05   0.000000e+00   0.000000e+00   0.000000e+00   1.177889e+06   0.000000e+00   0.000000e+00   0.000000e+00
     3560000   3.559999e-05   4.163921e+01   5.801232e+00   1.583442e+01   1.166832e+06  -1.179132e+05   1.096496e+05   0.000000e+00   0.000000e+00   0.000000e+00   1.177889e+06   0.000000e+00   0.000000e+00   0.000000e+00
     3568000   3.567999e-05   4.173256e+01   5.791799e+00   1.584320e+01   1.166832e+06  -1.179132e+05   1.096496e+05   0.000000e+00   0.000000e+00   0.000000e+00   1.177889e+06   0.000000e+00   0.000000e+00   0.000000e+00
     3576000   3.575999e-05   4.182590e+01   5.782366e+00   1.585197e+01   1.166832e+06  -1.179132e+05   1.096496e+05   0.000000e+00   0.000000e+00   0.000000e+00   1.177889e+06   0.000000e+00   0.000000e+00   0.000000e+00
     3584000   3.583999e-05   4.191925e+01   5.772933e+00   1.586074e+01   1.166832e+06  -1.179132e+05   1.096496e+05   0.000000e+00   0.000000e+00   0.000000e+00   1.177889e+06   0.000000e+00   0.000000e+00   0.000000e+00
     3592000   3.591999e-05   4.201260e+01   5.763500e+00   1.586951e+01   1.166832e+06  -1.179132e+05   1.096496e+05   0.000000e+00   0.000000e+00   0.000000e+00   1.177889e+06   0.000000e+00   0.000000e+00   0.000000e+00
     3600000   3.599999e-05   4.210594e+01   5.754067e+00   1.587828e+01   1.166832e+06  -1.179132e+05   1.096496e+05   0.000000e+00   0.000000e+00   0.000000e+00   1.177889e+06   0.000000e+00   0.000000e+00   0.000000e+00
     3608000   3.607999e-05   4.219929e+01   5.744634e+00   1.588706e+01   1.166832e+06  -1.179132e+05   1.096496e+05   0.000000e+00   0.000000e+00   0.000000e+00   1.177889e+06   0.000000e+00   0.000000e+00   0.000000e+00
     3616000   3.615999e-05   4.229264e+01   5.735201e+00   1.589583e+01   1.166832e+06  -1.179132e+05   1.096496e+05   0.000000e+00   0.000000e+00   0.000000e+00   1.177889e+06   0.000000e+00   0.000000e+00   0.000000e+00
     3624000   3.623999e-05   4.238598e+01   5.725768e+00   1.590460e+01   1.166832e+06  -1.179132e+05   1.096496e+05   0.000000e+00   0.000000e+00   0.000000e+00   1.177889e+06   0.000000e+00   0.000000e+00   0.000000e+00
     3632000   3.631999e-05   4.247933e+01   5.716335e+00   1.591337e+01   1.166832e+06  -1.179132e+05   1.096496e+05   0.000000e+00   0.000000e+00   0.000000e+00   1.177889e+06   0.000000e+00   0.000000e+00   0.000000e+00
     3640000   3.639999e-05   4.257268e+01   5.706902e+00   1.592214e+01   1.166832e+06  -1.179132e+05   1.096496e+05   0.000000e+00   0.000000e+00   0.000000e+00   1.177889e+06   0.000000e+00   0.000000e+00   0.000000e+00
     3648000   3.647999e-05   4.266602e+01   5.697469e+00   1.593092e+01   1.166832e+06  -1.179132e+05   1.096496e+05   0.000000e+00   0.000000e+00   0.000000e+00   1.177889e+06   0.000000e+00   0.000000e+00   0.000000e+00
     3656000   3.655999e-05   4.275937e+01   5.688036e+00   1.593969e+01   1.166832e+06  -1.179132e+05   1.096496e+05   0.000000e+00   0.000000e+00   0.000000e+00   1.177889e+06   0.000000e+00   0.000000e+00   0.000000e+00
     3664000   3.663999e-05   4.285272e+01   5.678603e+00   1.594846e+01   1.166832e+06  -1.179132e+05   1.096496e+05   0.000000e+00   0.000000e+00   0.000000e+00   1.177889e+06   0.000000e+00   0.000000e+00   0.000000e+00
     3672000   3.671999e-05   4.294606e+01   5.669170e+00   1.595723e+01   1.166832e+06  -1.179132e+05   1.096496e+05   0.000000e+00   0.000000e+00   0.000000e+00   1.177889e+06   0.000000e+00   0.000000e+00   0.000000e+00
     3680000   3.679999e-05   4.303941e+01   5.659736e+00   1.596600e+01   1.166832e+06  -1.179132e+05   1.096496e+05   0.000000e+00   0.000000e+00   0.000000e+00   1.177889e+06   0.000000e+00   0.000000e+00   0.000000e+00
     3688000   3.687999e-05   4.313276e+01   5.650303e+00   1.597478e+01   1.166832e+06  -1.179132e+05   1.096496e+05   0.000000e+00   0.000000e+00   0.000000e+00   1.177889e+06   0.000000e+00   0.000000e+00   0.000000e+00
     3696000   3.695999e-05   4.322610e+01   5.640870e+00   1.598355e+01   1.166832e+06  -1.179132e+05   1.096496e+05   0.000000e+00   0.000000e+00   0.000000e+00   1.177889e+06   0.000000e+00   0.000000e+00   0.000000e+00
     3704000   3.703999e-05   4.331945e+01   5.631437e+00   1.599232e+01   1.166832e+06  -1.179132e+05   1.096496e+05   0.000000e+00   0.000000e+00   0.000000e+00   1.177889e+06   0.000000e+00   0.000000e+00   0.000000e+00
     3712000   3.711999e-05   4.341280e+01   5.622004e+00   1.600109e+01   1.166832e+06  -1.179132e+05   1.096496e+05   0.000000e+00   0.000000e+00   0.000000e+00   1.177889e+06   0.000000e+00   0.000000e+00   0.000000e+00
     3720000   3.719999e-05   4.350614e+01   5.612571e+00   1.600986e+01   1.166832e+06  -1.179132e+05   1.096496e+05   0.000000e+00   0.000000e+00   0.000000e+00   1.177889e+06   0.000000e+00   0.000000e+00   0.000000e+00
     3728000   3.727999e-05   4.359949e+01   5.603138e+00   1.601864e+01   1.166832e+06  -1.179132e+05   1.096496e+05   0.000000e+00   0.000000e+00   0.000000e+00   1.177889e+06   0.000000e+00   0.000000e+00   0.000000e+00
     3736000   3.735999e-05   4.369283e+01   5.593705e+00   1.602741e+01   1.166832e+06  -1.179132e+05   1.096496e+05   0.000000e+00   0.000000e+00   0.000000e+00   1.177889e+06   0.000000e+00   0.000000e+00   0.000000e+00
     3744000   3.743999e-05   4.378618e+01   5.584272e+00   1.603618e+01   1.166832e+06  -1.179132e+05   1.096496e+05   0.000000e+00   0.000000e+00   0.000000e+00   1.177889e+06   0.000000e+00   0.000000e+00   0.000000e+00
     3752000   3.751999e-05   4.387953e+01   5.574839e+00   1.604495e+01   1.166832e+06  -1.179132e+05   1.096496e+05   0.000000e+00   0.000000e+00   0.000000e+00   1.177889e+06   0.000000e+00   0.000000e+00   0.000000e+00
     3760000   3.759999e-05   4.397287e+01   5.565406e+00   1.605372e+01   1.166832e+06  -1.179132e+05   1.096496e+05   0.000000e+00   0.000000e+00   0.000000e+00   1.177889e+06   0.000000e+00   0.000000e+00   0.000000e+00
     3768000   3.767999e-05   4.406622e+01   5.555973e+00   1.606250e+01   1.166832e+06  -1.179132e+05   1.096496e+05   0.000000e+00   0.000000e+00   0.000000e+00   1.177889e+06   0.000000e+00   0.000000e+00   0.000000e+00
     3776000   3.775999e-05   4.415957e+01   5.546540e+00   1.607127e+01   1.166832e+06  -1.179132e+05   1.096496e+05   0.000000e+00   0.000000e+00   0.000000e+00   1.177889e+06   0.000000e+00   0.000000e+00   0.000000e+00
     3784000   3.783999e-05   4.425291e+01   5.537107e+00   1.608004e+01   1.166832e+06  -1.179132e+05   1.096496e+05   0.000000e+00   0.000000e+00   0.000000e+00   1.177889e+06   0.000000e+00   0.000000e+00   0.000000e+00
     3792000   3.791999e-05   4.434626e+01   5.527674e+00   1.608881e+01   1.166832e+06  -1.179132e+05   1.096496e+05   0.000000e+00   0.000000e+00   0.000000e+00   1.177889e+06   0.000000e+00   0.000000e+00   0.000000e+00
     3800000   3.799999e-05   4.443961e+01   5.518241e+00   1.609758e+01   1.166832e+06  -1.179132e+05   1.096496e+05   0.000000e+00   0.000000e+00   0.000000e+00   1.177889e+06   0.000000e+00   0.000000e+00   0.000000e+00
     3808000   3.807999e-05   4.453295e+01   5.508808e+00   1.610636e+01   1.166832e+06  -1.179132e+05   1.096496e+05   0.000000e+00   0.000000e+00   0.000000e+00   1.177889e+06   0.000000e+00   0.000000e+00   0.000000e+00
     3816000   3.815999e-05   4.462630e+01   5.499374e+00   1.611513e+01   1.166832e+06  -1.179132e+05   1.096496e+05   0.000000e+00   0.000000e+00   0.000000e+00   1.177889e+06   0.000000e+00   0.000000e+00   0.000000e+00
     3824000   3.823999e-05   4.471965e+01   5.489941e+00   1.612390e+01   1.166832e+06  -1.179132e+05   1.096496e+05   0.000000e+00   0.000000e+00   0.000000e+00   1.177889e+06   0.000000e+00   0.000000e+00   0.000000e+00
     3832000   3.831999e-05   4.481299e+01   5.480508e+00   1.613267e+01   1.166832e+06  -1.179132e+05   1.096496e+05   0.000000e+00   0.000000e+00   0.000000e+00   1.177889e+06   0.000000e+00   0.000000e+00   0.000000e+00
     3840000   3.839999e-05   4.490634e+01   5.471075e+00   1.614144e+01   1.166832e+06  -1.179132e+05   1.096496e+05   0.000000e+00   0.000000e+00   0.000000e+00   1.177889e+06   0.000000e+00   0.000000e+00   0.000000e+00
     3848000   3.847999e-05   4.499969e+01   5.461642e+00   1.615022e+01   1.166832e+06  -1.179132e+05   1.096496e+05   0.000000e+00   0.000000e+00   0.000000e+00   1.177889e+06   0.000000e+00   0.000000e+00   0.000000e+00
     3856000   3.855999e-05   4.509303e+01   5.452209e+00   1.615899e+01   1.166832e+06  -1.179132e+05   1.096496e+05   0.000000e+00   0.000000e+00   0.000000e+00   1.177889e+06   0.000000e+00   0.000000e+00   0.000000e+00
     3864000   3.863999e-05   4.518638e+01   5.442776e+00   1.616776e+01   1.166832e+06  -1.179132e+05   1.096496e+05   0.000000e+00   0.000000e+00   0.000000e+00   1.177889e+06   0.000000e+00   0.000000e+00   0.000000e+00
     3872000   3.871999e-05   4.527973e+01   5.433343e+00   1.617653e+01   1.166832e+06  -1.179132e+05   1.096496e+05   0.000000e+00   0.000000e+00   0.000000e+00   1.177889e+06   0.000000e+00   0.000000e+00   0.000000e+00
     3880000   3.879999e-05   4.537307e+01   5.423910e+00   1.618530e+01   1.166832e+06  -1.179132e+05   1.096496e+05   0.000000e+00   0.000000e+00   0.000000e+00   1.177889e+06   0.000000e+00   0.000000e+00   0.000000e+00
     3888000   3.887999e-05   4.546642e+01   5.414477e+00   1.619408e+01   1.166832e+06  -1.179132e+05   1.096496e+05   0.000000e+00   0.000000e+00   0.000000e+00   1.177889e+06   0.000000e+00   0.000000e+00   0.000000e+00
     3896000   3.895999e-05   4.555977e+01   5.405044e+00   1.620285e+01   1.166832e+06  -1.179132e+05   1.096496e+05   0.000000e+00   0.000000e+00   0.000000e+00   1.177889e+06   0.000000e+00   0.000000e+00   0.000000e+00
     3904000   3.903999e-05   4.565311e+01   5.395611e+00   1.621162e+01   1.166832e+06  -1.179132e+05   1.096496e+05   0.000000e+00   0.000000e+00   0.000000e+00   1.177889e+06   0.000000e+00   0.000000e+00   0.000000e+00
     3912000   3.911999e-05   4.574646e+01   5.386178e+00   1.622039e+01   1.166832e+06  -1.179132e+05   1.096496e+05   0.000000e+00   0.000000e+00   0.000000e+00   1.177889e+06   0.000000e+00   0.000000e+00   0.000000e+00
     3920000   3.919999e-05   4.583981e+01   5.376745e+00   1.622916e+01   1.166832e+06  -1.179132e+05   1.096496e+05   0.000000e+00   0.000000e+00   0.000000e+00   1.177889e+06   0.000000e+00   0.000000e+00   0.000000e+00
     3928000   3.927999e-05   4.593315e+01   5.367312e+00   1.623793e+01   1.166832e+06  -1.179132e+05   1.096496e+05   0.000000e+00   0.000000e+00   0.000000e+00   1.177889e+06   0.000000e+00   0.000000e+00   0.000000e+00
     3936000   3.935999e-05   4.602650e+01   5.357879e+00   1.624671e+01   1.166832e+06  -1.179132e+05   1.096496e+05   0.000000e+00   0.000000e+00   0.000000e+00   1.177889e+06   0.000000e+00   0.000000e+00   0.000000e+00
     3944000   3.943999e-05   4.611985e+01   5.348446e+00   1.625548e+01   1.166832e+06  -1.179132e+05   1.096496e+05   0.000000e+00   0.000000e+00   0.000000e+00   1.177889e+06   0.000000e+00   0.000000e+00   0.000000e+00
     3952000   3.951999e-05   4.621319e+01   5.339012e+00   1.626425e+01   1.166832e+06  -1.179132e+05   1.096496e+05   0.000000e+00   0.000000e+00   0.000000e+00   1.177889e+06   0.000000e+00   0.000000e+00   0.000000e+00
     3960000   3.959999e-05   4.630654e+01   5.329579e+00   1.627302e+01   1.166832e+06  -1.179132e+05   1.096496e+05   0.000000e+00   0.000000e+00   0.000000e+00   1.177889e+06   0.000000e+00   0.000000e+00   0.000000e+00
     3968000   3.967999e-05   4.639988e+01   5.320146e+00   1.628179e+01   1.166832e+06  -1.179132e+05   1.096496e+05   0.000000e+00   0.000000e+00   0.000000e+00   1.177889e+06   0.000000e+00   0.000000e+00   0.000000e+00
     3976000   3.975999e-05   4.649323e+01   5.310713e+00   1.629057e+01   1.166832e+06  -1.179132e+05   1.096496e+05   0.000000e+00   0.000000e+00   0.000000e+00   1.177889e+06   0.000000e+00   0.000000e+00   0.000000e+00
     3984000   3.983999e-05   4.658658e+01   5.301280e+00   1.629934e+01   1.166832e+06  -1.179132e+05   1.096496e+05   0.000000e+00   0.000000e+00   0.000000e+00   1.177889e+06   0.000000e+00   0.000000e+00   0.000000e+00
     3992000   3.991999e-05   4.667992e+01   5.291847e+00   1.630811e+01   1.166832e+06  -1.179132e+05   1.096496e+05   0.000000e+00   0.000000e+00   0.000000e+00   1.177889e+06   0.000000e+00   0.000000e+00   0.000000e+00
     4000000   3.999999e-05   4.677327e+01   5.282414e+00   1.631688e+01   1.166832e+06  -1.179132e+05   1.096496e+05   0.000000e+00   0.000000e+00   0.000000e+00   1.177889e+06   0.000000e+00   0.000000e+00   0.000000e+00
     4008000   4.007999e-05   4.686662e+01   5.272981e+00   1.632565e+01   1.166832e+06  -1.179132e+05   1.096496e+05   0.000000e+00   0.000000e+00   0.000000e+00   1.177889e+06   0.000000e+00   0.000000e+00   0.000000e+00
     4016000   4.015999e-05   4.695996e+01   5.263548e+00   1.633443e+01   1.166832e+06  -1.179132e+05   1.096496e+05   0.000000e+00   0.000000e+00   0.000000e+00   1.177889e+06   0.000000e+00   0.000000e+00   0.000000e+00
     4024000   4.023999e-05   4.705331e+01   5.254115e+00   1.634320e+01   1.166832e+06  -1.179132e+05   1.096496e+05   0.000000e+00   0.000000e+00   0.000000e+00   1.177889e+06   0.000000e+00   0.000000e+00   0.000000e+00
     4032000   4.031999e-05   4.714666e+01   5.244682e+00   1.635197e+01   1.166832e+06  -1.179132e+05   1.096496e+05   0.000000e+00   0.000000e+00   0.000000e+00   1.177889e+06   0.000000e+00   0.000000e+00   0.000000e+00
     4040000   4.039999e-05   4.724000e+01   5.235249e+00   1.636074e+01   1.166832e+06  -1.179132e+05   1.096496e+05   0.000000e+00   0.000000e+00   0.000000e+00   1.177889e+06   0.000000e+00   0.000000e+00   0.000000e+00
     4048000   4.047999e-05   4.733335e+01   5.225816e+00   1.636951e+01   1.166832e+06  -1.179132e+05   1.096496e+05   0.000000e+00   0.000000e+00   0.000000e+00   1.177889e+06   0.000000e+00   0.000000e+00   0.000000e+00
     4056000   4.055999e-05   4.742670e+01   5.216383e+00   1.637829e+01   1.166832e+06  -1.179132e+05   1.096496e+05   0.000000e+00   0.000000e+00   0.000000e+00   1.177889e+06   0.000000e+00   0.000000e+00   0.000000e+00
     4064000   4.063999e-05   4.752004e+01   5.206950e+00   1.638706e+01   1.166832e+06  -1.179132e+05   1.096496e+05   0.000000e+00   0.000000e+00   0.000000e+00   1.177889e+06   0.000000e+00   0.000000e+00   0.000000e+00
     4072000   4.071999e-05   4.761339e+01   5.197517e+00   1.639583e+01   1.166832e+06  -1.179132e+05   1.096496e+05   0.000000e+00   0.000000e+00   0.000000e+00   1.177889e+06   0.000000e+00   0.000000e+00   0.000000e+00
     4080000   4.079999e-05   4.770674e+01   5.188083e+00   1.640460e+01   1.166832e+06  -1.179132e+05   1.096496e+05   0.000000e+00   0.000000e+00   0.000000e+00   1.177889e+06   0.000000e+00   0.000000e+00   0.000000e+00
     4088000   4.087999e-05   4.780008e+01   5.178650e+00   1.641337e+01   1.166832e+06  -1.179132e+05   1.096496e+05   0.000000e+00   0.000000e+00   0.000000e+00   1.177889e+06   0.000000e+00   0.000000e+00   0.000000e+00
     4096000   4.095999e-05   4.789343e+01   5.169217e+00   1.642215e+01   1.166832e+06  -1.179132e+05   1.096496e+05   0.000000e+00   0.000000e+00   0.000000e+00   1.177889e+06   0.000000e+00   0.000000e+00   0.000000e+00
     4104000   4.103999e-05   4.798678e+01   5.159784e+00   1.643092e+01   1.166832e+06  -1.179132e+05   1.096496e+05   0.000000e+00   0.000000e+00   0.000000e+00   1.177889e+06   0.000000e+00   0.000000e+00   0.000000e+00
     4112000   4.111999e-05   4.808012e+01   5.150351e+00   1.643969e+01   1.166832e+06  -1.179132e+05   1.096496e+05   0.000000e+00   0.000000e+00   0.000000e+00   1.177889e+06   0.000000e+00   0.000000e+00   0.000000e+00
     4120000   4.119999e-05   4.817347e+01   5.140918e+00   1.644846e+01   1.166832e+06  -1.179132e+05   1.096496e+05   0.000000e+00   0.000000e+00   0.000000e+00   1.177889e+06   0.000000e+00   0.000000e+00   0.000000e+00
     4128000   4.127999e-05   4.826682e+01   5.131485e+00   1.645723e+01   1.166832e+06  -1.179132e+05   1.096496e+05   0.000000e+00   0.000000e+00   0.000000e+00   1.177889e+06   0.000000e+00   0.000000e+00   0.000000e+00
     4136000   4.135999e-05   4.836016e+01   5.122052e+00   1.646601e+01   1.166832e+06  -1.179132e+05   1.096496e+05   0.000000e+00   0.000000e+00   0.000000e+00   1.177889e+06   0.000000e+00   0.000000e+00   0.000000e+00
     4144000   4.143999e-05   4.845351e+01   5.112619e+00   1.647478e+01   1.166832e+06  -1.179132e+05   1.096496e+05   0.000000e+00   0.000000e+00   0.000000e+00   1.177889e+06   0.000000e+00   0.000000e+00   0.000000e+00
     4152000   4.151999e-05   4.854686e+01   5.103186e+00   1.648355e+01   1.166832e+06  -1.179132e+05   1.096496e+05   0.000000e+00   0.000000e+00   0.000000e+00   1.177889e+06   0.000000e+00   0.000000e+00   0.000000e+00
     4160000   4.159999e-05   4.864020e+01   5.093753e+00   1.649232e+01   1.166832e+06  -1.179132e+05   1.096496e+05   0.000000e+00   0.000000e+00   0.000000e+00   1.177889e+06   0.000000e+00   0.000000e+00   0.000000e+00
     4168000   4.167999e-05   4.873355e+01   5.084320e+00   1.650109e+01   1.166832e+06  -1.179132e+05   1.096496e+05   0.000000e+00   0.000000e+00   0.000000e+00   1.177889e+06   0.000000e+00   0.000000e+00   0.000000e+00
     4176000   4.175999e-05   4.882689e+01   5.074887e+00   1.650987e+01   1.166832e+06  -1.179132e+05   1.096496e+05   0.000000e+00   0.000000e+00   0.000000e+00   1.177889e+06   0.000000e+00   0.000000e+00   0.000000e+00
     4184000   4.183999e-05   4.892024e+01   5.065454e+00   1.651864e+01   1.166832e+06  -1.179132e+05   1.096496e+05   0.000000e+00   0.000000e+00   0.000000e+00   1.177889e+06   0.000000e+00   0.000000e+00   0.000000e+00
     4192000   4.191999e-05   4.901359e+01   5.056021e+00   1.652741e+01   1.166832e+06  -1.179132e+05   1.096496e+05   0.000000e+00   0.000000e+00   0.000000e+00   1.177889e+06   0.000000e+00   0.000000e+00   0.000000e+00
     4200000   4.199999e-05   4.910693e+01   5.046588e+00   1.653618e+01   1.166832e+06  -1.179132e+05   1.096496e+05   0.000000e+00   0.000000e+00   0.000000e+00   1.177889e+06   0.000000e+00   0.000000e+00   0.000000e+00
     4208000   4.207999e-05   4.920028e+01   5.037155e+00   1.654495e+01   1.166832e+06  -1.179132e+05   1.096496e+05   0.000000e+00   0.000000e+00   0.000000e+00   1.177889e+06   0.000000e+00   0.000000e+00   0.000000e+00
     4216000   4.215999e-05   4.929363e+01   5.027721e+00   1.655373e+01   1.166832e+06  -1.179132e+05   1.096496e+05   0.000000e+00   0.000000e+00   0.000000e+00   1.177889e+06   0.000000e+00   0.000000e+00   0.000000e+00
     4224000   4.223999e-05   4.938697e+01   5.018288e+00   1.656250e+01   1.166832e+06  -1.179132e+05   1.096496e+05   0.000000e+00   0.000000e+00   0.000000e+00   1.177889e+06   0.000000e+00   0.000000e+00   0.000000e+00
     4232000   4.231999e-05   4.948032e+01   5.008855e+00   1.657127e+01   1.166832e+06  -1.179132e+05   1.096496e+05   0.000000e+00   0.000000e+00   0.000000e+00   1.177889e+06   0.000000e+00   0.000000e+00   0.000000e+00
     4240000   4.239999e-05   4.957367e+01   4.999422e+00   1.658004e+01   1.166832e+06  -1.179132e+05   1.096496e+05   0.000000e+00   0.000000e+00   0.000000e+00   1.177889e+06   0.000000e+00   0.000000e+00   0.000000e+00
     4248000   4.247999e-05   4.966701e+01   4.989989e+00   1.658881e+01   1.166832e+06  -1.179132e+05   1.096496e+05   0.000000e+00   0.000000e+00   0.000000e+00   1.177889e+06   0.000000e+00   0.000000e+00   0.000000e+00
     4256000   4.255999e-05   4.976036e+01   4.980556e+00   1.659759e+01   1.166832e+06  -1.179132e+05   1.096496e+05   0.000000e+00   0.000000e+00   0.000000e+00   1.177889e+06   0.000000e+00   0.000000e+00   0.000000e+00
     4264000   4.263999e-05   4.985371e+01   4.971123e+00   1.660636e+01   1.166832e+06  -1.179132e+05   1.096496e+05   0.000000e+00   0.000000e+00   0.000000e+00   1.177889e+06   0.000000e+00   0.000000e+00   0.000000e+00
     4272000   4.271999e-05   4.994705e+01   4.961690e+00   1.661513e+01   1.166832e+06  -1.179132e+05   1.096496e+05   0.000000e+00   0.000000e+00   0.000000e+00   1.177889e+06   0.000000e+00   0.000000e+00   0.000000e+00
