     timestep     time              x             y              z              vx             vy             vz             ax             ay             az         v_magnitude      ELoss        Electronic      Nuclear
           0   0.000000e+00   1.000000e-01   1.347686e+01   2.055360e+01   1.897078e+05   2.917470e+05   1.125308e+06   0.000000e+00   0.000000e+00   0.000000e+00   1.177889e+06   0.000000e+00   0.000000e+00   0.000000e+00
        8000   7.999000e-08   1.151765e-01   1.350020e+01   2.064362e+01   1.897052e+05   2.917487e+05   1.125308e+06  -2.639461e+07   1.716270e+07  -5.101830e-15   1.177889e+06   3.311880e-27   0.000000e+00   0.000000e+00
       16000   1.599900e-07   1.303528e-01   1.352354e+01   2.073365e+01   1.897028e+05   2.917503e+05   1.125308e+06  -1.538848e+07   1.000595e+07  -1.055130e-14   1.177889e+06   1.126594e-27   0.000000e+00   0.000000e+00
       24000   2.399900e-07   1.455290e-01   1.354688e+01   2.082367e+01   1.897021e+05   2.917507e+05   1.125308e+06  -2.915790e+07   1.895904e+07   1.400633e-14   1.177889e+06   4.041664e-27   0.000000e+00   0.000000e+00
       32000   3.199900e-07   1.607051e-01   1.357022e+01   2.091369e+01   1.896994e+05   2.917525e+05   1.125308e+06   3.508581e+06  -2.281303e+06   1.905516e-15   1.177889e+06   5.839472e-29   0.000000e+00   0.000000e+00
       40000   3.999900e-07   1.758810e-01   1.359356e+01   2.100372e+01   1.897008e+05   2.917516e+05   1.125308e+06  -3.192122e+07   2.075560e+07  -1.108865e-14   1.177889e+06   4.844091e-27   0.000000e+00   0.000000e+00
       48000   4.799900e-07   1.910571e-01   1.361690e+01   2.109374e+01   1.897006e+05   2.917517e+05   1.125308e+06   2.252746e+07  -1.464764e+07   7.735462e-15   1.177889e+06   2.412140e-27   0.000000e+00   0.000000e+00
       56000   5.599900e-07   2.062331e-01   1.364024e+01   2.118377e+01   1.897000e+05   2.917521e+05   1.125308e+06   1.791434e+06  -1.164807e+06  -7.934690e-16   1.177889e+06   1.524322e-29   0.000000e+00   0.000000e+00
       64000   6.399900e-07   2.214091e-01   1.366358e+01   2.127379e+01   1.896997e+05   2.917523e+05   1.125308e+06  -8.151732e+06   5.300322e+06   1.140618e-15   1.177889e+06   3.158979e-28   0.000000e+00   0.000000e+00
       72000   7.199900e-07   2.365850e-01   1.368692e+01   2.136382e+01   1.896996e+05   2.917523e+05   1.125308e+06   5.174230e+06  -3.364324e+06  -7.754585e-16   1.177889e+06   1.272530e-28   0.000000e+00   0.000000e+00
       80000   7.999900e-07   2.517610e-01   1.371026e+01   2.145384e+01   1.896997e+05   2.917523e+05   1.125308e+06   9.421958e+05  -6.126235e+05  -7.682896e-16   1.177889e+06   4.212481e-30   0.000000e+00   0.000000e+00
       88000   8.799900e-07   2.669370e-01   1.373360e+01   2.154387e+01   1.896997e+05   2.917523e+05   1.125308e+06  -4.609995e+06   2.997457e+06   3.244833e-16   1.177889e+06   1.010133e-28   0.000000e+00   0.000000e+00
       96000   9.599900e-07   2.821130e-01   1.375694e+01   2.163389e+01   1.896995e+05   2.917524e+05   1.125308e+06   4.335136e+06  -2.818736e+06   4.891224e-16   1.177889e+06   8.932029e-29   0.000000e+00   0.000000e+00
      104000   1.039990e-06   2.972889e-01   1.378028e+01   2.172392e+01   1.896998e+05   2.917522e+05   1.125308e+06  -6.207071e+06   4.035891e+06   7.746928e-16   1.177889e+06   1.831437e-28   0.000000e+00   0.000000e+00
      112000   1.119990e-06   3.124649e-01   1.380362e+01   2.181394e+01   1.896997e+05   2.917523e+05   1.125308e+06   6.226391e+00  -4.048450e+00   1.370715e-21   1.177889e+06   1.843944e-40   0.000000e+00   0.000000e+00
      120000   1.199990e-06   3.276409e-01   1.382696e+01   2.190397e+01   1.896997e+05   2.917523e+05   1.125308e+06   2.148422e+00  -1.396921e+00   6.191176e-22   1.177889e+06   2.193682e-41   0.000000e+00   0.000000e+00
      128000   1.279990e-06   3.428169e-01   1.385031e+01   2.199399e+01   1.896997e+05   2.917523e+05   1.125308e+06   6.146562e+00  -3.996544e+00   1.410226e-22   1.177889e+06   1.796099e-40   0.000000e+00   0.000000e+00
      136000   1.359990e-06   3.579929e-01   1.387365e+01   2.208401e+01   1.896997e+05   2.917523e+05   1.125308e+06  -6.598967e+00   4.290702e+00  -8.840996e-22   1.177889e+06   2.069940e-40   0.000000e+00   0.000000e+00
      144000   1.439990e-06   3.731688e-01   1.389699e+01   2.217404e+01   1.896997e+05   2.917523e+05   1.125308e+06   3.148610e+00  -2.047252e+00   2.078339e-21   1.177889e+06   4.712337e-41   0.000000e+00   0.000000e+00
      152000   1.519990e-06   3.883448e-01   1.392033e+01   2.226406e+01   1.896997e+05   2.917523e+05   1.125308e+06   1.131106e+00  -7.354543e-01   2.027264e-22   1.177889e+06   6.088795e-42   0.000000e+00   0.000000e+00
      160000   1.599990e-06   4.035208e-01   1.394367e+01   2.235409e+01   1.896997e+05   2.917523e+05   1.125308e+06   1.912778e+00  -1.243703e+00  -5.383741e-22   1.177889e+06   1.740984e-41   0.000000e+00   0.000000e+00
      168000   1.679990e-06   4.186968e-01   1.396701e+01   2.244411e+01   1.896997e+05   2.917523e+05   1.125308e+06   3.445119e+00  -2.240044e+00   2.210109e-21   1.177889e+06   5.643028e-41   0.000000e+00   0.000000e+00
      176000   1.759990e-06   4.338727e-01   1.399035e+01   2.253414e+01   1.896997e+05   2.917523e+05   1.125308e+06  -5.179958e+00   3.368050e+00   2.545395e-22   1.177889e+06   1.275461e-40   0.000000e+00   0.000000e+00
      184000   1.839990e-06   4.490487e-01   1.401369e+01   2.262416e+01   1.896997e+05   2.917523e+05   1.125308e+06   3.887085e-01  -2.527414e-01   2.621327e-22   1.177889e+06   7.195662e-43   0.000000e+00   0.000000e+00
      192000   1.919990e-06   4.642247e-01   1.403703e+01   2.271419e+01   1.896997e+05   2.917523e+05   1.125308e+06   5.929012e+00  -3.855091e+00  -4.868413e-22   1.177889e+06   1.671108e-40   0.000000e+00   0.000000e+00
      200000   1.999990e-06   4.794007e-01   1.406037e+01   2.280421e+01   1.896997e+05   2.917523e+05   1.125308e+06   1.050540e+00  -6.830697e-01  -8.622970e-23   1.177889e+06   5.250682e-42   0.000000e+00   0.000000e+00
      208000   2.079990e-06   4.945766e-01   1.408371e+01   2.289424e+01   1.896997e+05   2.917523e+05   1.125308e+06  -1.407241e+00   9.149994e-01   1.080606e-21   1.177889e+06   9.412038e-42   0.000000e+00   0.000000e+00
      216000   2.159990e-06   5.097526e-01   1.410705e+01   2.298426e+01   1.896997e+05   2.917523e+05   1.125308e+06  -4.656429e+00   3.027647e+00  -1.139874e-21   1.177889e+06   1.030900e-40   0.000000e+00   0.000000e+00
      224000   2.239990e-06   5.249286e-01   1.413039e+01   2.307429e+01   1.896997e+05   2.917523e+05   1.125308e+06   3.059870e+00  -1.989552e+00  -6.044388e-22   1.177889e+06   4.449194e-41   0.000000e+00   0.000000e+00
      232000   2.319990e-06   5.401046e-01   1.415373e+01   2.316431e+01   1.896997e+05   2.917523e+05   1.125308e+06  -4.710727e-01   3.062953e-01  -1.327618e-22   1.177889e+06   1.054524e-42   0.000000e+00   0.000000e+00
      240000   2.399990e-06   5.552805e-01   1.417707e+01   2.325433e+01   1.896997e+05   2.917523e+05   1.125308e+06   1.136244e+01  -7.387952e+00  -1.094677e-21   1.177889e+06   6.137755e-40   0.000000e+00   0.000000e+00
      248000   2.479990e-06   5.704565e-01   1.420041e+01   2.334436e+01   1.896997e+05   2.917523e+05   1.125308e+06   2.207378e+00  -1.435255e+00   1.385860e-21   1.177889e+06   2.316666e-41   0.000000e+00   0.000000e+00
      256000   2.559990e-06   5.856325e-01   1.422375e+01   2.343438e+01   1.896997e+05   2.917523e+05   1.125308e+06  -8.771243e-01   5.703133e-01  -1.026764e-21   1.177889e+06   3.655115e-42   0.000000e+00   0.000000e+00
      264000   2.639990e-06   6.008085e-01   1.424709e+01   2.352441e+01   1.896997e+05   2.917523e+05   1.125308e+06  -2.315994e+00   1.505878e+00  -2.341803e-22   1.177889e+06   2.549448e-41   0.000000e+00   0.000000e+00
      272000   2.719990e-06   6.159844e-01   1.427043e+01   2.361443e+01   1.896997e+05   2.917523e+05   1.125308e+06  -5.712947e+00   3.714604e+00  -1.157716e-21   1.177889e+06   1.551744e-40   0.000000e+00   0.000000e+00
      280000   2.799990e-06   6.311604e-01   1.429377e+01   2.370446e+01   1.896997e+05   2.917523e+05   1.125308e+06  -7.283191e+00   4.735590e+00  -4.294610e-21   1.177889e+06   2.521897e-40   0.000000e+00   0.000000e+00
      288000   2.879990e-06   6.463364e-01   1.431711e+01   2.379448e+01   1.896997e+05   2.917523e+05   1.125308e+06   2.020043e-01  -1.313448e-01   5.241924e-23   1.177889e+06   1.933792e-43   0.000000e+00   0.000000e+00
      296000   2.959990e-06   6.615124e-01   1.434045e+01   2.388451e+01   1.896997e+05   2.917523e+05   1.125308e+06   4.710882e+00  -3.063054e+00   1.143755e-21   1.177889e+06   1.054957e-40   0.000000e+00   0.000000e+00
      304000   3.039990e-06   6.766883e-01   1.436379e+01   2.397453e+01   1.896997e+05   2.917523e+05   1.125308e+06   7.088172e+00  -4.608787e+00   3.486661e-21   1.177889e+06   2.388712e-40   0.000000e+00   0.000000e+00
      312000   3.119990e-06   6.918643e-01   1.438713e+01   2.406456e+01   1.896997e+05   2.917523e+05   1.125308e+06   1.242651e+01  -8.079814e+00   5.564363e-21   1.177889e+06   7.341658e-40   0.000000e+00   0.000000e+00
      320000   3.199990e-06   7.070403e-01   1.441047e+01   2.415458e+01   1.896997e+05   2.917523e+05   1.125308e+06   1.268273e+00  -8.246414e-01  -6.606025e-22   1.177889e+06   7.648802e-42   0.000000e+00   0.000000e+00
      328000   3.279990e-06   7.222163e-01   1.443381e+01   2.424461e+01   1.896997e+05   2.917523e+05   1.125308e+06  -7.745648e-01   5.036283e-01  -3.130833e-22   1.177889e+06   2.849466e-42   0.000000e+00   0.000000e+00
      336000   3.359990e-06   7.373922e-01   1.445715e+01   2.433463e+01   1.896997e+05   2.917523e+05   1.125308e+06  -2.770297e+00   1.801269e+00  -1.413371e-21   1.177889e+06   3.649007e-41   0.000000e+00   0.000000e+00
      344000   3.439990e-06   7.525682e-01   1.448049e+01   2.442465e+01   1.896997e+05   2.917523e+05   1.125308e+06  -4.437992e+00   2.885618e+00  -3.453553e-22   1.177889e+06   9.363199e-41   0.000000e+00   0.000000e+00
      352000   3.519990e-06   7.677442e-01   1.450383e+01   2.451468e+01   1.896997e+05   2.917523e+05   1.125308e+06   1.499691e+00  -9.751114e-01   1.754219e-21   1.177889e+06   1.069356e-41   0.000000e+00   0.000000e+00
      360000   3.599990e-06   7.829202e-01   1.452717e+01   2.460470e+01   1.896997e+05   2.917523e+05   1.125308e+06   6.190634e+00  -4.025200e+00  -1.728889e-21   1.177889e+06   1.822127e-40   0.000000e+00   0.000000e+00
      368000   3.679990e-06   7.980961e-01   1.455051e+01   2.469473e+01   1.896997e+05   2.917523e+05   1.125308e+06   7.787691e+00  -5.063620e+00   1.940221e-21   1.177889e+06   2.883578e-40   0.000000e+00   0.000000e+00
      376000   3.759990e-06   8.132721e-01   1.457385e+01   2.478475e+01   1.896997e+05   2.917523e+05   1.125308e+06   1.118280e+01  -7.271149e+00  -2.640724e-21   1.177889e+06   5.945352e-40   0.000000e+00   0.000000e+00
      384000   3.839990e-06   8.284481e-01   1.459719e+01   2.487478e+01   1.896997e+05   2.917523e+05   1.125308e+06  -3.542851e+00   2.303590e+00  -5.521952e-22   1.177889e+06   5.965698e-41   0.000000e+00   0.000000e+00
      392000   3.919990e-06   8.436241e-01   1.462053e+01   2.496480e+01   1.896997e+05   2.917523e+05   1.125308e+06   2.071718e+00  -1.347048e+00   9.076125e-22   1.177889e+06   2.042646e-41   0.000000e+00   0.000000e+00
      400000   3.999990e-06   8.588000e-01   1.464387e+01   2.505483e+01   1.896997e+05   2.917523e+05   1.125308e+06   5.109088e+00  -3.321970e+00   2.041028e-21   1.177889e+06   1.240746e-40   0.000000e+00   0.000000e+00
      408000   4.079990e-06   8.739760e-01   1.466721e+01   2.514485e+01   1.896997e+05   2.917523e+05   1.125308e+06   1.911933e+00  -1.243154e+00   1.610528e-21   1.177889e+06   1.739844e-41   0.000000e+00   0.000000e+00
      416000   4.159990e-06   8.891520e-01   1.469055e+01   2.523488e+01   1.896997e+05   2.917523e+05   1.125308e+06   3.377547e+00  -2.196108e+00   1.784944e-21   1.177889e+06   5.421593e-41   0.000000e+00   0.000000e+00
      424000   4.239990e-06   9.043280e-01   1.471389e+01   2.532490e+01   1.896997e+05   2.917523e+05   1.125308e+06  -2.439188e+00   1.585979e+00  -3.180940e-22   1.177889e+06   2.832233e-41   0.000000e+00   0.000000e+00
      432000   4.319990e-06   9.195039e-01   1.473723e+01   2.541493e+01   1.896997e+05   2.917523e+05   1.125308e+06   9.723355e-02  -6.322204e-02   1.469251e-23   1.177889e+06   4.556372e-44   0.000000e+00   0.000000e+00
      440000   4.399990e-06   9.346799e-01   1.476057e+01   2.550495e+01   1.896997e+05   2.917523e+05   1.125308e+06   6.900201e+00  -4.486566e+00   4.371605e-21   1.177889e+06   2.262988e-40   0.000000e+00   0.000000e+00
      448000   4.479990e-06   9.498559e-01   1.478391e+01   2.559497e+01   1.896997e+05   2.917523e+05   1.125308e+06   1.818476e+01  -1.182388e+01   1.173927e-20   1.177889e+06   1.572114e-39   0.000000e+00   0.000000e+00
      456000   4.559990e-06   9.650319e-01   1.480725e+01   2.568500e+01   1.896997e+05   2.917523e+05   1.125308e+06   6.730933e+00  -4.376507e+00  -4.021541e-21   1.177889e+06   2.153879e-40   0.000000e+00   0.000000e+00
      464000   4.639990e-06   9.802078e-01   1.483059e+01   2.577502e+01   1.896997e+05   2.917523e+05   1.125308e+06   4.369258e+00  -2.840927e+00  -4.582894e-22   1.177889e+06   9.079404e-41   0.000000e+00   0.000000e+00
      472000   4.719990e-06   9.953838e-01   1.485393e+01   2.586505e+01   1.896997e+05   2.917523e+05   1.125308e+06   5.363327e+00  -3.487279e+00   1.251544e-21   1.177889e+06   1.367485e-40   0.000000e+00   0.000000e+00
      480000   4.799990e-06   1.010560e+00   1.487727e+01   2.595507e+01   1.896997e+05   2.917523e+05   1.125308e+06  -2.388111e+00   1.552769e+00  -2.969355e-22   1.177889e+06   2.709410e-41   0.000000e+00   0.000000e+00
      488000   4.879990e-06   1.025736e+00   1.490061e+01   2.604510e+01   1.896997e+05   2.917523e+05   1.125308e+06  -2.897240e+00   1.883809e+00   1.604021e-22   1.177889e+06   3.993290e-41   0.000000e+00   0.000000e+00
      496000   4.959990e-06   1.040912e+00   1.492395e+01   2.613512e+01   1.896997e+05   2.917523e+05   1.125308e+06  -7.460653e+00   4.850977e+00   6.429118e-22   1.177889e+06   2.645986e-40   0.000000e+00   0.000000e+00
      504000   5.039990e-06   1.056088e+00   1.494729e+01   2.622515e+01   1.896997e+05   2.917523e+05   1.125308e+06  -7.898692e-01   5.135793e-01  -4.695226e-22   1.177889e+06   2.972168e-42   0.000000e+00   0.000000e+00
      512000   5.119990e-06   1.071264e+00   1.497063e+01   2.631517e+01   1.896997e+05   2.917523e+05   1.125308e+06  -1.162222e+01   7.556863e+00   8.001745e-21   1.177889e+06   6.421685e-40   0.000000e+00   0.000000e+00
      520000   5.199990e-06   1.086440e+00   1.499397e+01   2.640520e+01   1.896997e+05   2.917523e+05   1.125308e+06   1.317502e+00  -8.566504e-01   1.013547e-22   1.177889e+06   8.244096e-42   0.000000e+00   0.000000e+00
      528000   5.279990e-06   1.101616e+00   1.501731e+01   2.649522e+01   1.896997e+05   2.917523e+05   1.125308e+06  -3.591988e+00   2.335540e+00  -7.339664e-22   1.177889e+06   6.130782e-41   0.000000e+00   0.000000e+00
      536000   5.359990e-06   1.116792e+00   1.504065e+01   2.658525e+01   1.896997e+05   2.917523e+05   1.125308e+06   1.074715e+01  -6.987885e+00   1.630196e-21   1.177889e+06   5.490298e-40   0.000000e+00   0.000000e+00
      544000   5.439990e-06   1.131968e+00   1.506399e+01   2.667527e+01   1.896997e+05   2.917523e+05   1.125308e+06  -4.310781e+00   2.802904e+00  -7.496627e-22   1.177889e+06   8.830927e-41   0.000000e+00   0.000000e+00
      552000   5.519990e-06   1.147144e+00   1.508733e+01   2.676529e+01   1.896997e+05   2.917523e+05   1.125308e+06   1.745072e+01  -1.134660e+01   2.420174e-21   1.177889e+06   1.447721e-39   0.000000e+00   0.000000e+00
      560000   5.599990e-06   1.162320e+00   1.511067e+01   2.685532e+01   1.896997e+05   2.917523e+05   1.125308e+06   1.043667e+00  -6.786010e-01  -3.907240e-22   1.177889e+06   5.174419e-42   0.000000e+00   0.000000e+00
      568000   5.679990e-06   1.177496e+00   1.513402e+01   2.694534e+01   1.896997e+05   2.917523e+05   1.125308e+06  -7.061752e+00   4.591608e+00   2.478038e-21   1.177889e+06   2.370553e-40   0.000000e+00   0.000000e+00
      576000   5.759990e-06   1.192672e+00   1.515736e+01   2.703537e+01   1.896997e+05   2.917523e+05   1.125308e+06  -2.313543e-01   1.504285e-01  -1.269119e-22   1.177889e+06   2.555582e-43   0.000000e+00   0.000000e+00
      584000   5.839990e-06   1.207847e+00   1.518070e+01   2.712539e+01   1.896997e+05   2.917523e+05   1.125308e+06  -1.641904e+00   1.067579e+00  -1.088290e-22   1.177889e+06   1.282186e-41   0.000000e+00   0.000000e+00
      592000   5.919990e-06   1.223023e+00   1.520404e+01   2.721542e+01   1.896997e+05   2.917523e+05   1.125308e+06  -8.343753e-01   5.425175e-01   4.566013e-22   1.177889e+06   3.312870e-42   0.000000e+00   0.000000e+00
      600000   5.999990e-06   1.238199e+00   1.522738e+01   2.730544e+01   1.896997e+05   2.917523e+05   1.125308e+06   1.681964e+00  -1.093627e+00  -2.837962e-22   1.177889e+06   1.345310e-41   0.000000e+00   0.000000e+00
      608000   6.079990e-06   1.253375e+00   1.525072e+01   2.739547e+01   1.896997e+05   2.917523e+05   1.125308e+06   8.705461e-01  -5.660361e-01  -1.678042e-22   1.177889e+06   3.604302e-42   0.000000e+00   0.000000e+00
      616000   6.159990e-06   1.268551e+00   1.527406e+01   2.748549e+01   1.896997e+05   2.917523e+05   1.125308e+06   2.709408e+00  -1.761679e+00  -3.304349e-21   1.177889e+06   3.489626e-41   0.000000e+00   0.000000e+00
      624000   6.239990e-06   1.283727e+00   1.529740e+01   2.757552e+01   1.896997e+05   2.917523e+05   1.125308e+06   3.661063e+00  -2.380453e+00   8.975328e-23   1.177889e+06   6.373456e-41   0.000000e+00   0.000000e+00
      632000   6.319990e-06   1.298903e+00   1.532074e+01   2.766554e+01   1.896997e+05   2.917523e+05   1.125308e+06   7.878618e-01  -5.122741e-01  -1.514881e-22   1.177889e+06   2.945352e-42   0.000000e+00   0.000000e+00
      640000   6.399990e-06   1.314079e+00   1.534408e+01   2.775557e+01   1.896997e+05   2.917523e+05   1.125308e+06  -3.358061e-01   2.183438e-01   1.181395e-22   1.177889e+06   5.366703e-43   0.000000e+00   0.000000e+00
      648000   6.479990e-06   1.329255e+00   1.536742e+01   2.784559e+01   1.896997e+05   2.917523e+05   1.125308e+06   2.203173e+00  -1.432521e+00   1.255206e-21   1.177889e+06   2.307165e-41   0.000000e+00   0.000000e+00
      656000   6.559990e-06   1.344431e+00   1.539076e+01   2.793561e+01   1.896997e+05   2.917523e+05   1.125308e+06   4.068282e+00  -2.645230e+00  -9.625664e-22   1.177889e+06   7.869118e-41   0.000000e+00   0.000000e+00
      664000   6.639990e-06   1.359607e+00   1.541410e+01   2.802564e+01   1.896997e+05   2.917523e+05   1.125308e+06   7.959980e-01  -5.175644e-01   5.341084e-22   1.177889e+06   3.013031e-42   0.000000e+00   0.000000e+00
      672000   6.719990e-06   1.374783e+00   1.543744e+01   2.811566e+01   1.896997e+05   2.917523e+05   1.125308e+06  -4.107271e+00   2.670581e+00   8.290310e-22   1.177889e+06   8.020052e-41   0.000000e+00   0.000000e+00
      680000   6.799990e-06   1.389959e+00   1.546078e+01   2.820569e+01   1.896997e+05   2.917523e+05   1.125308e+06  -6.863275e-01   4.462557e-01   4.715017e-22   1.177889e+06   2.239491e-42   0.000000e+00   0.000000e+00
      688000   6.879990e-06   1.405135e+00   1.548412e+01   2.829571e+01   1.896997e+05   2.917523e+05   1.125308e+06  -6.807300e+00   4.426161e+00   4.924724e-22   1.177889e+06   2.202940e-40   0.000000e+00   0.000000e+00
      696000   6.959990e-06   1.420311e+00   1.550746e+01   2.838574e+01   1.896997e+05   2.917523e+05   1.125308e+06  -2.081396e+00   1.353341e+00   9.434947e-22   1.177889e+06   2.059705e-41   0.000000e+00   0.000000e+00
      704000   7.039990e-06   1.435487e+00   1.553080e+01   2.847576e+01   1.896997e+05   2.917523e+05   1.125308e+06   1.346892e+00  -8.757599e-01   1.682267e-22   1.177889e+06   8.620050e-42   0.000000e+00   0.000000e+00
      712000   7.119990e-06   1.450663e+00   1.555414e+01   2.856579e+01   1.896997e+05   2.917523e+05   1.125308e+06   3.376018e-01  -2.195114e-01  -4.137197e-22   1.177889e+06   5.422491e-43   0.000000e+00   0.000000e+00
      720000   7.199990e-06   1.465839e+00   1.557748e+01   2.865581e+01   1.896997e+05   2.917523e+05   1.125308e+06   4.599432e+00  -2.990588e+00   3.923079e-22   1.177889e+06   1.005679e-40   0.000000e+00   0.000000e+00
      728000   7.279990e-06   1.481015e+00   1.560082e+01   2.874584e+01   1.896997e+05   2.917523e+05   1.125308e+06   3.177415e-01  -2.065981e-01   1.396747e-22   1.177889e+06   4.797062e-43   0.000000e+00   0.000000e+00
      736000   7.359990e-06   1.496191e+00   1.562416e+01   2.883586e+01   1.896997e+05   2.917523e+05   1.125308e+06  -2.602515e+00   1.692176e+00  -1.007705e-21   1.177889e+06   3.219858e-41   0.000000e+00   0.000000e+00
      744000   7.439990e-06   1.511367e+00   1.564750e+01   2.892589e+01   1.896997e+05   2.917523e+05   1.125308e+06  -5.091205e+00   3.310343e+00  -1.221904e-21   1.177889e+06   1.232237e-40   0.000000e+00   0.000000e+00
      752000   7.519990e-06   1.526543e+00   1.567084e+01   2.901591e+01   1.896997e+05   2.917523e+05   1.125308e+06  -6.254850e+00   4.066954e+00  -6.341425e-22   1.177889e+06   1.860195e-40   0.000000e+00   0.000000e+00
      760000   7.599990e-06   1.541719e+00   1.569418e+01   2.910594e+01   1.896997e+05   2.917523e+05   1.125308e+06  -1.019179e+01   6.626782e+00   1.339122e-21   1.177889e+06   4.938504e-40   0.000000e+00   0.000000e+00
      768000   7.679990e-06   1.556895e+00   1.571752e+01   2.919596e+01   1.896997e+05   2.917523e+05   1.125308e+06  -1.225936e+00   7.971137e-01   5.352693e-22   1.177889e+06   7.153634e-42   0.000000e+00   0.000000e+00
      776000   7.759990e-06   1.572071e+00   1.574086e+01   2.928598e+01   1.896997e+05   2.917523e+05   1.125308e+06   2.552037e+00  -1.659355e+00   3.396170e-22   1.177889e+06   3.096179e-41   0.000000e+00   0.000000e+00
      784000   7.839990e-06   1.587247e+00   1.576420e+01   2.937601e+01   1.896997e+05   2.917523e+05   1.125308e+06   5.301743e+00  -3.447236e+00  -1.442331e-21   1.177889e+06   1.336191e-40   0.000000e+00   0.000000e+00
      792000   7.919990e-06   1.602423e+00   1.578754e+01   2.946603e+01   1.896997e+05   2.917523e+05   1.125308e+06  -3.333287e+00   2.167330e+00  -1.228914e-22   1.177889e+06   5.280703e-41   0.000000e+00   0.000000e+00
      800000   7.999990e-06   1.617599e+00   1.581088e+01   2.955606e+01   1.896997e+05   2.917523e+05   1.125308e+06  -1.951015e+00   1.268566e+00  -2.778173e-22   1.177889e+06   1.808610e-41   0.000000e+00   0.000000e+00
      808000   8.079990e-06   1.632775e+00   1.583422e+01   2.964608e+01   1.896997e+05   2.917523e+05   1.125308e+06  -5.504582e+00   4.457461e+00  -2.277215e-01   1.177889e+06   1.678053e-40   0.000000e+00   0.000000e+00
      816000   8.159990e-06   1.647951e+00   1.585756e+01   2.973611e+01   1.896997e+05   2.917523e+05   1.125308e+06  -1.066460e+01   8.218624e+00  -3.330032e-01   1.177889e+06   6.060394e-40   0.000000e+00   0.000000e+00
      824000   8.239990e-06   1.663127e+00   1.588090e+01   2.982613e+01   1.896997e+05   2.917523e+05   1.125308e+06  -9.697083e-01  -1.374241e+01   3.726387e+00   1.177889e+06   6.805127e-40   0.000000e+00   0.000000e+00
      832000   8.319990e-06   1.678303e+00   1.590424e+01   2.991616e+01   1.896997e+05   2.917523e+05   1.125308e+06  -8.816702e+00   1.133250e+01  -1.451830e+00   1.177889e+06   6.954349e-40   0.000000e+00   0.000000e+00
      840000   8.399990e-06   1.693479e+00   1.592758e+01   3.000618e+01   1.896997e+05   2.917523e+05   1.125308e+06   9.128758e-01  -6.293066e+00   1.477680e+00   1.177889e+06   1.421291e-40   0.000000e+00   0.000000e+00
      848000   8.479990e-06   1.708655e+00   1.595092e+01   3.009621e+01   1.896997e+05   2.917523e+05   1.125308e+06   1.832790e+00  -1.293510e+01   3.044647e+00   1.177889e+06   6.012026e-40   0.000000e+00   0.000000e+00
      856000   8.559990e-06   1.723831e+00   1.597426e+01   3.018623e+01   1.896997e+05   2.917523e+05   1.125308e+06  -1.798112e+00   2.553957e-01   2.369032e-01   1.177889e+06   1.120879e-41   0.000000e+00   0.000000e+00
      864000   8.639990e-06   1.739007e+00   1.599760e+01   3.027626e+01   1.896997e+05   2.917523e+05   1.125308e+06   1.784034e+00  -1.159993e+00  -5.609566e-22   1.177889e+06   1.513211e-41   0.000000e+00   0.000000e+00
      872000   8.719990e-06   1.754183e+00   1.602094e+01   3.036628e+01   1.896997e+05   2.917523e+05   1.125308e+06  -1.012396e+00   6.582682e-01  -1.046359e-21   1.177889e+06   4.878613e-42   0.000000e+00   0.000000e+00
      880000   8.799990e-06   1.769359e+00   1.604428e+01   3.045630e+01   1.896997e+05   2.917523e+05   1.125308e+06  -6.524893e+00   4.242538e+00   5.111272e-21   1.177889e+06   2.023864e-40   0.000000e+00   0.000000e+00
      888000   8.879990e-06   1.784535e+00   1.606762e+01   3.054633e+01   1.896997e+05   2.917523e+05   1.125308e+06  -1.622484e+00   1.054952e+00  -5.328365e-22   1.177889e+06   1.252518e-41   0.000000e+00   0.000000e+00
      896000   8.959990e-06   1.799711e+00   1.609096e+01   3.063635e+01   1.896997e+05   2.917523e+05   1.125308e+06  -9.618749e+00   6.254188e+00   3.210933e-22   1.177889e+06   4.398498e-40   0.000000e+00   0.000000e+00
      904000   9.039990e-06   1.814886e+00   1.611430e+01   3.072638e+01   1.896997e+05   2.917523e+05   1.125308e+06  -2.280572e+00   1.482846e+00  -3.840591e-22   1.177889e+06   2.473703e-41   0.000000e+00   0.000000e+00
      912000   9.119990e-06   1.830062e+00   1.613764e+01   3.081640e+01   1.896997e+05   2.917523e+05   1.125308e+06  -1.526138e-01   9.923075e-02  -1.213426e-22   1.177889e+06   1.108663e-43   0.000000e+00   0.000000e+00
      920000   9.199990e-06   1.845238e+00   1.616098e+01   3.090643e+01   1.896997e+05   2.917523e+05   1.125308e+06   7.827689e-01  -5.089627e-01   2.705525e-22   1.177889e+06   2.911011e-42   0.000000e+00   0.000000e+00
      928000   9.279990e-06   1.860414e+00   1.618432e+01   3.099645e+01   1.896997e+05   2.917523e+05   1.125308e+06   3.375967e+00  -2.195081e+00  -5.834629e-22   1.177889e+06   5.418131e-41   0.000000e+00   0.000000e+00
      936000   9.359990e-06   1.875590e+00   1.620766e+01   3.108648e+01   1.896997e+05   2.917523e+05   1.125308e+06  -7.405689e+00   4.815239e+00  -1.258425e-21   1.177889e+06   2.607368e-40   0.000000e+00   0.000000e+00
      944000   9.439990e-06   1.890766e+00   1.623100e+01   3.117650e+01   1.896997e+05   2.917523e+05   1.125308e+06  -1.905038e+00   1.238671e+00  -8.115506e-22   1.177889e+06   1.725873e-41   0.000000e+00   0.000000e+00
      952000   9.519990e-06   1.905942e+00   1.625434e+01   3.126653e+01   1.896997e+05   2.917523e+05   1.125308e+06  -5.140762e-01   3.342565e-01  -2.197053e-22   1.177889e+06   1.259838e-42   0.000000e+00   0.000000e+00
      960000   9.599990e-06   1.921118e+00   1.627768e+01   3.135655e+01   1.896997e+05   2.917523e+05   1.125308e+06  -6.185552e+00   4.021896e+00  -1.225478e-21   1.177889e+06   1.818917e-40   0.000000e+00   0.000000e+00
      968000   9.679990e-06   1.936294e+00   1.630102e+01   3.144658e+01   1.896997e+05   2.917523e+05   1.125308e+06  -9.234198e-01   6.004150e-01  -3.153648e-22   1.177889e+06   4.052678e-42   0.000000e+00   0.000000e+00
      976000   9.759990e-06   1.951470e+00   1.632436e+01   3.153660e+01   1.896997e+05   2.917523e+05   1.125308e+06   1.714567e+00  -1.114825e+00   1.546856e-21   1.177889e+06   1.397035e-41   0.000000e+00   0.000000e+00
      984000   9.839990e-06   1.966646e+00   1.634770e+01   3.162662e+01   1.896997e+05   2.917523e+05   1.125308e+06  -7.059049e-02   4.589850e-02   2.192106e-23   1.177889e+06   2.355614e-44   0.000000e+00   0.000000e+00
      992000   9.919990e-06   1.981822e+00   1.637104e+01   3.171665e+01   1.896997e+05   2.917523e+05   1.125308e+06   5.103529e+00  -3.318356e+00  -2.525690e-21   1.177889e+06   1.238220e-40   0.000000e+00   0.000000e+00
     1000000   9.999990e-06   1.996998e+00   1.639439e+01   3.180667e+01   1.896997e+05   2.917523e+05   1.125308e+06   7.822388e-01  -5.086180e-01   2.800505e-22   1.177889e+06   2.911003e-42   0.000000e+00   0.000000e+00
     1008000   1.007999e-05   2.012174e+00   1.641773e+01   3.189670e+01   1.896997e+05   2.917523e+05   1.125308e+06  -6.526019e+00   4.243271e+00  -4.261536e-21   1.177889e+06   2.025176e-40   0.000000e+00   0.000000e+00
     1016000   1.015999e-05   2.027350e+00   1.644107e+01   3.198672e+01   1.896997e+05   2.917523e+05   1.125308e+06  -3.843712e+00   2.499213e+00   1.535243e-21   1.177889e+06   7.026206e-41   0.000000e+00   0.000000e+00
     1024000   1.023999e-05   2.042526e+00   1.646441e+01   3.207675e+01   1.896997e+05   2.917523e+05   1.125308e+06  -1.421494e+00   9.242671e-01   4.182723e-22   1.177889e+06   9.610866e-42   0.000000e+00   0.000000e+00
     1032000   1.031999e-05   2.057702e+00   1.648775e+01   3.216677e+01   1.896997e+05   2.917523e+05   1.125308e+06   4.702674e-01  -3.057717e-01  -1.960155e-22   1.177889e+06   1.049904e-42   0.000000e+00   0.000000e+00
     1040000   1.039999e-05   2.072878e+00   1.651109e+01   3.225680e+01   1.896997e+05   2.917523e+05   1.125308e+06  -1.540759e+00   1.001814e+00   6.292002e-23   1.177889e+06   1.128486e-41   0.000000e+00   0.000000e+00
     1048000   1.047999e-05   2.088054e+00   1.653443e+01   3.234682e+01   1.896997e+05   2.917523e+05   1.125308e+06   1.703805e+00  -1.107828e+00   1.600732e-22   1.177889e+06   1.380241e-41   0.000000e+00   0.000000e+00
     1056000   1.055999e-05   2.103230e+00   1.655777e+01   3.243685e+01   1.896997e+05   2.917523e+05   1.125308e+06  -4.383299e+00   2.850056e+00   3.249451e-21   1.177889e+06   9.135996e-41   0.000000e+00   0.000000e+00
     1064000   1.063999e-05   2.118406e+00   1.658111e+01   3.252687e+01   1.896997e+05   2.917523e+05   1.125308e+06  -1.069875e+01   6.956416e+00  -2.480155e-21   1.177889e+06   5.441550e-40   0.000000e+00   0.000000e+00
     1072000   1.071999e-05   2.133582e+00   1.660445e+01   3.261690e+01   1.896997e+05   2.917523e+05   1.125308e+06  -6.459157e+00   4.199796e+00   2.848428e-22   1.177889e+06   1.983846e-40   0.000000e+00   0.000000e+00
     1080000   1.079999e-05   2.148758e+00   1.662779e+01   3.270692e+01   1.896997e+05   2.917523e+05   1.125308e+06  -4.512759e+00   2.934232e+00  -1.219456e-22   1.177889e+06   9.685572e-41   0.000000e+00   0.000000e+00
     1088000   1.087999e-05   2.163934e+00   1.665113e+01   3.279694e+01   1.896997e+05   2.917523e+05   1.125308e+06  -1.680682e-01   1.092793e-01   8.858048e-23   1.177889e+06   1.351791e-43   0.000000e+00   0.000000e+00
     1096000   1.095999e-05   2.179110e+00   1.667447e+01   3.288697e+01   1.896997e+05   2.917523e+05   1.125308e+06  -1.846587e-01   1.200666e-01   6.324784e-23   1.177889e+06   1.623925e-43   0.000000e+00   0.000000e+00
     1104000   1.103999e-05   2.194286e+00   1.669781e+01   3.297699e+01   1.896997e+05   2.917523e+05   1.125308e+06   5.767737e+00  -3.750229e+00  -6.496110e-22   1.177889e+06   1.581487e-40   0.000000e+00   0.000000e+00
     1112000   1.111999e-05   2.209462e+00   1.672115e+01   3.306702e+01   1.896997e+05   2.917523e+05   1.125308e+06  -4.738415e+00   3.080956e+00   3.102981e-22   1.177889e+06   1.067465e-40   0.000000e+00   0.000000e+00
     1120000   1.119999e-05   2.224638e+00   1.674449e+01   3.315704e+01   1.896997e+05   2.917523e+05   1.125308e+06  -5.509985e+00   3.582637e+00   8.695643e-22   1.177889e+06   1.443606e-40   0.000000e+00   0.000000e+00
     1128000   1.127999e-05   2.239814e+00   1.676783e+01   3.324707e+01   1.896997e+05   2.917523e+05   1.125308e+06  -5.614614e+00   3.650668e+00   8.459267e-22   1.177889e+06   1.498770e-40   0.000000e+00   0.000000e+00
     1136000   1.135999e-05   2.254990e+00   1.679117e+01   3.333709e+01   1.896997e+05   2.917523e+05   1.125308e+06  -7.735215e+00   5.029499e+00  -4.586958e-21   1.177889e+06   2.845047e-40   0.000000e+00   0.000000e+00
     1144000   1.143999e-05   2.270166e+00   1.681451e+01   3.342712e+01   1.896997e+05   2.917523e+05   1.125308e+06  -3.438561e+00   2.235780e+00  -7.640054e-24   1.177889e+06   5.620861e-41   0.000000e+00   0.000000e+00
     1152000   1.151999e-05   2.285342e+00   1.683785e+01   3.351714e+01   1.896997e+05   2.917523e+05   1.125308e+06  -5.531715e+00   3.596766e+00   1.109121e-21   1.177889e+06   1.455076e-40   0.000000e+00   0.000000e+00
     1160000   1.159999e-05   2.300518e+00   1.686119e+01   3.360717e+01   1.896997e+05   2.917523e+05   1.125308e+06  -2.491643e+00   1.620086e+00   2.647447e-21   1.177889e+06   2.950880e-41   0.000000e+00   0.000000e+00
     1168000   1.167999e-05   2.315694e+00   1.688453e+01   3.369719e+01   1.896997e+05   2.917523e+05   1.125308e+06  -6.084163e+00   3.955972e+00  -1.808291e-21   1.177889e+06   1.759843e-40   0.000000e+00   0.000000e+00
     1176000   1.175999e-05   2.330870e+00   1.690787e+01   3.378722e+01   1.896997e+05   2.917523e+05   1.125308e+06  -3.909631e+00   2.542074e+00   5.354955e-22   1.177889e+06   7.265040e-41   0.000000e+00   0.000000e+00
     1184000   1.183999e-05   2.346046e+00   1.693121e+01   3.387724e+01   1.896997e+05   2.917523e+05   1.125308e+06   3.104072e+00  -2.018293e+00  -4.188591e-22   1.177889e+06   4.579229e-41   0.000000e+00   0.000000e+00
     1192000   1.191999e-05   2.361222e+00   1.695455e+01   3.396726e+01   1.896997e+05   2.917523e+05   1.125308e+06  -6.283127e+00   4.085340e+00  -1.929900e-21   1.177889e+06   1.876646e-40   0.000000e+00   0.000000e+00
     1200000   1.199999e-05   2.376398e+00   1.697789e+01   3.405729e+01   1.896997e+05   2.917523e+05   1.125308e+06   5.113150e+00  -3.324612e+00   6.584646e-22   1.177889e+06   1.242761e-40   0.000000e+00   0.000000e+00
     1208000   1.207999e-05   2.391574e+00   1.700123e+01   3.414731e+01   1.896997e+05   2.917523e+05   1.125308e+06  -3.038222e+00   1.975476e+00  -2.012728e-22   1.177889e+06   4.390325e-41   0.000000e+00   0.000000e+00
     1216000   1.215999e-05   2.406750e+00   1.702457e+01   3.423734e+01   1.896997e+05   2.917523e+05   1.125308e+06  -5.059125e+00   3.289484e+00  -7.668991e-22   1.177889e+06   1.216694e-40   0.000000e+00   0.000000e+00
     1224000   1.223999e-05   2.421926e+00   1.704791e+01   3.432736e+01   1.896997e+05   2.917523e+05   1.125308e+06  -1.029122e+00   6.691435e-01  -4.247466e-22   1.177889e+06   5.042166e-42   0.000000e+00   0.000000e+00
     1232000   1.231999e-05   2.437101e+00   1.707125e+01   3.441739e+01   1.896997e+05   2.917523e+05   1.125308e+06  -8.079881e+00   5.253604e+00  -4.587284e-21   1.177889e+06   3.103703e-40   0.000000e+00   0.000000e+00
     1240000   1.239999e-05   2.452277e+00   1.709459e+01   3.450741e+01   1.896997e+05   2.917523e+05   1.125308e+06   2.504517e+00  -1.628457e+00  -5.096669e-22   1.177889e+06   2.980983e-41   0.000000e+00   0.000000e+00
     1248000   1.247999e-05   2.467453e+00   1.711793e+01   3.459744e+01   1.896997e+05   2.917523e+05   1.125308e+06  -9.946044e+00   6.466998e+00   1.861684e-22   1.177889e+06   4.702834e-40   0.000000e+00   0.000000e+00
     1256000   1.255999e-05   2.482629e+00   1.714127e+01   3.468746e+01   1.896997e+05   2.917523e+05   1.125308e+06   5.164590e+00  -3.358058e+00  -5.161330e-22   1.177889e+06   1.267787e-40   0.000000e+00   0.000000e+00
     1264000   1.263999e-05   2.497805e+00   1.716461e+01   3.477749e+01   1.896997e+05   2.917523e+05   1.125308e+06  -1.169436e+01   7.603765e+00   9.728573e-21   1.177889e+06   6.501643e-40   0.000000e+00   0.000000e+00
     1272000   1.271999e-05   2.512981e+00   1.718795e+01   3.486751e+01   1.896997e+05   2.917523e+05   1.125308e+06  -6.762458e+00   4.397005e+00   3.729831e-21   1.177889e+06   2.174151e-40   0.000000e+00   0.000000e+00
     1280000   1.279999e-05   2.528157e+00   1.721129e+01   3.495754e+01   1.896997e+05   2.917523e+05   1.125308e+06  -4.826751e+00   3.138392e+00   5.042616e-22   1.177889e+06   1.107858e-40   0.000000e+00   0.000000e+00
     1288000   1.287999e-05   2.543333e+00   1.723463e+01   3.504756e+01   1.896997e+05   2.917523e+05   1.125308e+06  -6.894151e+00   4.482632e+00   4.516954e-21   1.177889e+06   2.259861e-40   0.000000e+00   0.000000e+00
     1296000   1.295999e-05   2.558509e+00   1.725797e+01   3.513758e+01   1.896997e+05   2.917523e+05   1.125308e+06  -2.959552e+00   1.924325e+00  -1.754238e-21   1.177889e+06   4.165339e-41   0.000000e+00   0.000000e+00
     1304000   1.303999e-05   2.573685e+00   1.728131e+01   3.522761e+01   1.896997e+05   2.917523e+05   1.125308e+06  -7.443983e+00   4.840138e+00  -2.578963e-21   1.177889e+06   2.634706e-40   0.000000e+00   0.000000e+00
     1312000   1.311999e-05   2.588861e+00   1.730465e+01   3.531763e+01   1.896997e+05   2.917523e+05   1.125308e+06  -8.243140e+00   5.359756e+00   3.939944e-21   1.177889e+06   3.230428e-40   0.000000e+00   0.000000e+00
     1320000   1.319999e-05   2.604037e+00   1.732799e+01   3.540766e+01   1.896997e+05   2.917523e+05   1.125308e+06  -6.112059e+00   3.974110e+00   3.110919e-21   1.177889e+06   1.775858e-40   0.000000e+00   0.000000e+00
     1328000   1.327999e-05   2.619213e+00   1.735133e+01   3.549768e+01   1.896997e+05   2.917523e+05   1.125308e+06  -1.192816e+01   7.755789e+00  -6.800162e-21   1.177889e+06   6.764422e-40   0.000000e+00   0.000000e+00
     1336000   1.335999e-05   2.634389e+00   1.737467e+01   3.558771e+01   1.896997e+05   2.917523e+05   1.125308e+06  -3.395078e+00   2.207507e+00   1.214600e-21   1.177889e+06   5.482371e-41   0.000000e+00   0.000000e+00
     1344000   1.343999e-05   2.649565e+00   1.739801e+01   3.567773e+01   1.896997e+05   2.917523e+05   1.125308e+06  -1.512616e+01   9.835152e+00  -7.799908e-21   1.177889e+06   1.087808e-39   0.000000e+00   0.000000e+00
     1352000   1.351999e-05   2.664741e+00   1.742135e+01   3.576776e+01   1.896997e+05   2.917523e+05   1.125308e+06  -8.799310e+00   5.721383e+00   4.426798e-21   1.177889e+06   3.681315e-40   0.000000e+00   0.000000e+00
     1360000   1.359999e-05   2.679917e+00   1.744469e+01   3.585778e+01   1.896997e+05   2.917523e+05   1.125308e+06   2.586632e-01  -1.681849e-01  -7.747496e-23   1.177889e+06   3.163262e-43   0.000000e+00   0.000000e+00
     1368000   1.367999e-05   2.695093e+00   1.746803e+01   3.594781e+01   1.896997e+05   2.917523e+05   1.125308e+06  -7.565035e+00   4.918847e+00   1.267708e-21   1.177889e+06   2.720963e-40   0.000000e+00   0.000000e+00
     1376000   1.375999e-05   2.710269e+00   1.749137e+01   3.603783e+01   1.896997e+05   2.917523e+05   1.125308e+06  -8.469249e+00   5.506774e+00  -2.246947e-21   1.177889e+06   3.410336e-40   0.000000e+00   0.000000e+00
     1384000   1.383999e-05   2.725445e+00   1.751471e+01   3.612786e+01   1.896997e+05   2.917523e+05   1.125308e+06  -5.883793e+00   3.825690e+00   1.415125e-21   1.177889e+06   1.645593e-40   0.000000e+00   0.000000e+00
     1392000   1.391999e-05   2.740621e+00   1.753805e+01   3.621788e+01   1.896997e+05   2.917523e+05   1.125308e+06  -7.343816e+00   4.775009e+00  -2.662343e-21   1.177889e+06   2.564808e-40   0.000000e+00   0.000000e+00
     1400000   1.399999e-05   2.755797e+00   1.756139e+01   3.630790e+01   1.896997e+05   2.917523e+05   1.125308e+06  -8.649073e+00   5.623697e+00   5.173986e-21   1.177889e+06   3.556214e-40   0.000000e+00   0.000000e+00
     1408000   1.407999e-05   2.770973e+00   1.758473e+01   3.639793e+01   1.896997e+05   2.917523e+05   1.125308e+06  -1.562974e+01   1.016258e+01   3.222862e-21   1.177889e+06   1.161425e-39   0.000000e+00   0.000000e+00
     1416000   1.415999e-05   2.786149e+00   1.760807e+01   3.648795e+01   1.896997e+05   2.917523e+05   1.125308e+06  -6.351686e+00   4.129918e+00  -3.156559e-21   1.177889e+06   1.918219e-40   0.000000e+00   0.000000e+00
     1424000   1.423999e-05   2.801325e+00   1.763141e+01   3.657798e+01   1.896997e+05   2.917523e+05   1.125308e+06  -4.981699e+00   3.239141e+00  -8.054257e-22   1.177889e+06   1.180211e-40   0.000000e+00   0.000000e+00
     1432000   1.431999e-05   2.816501e+00   1.765475e+01   3.666800e+01   1.896997e+05   2.917523e+05   1.125308e+06  -7.124320e+00   4.632290e+00   2.331501e-22   1.177889e+06   2.413162e-40   0.000000e+00   0.000000e+00
     1440000   1.439999e-05   2.831677e+00   1.767810e+01   3.675803e+01   1.896997e+05   2.917523e+05   1.125308e+06  -3.573877e+00   2.323764e+00  -6.824013e-22   1.177889e+06   6.074504e-41   0.000000e+00   0.000000e+00
     1448000   1.447999e-05   2.846853e+00   1.770144e+01   3.684805e+01   1.896997e+05   2.917523e+05   1.125308e+06  -5.290510e+00   3.439932e+00   1.460886e-21   1.177889e+06   1.330914e-40   0.000000e+00   0.000000e+00
     1456000   1.455999e-05   2.862029e+00   1.772478e+01   3.693808e+01   1.896997e+05   2.917523e+05   1.125308e+06  -7.235953e+00   4.704875e+00   6.825557e-22   1.177889e+06   2.489600e-40   0.000000e+00   0.000000e+00
     1464000   1.463999e-05   2.877205e+00   1.774812e+01   3.702810e+01   1.896997e+05   2.917523e+05   1.125308e+06  -3.397357e+00   2.208989e+00  -2.673360e-23   1.177889e+06   5.488420e-41   0.000000e+00   0.000000e+00
     1472000   1.471999e-05   2.892381e+00   1.777146e+01   3.711813e+01   1.896997e+05   2.917523e+05   1.125308e+06  -7.137935e+00   4.641143e+00   2.289882e-21   1.177889e+06   2.422608e-40   0.000000e+00   0.000000e+00
     1480000   1.479999e-05   2.907557e+00   1.779480e+01   3.720815e+01   1.896997e+05   2.917523e+05   1.125308e+06  -6.373215e+00   4.143916e+00  -1.483125e-21   1.177889e+06   1.930919e-40   0.000000e+00   0.000000e+00
     1488000   1.487999e-05   2.922733e+00   1.781814e+01   3.729818e+01   1.896997e+05   2.917523e+05   1.125308e+06  -3.312290e+00   2.153678e+00   1.070247e-21   1.177889e+06   5.217473e-41   0.000000e+00   0.000000e+00
     1496000   1.495999e-05   2.937909e+00   1.784148e+01   3.738820e+01   1.896997e+05   2.917523e+05   1.125308e+06  -1.231868e+01   8.009705e+00  -6.899483e-22   1.177889e+06   7.214432e-40   0.000000e+00   0.000000e+00
     1504000   1.503999e-05   2.953085e+00   1.786482e+01   3.747822e+01   1.896997e+05   2.917523e+05   1.125308e+06  -7.004835e+00   4.554600e+00  -2.282220e-21   1.177889e+06   2.333264e-40   0.000000e+00   0.000000e+00
     1512000   1.511999e-05   2.968261e+00   1.788816e+01   3.756825e+01   1.896997e+05   2.917523e+05   1.125308e+06  -1.875655e+01   1.219566e+01  -1.718344e-20   1.177889e+06   1.672635e-39   0.000000e+00   0.000000e+00
     1520000   1.519999e-05   2.983437e+00   1.791150e+01   3.765827e+01   1.896997e+05   2.917523e+05   1.125308e+06  -6.608925e+00   4.297176e+00   1.973978e-21   1.177889e+06   2.076692e-40   0.000000e+00   0.000000e+00
     1528000   1.527999e-05   2.998613e+00   1.793484e+01   3.774830e+01   1.896997e+05   2.917523e+05   1.125308e+06   6.344348e-01  -4.125146e-01   1.135437e-23   1.177889e+06   1.909233e-42   0.000000e+00   0.000000e+00
     1536000   1.535999e-05   3.013789e+00   1.795818e+01   3.783832e+01   1.896997e+05   2.917523e+05   1.125308e+06  -9.432165e+00   6.132870e+00  -1.494581e-21   1.177889e+06   4.229884e-40   0.000000e+00   0.000000e+00
     1544000   1.543999e-05   3.028965e+00   1.798152e+01   3.792835e+01   1.896997e+05   2.917523e+05   1.125308e+06  -8.253639e+00   5.366583e+00  -7.089616e-21   1.177889e+06   3.238933e-40   0.000000e+00   0.000000e+00
     1552000   1.551999e-05   3.044141e+00   1.800486e+01   3.801837e+01   1.896997e+05   2.917523e+05   1.125308e+06  -7.977228e+00   5.186858e+00  -4.905808e-22   1.177889e+06   3.026283e-40   0.000000e+00   0.000000e+00
     1560000   1.559999e-05   3.059316e+00   1.802820e+01   3.810840e+01   1.896997e+05   2.917523e+05   1.125308e+06  -1.054436e+01   6.856031e+00   3.531026e-22   1.177889e+06   5.285986e-40   0.000000e+00   0.000000e+00
     1568000   1.567999e-05   3.074492e+00   1.805154e+01   3.819842e+01   1.896997e+05   2.917523e+05   1.125308e+06  -1.552704e+01   1.009581e+01  -3.041468e-21   1.177889e+06   1.146249e-39   0.000000e+00   0.000000e+00
     1576000   1.575999e-05   3.089668e+00   1.807488e+01   3.828845e+01   1.896997e+05   2.917523e+05   1.125308e+06  -7.019632e-01   4.564221e-01  -3.899173e-22   1.177889e+06   2.347197e-42   0.000000e+00   0.000000e+00
     1584000   1.583999e-05   3.104844e+00   1.809822e+01   3.837847e+01   1.896997e+05   2.917523e+05   1.125308e+06  -4.475780e+00   2.910188e+00  -2.183523e-21   1.177889e+06   9.527758e-41   0.000000e+00   0.000000e+00
     1592000   1.591999e-05   3.120020e+00   1.812156e+01   3.846850e+01   1.896997e+05   2.917523e+05   1.125308e+06  -9.777968e+00   6.357714e+00   3.221937e-21   1.177889e+06   4.545758e-40   0.000000e+00   0.000000e+00
     1600000   1.599999e-05   3.135196e+00   1.814490e+01   3.855852e+01   1.896997e+05   2.917523e+05   1.125308e+06  -1.152086e+01   7.490958e+00   5.105040e-21   1.177889e+06   6.310960e-40   0.000000e+00   0.000000e+00
     1608000   1.607999e-05   3.150372e+00   1.816824e+01   3.864854e+01   1.896997e+05   2.917523e+05   1.125308e+06  -1.302649e+01   8.469930e+00  -8.585918e-21   1.177889e+06   8.068092e-40   0.000000e+00   0.000000e+00
     1616000   1.615999e-05   3.165548e+00   1.819158e+01   3.873857e+01   1.896997e+05   2.917523e+05   1.125308e+06  -1.554011e+01   1.010431e+01  -1.066168e-20   1.177889e+06   1.148250e-39   0.000000e+00   0.000000e+00
     1624000   1.623999e-05   3.180724e+00   1.821492e+01   3.882859e+01   1.896997e+05   2.917523e+05   1.125308e+06  -8.625001e+00   5.608045e+00  -5.562162e-22   1.177889e+06   3.536941e-40   0.000000e+00   0.000000e+00
     1632000   1.631999e-05   3.195900e+00   1.823826e+01   3.891862e+01   1.896997e+05   2.917523e+05   1.125308e+06  -4.304083e+00   2.798550e+00   1.664785e-22   1.177889e+06   8.811469e-41   0.000000e+00   0.000000e+00
     1640000   1.639999e-05   3.211076e+00   1.826160e+01   3.900864e+01   1.896997e+05   2.917523e+05   1.125308e+06  -5.757321e+00   3.743457e+00   4.604872e-22   1.177889e+06   1.576098e-40   0.000000e+00   0.000000e+00
     1648000   1.647999e-05   3.226252e+00   1.828494e+01   3.909867e+01   1.896997e+05   2.917523e+05   1.125308e+06  -5.446363e+00   3.541269e+00   3.217381e-21   1.177889e+06   1.410444e-40   0.000000e+00   0.000000e+00
     1656000   1.655999e-05   3.241428e+00   1.830828e+01   3.918869e+01   1.896997e+05   2.917523e+05   1.125308e+06  -1.028064e+01   6.684553e+00   7.300878e-21   1.177889e+06   5.025455e-40   0.000000e+00   0.000000e+00
     1664000   1.663999e-05   3.256604e+00   1.833162e+01   3.927872e+01   1.896997e+05   2.917523e+05   1.125308e+06  -1.382933e+01   8.991945e+00   7.305211e-21   1.177889e+06   9.092759e-40   0.000000e+00   0.000000e+00
     1672000   1.671999e-05   3.271780e+00   1.835496e+01   3.936874e+01   1.896997e+05   2.917523e+05   1.125308e+06  -1.600923e+01   1.040933e+01   9.582721e-21   1.177889e+06   1.218644e-39   0.000000e+00   0.000000e+00
     1680000   1.679999e-05   3.286956e+00   1.837830e+01   3.945877e+01   1.896997e+05   2.917523e+05   1.125308e+06  -1.934082e+01   1.257555e+01  -5.984926e-21   1.177889e+06   1.778505e-39   0.000000e+00   0.000000e+00
     1688000   1.687999e-05   3.302132e+00   1.840164e+01   3.954879e+01   1.896997e+05   2.917523e+05   1.125308e+06  -1.057861e+01   6.878300e+00   5.950757e-22   1.177889e+06   5.321075e-40   0.000000e+00   0.000000e+00
     1696000   1.695999e-05   3.317308e+00   1.842498e+01   3.963882e+01   1.896997e+05   2.917523e+05   1.125308e+06  -9.361611e+00   6.086995e+00   4.797906e-21   1.177889e+06   4.167456e-40   0.000000e+00   0.000000e+00
     1704000   1.703999e-05   3.332484e+00   1.844832e+01   3.972884e+01   1.896997e+05   2.917523e+05   1.125308e+06  -6.393689e+00   4.157228e+00   3.017862e-21   1.177889e+06   1.943786e-40   0.000000e+00   0.000000e+00
     1712000   1.711999e-05   3.347660e+00   1.847166e+01   3.981887e+01   1.896997e+05   2.917523e+05   1.125308e+06  -6.729575e+00   4.375624e+00  -9.377004e-22   1.177889e+06   2.153566e-40   0.000000e+00   0.000000e+00
     1720000   1.719999e-05   3.362836e+00   1.849500e+01   3.990889e+01   1.896997e+05   2.917523e+05   1.125308e+06  -2.208763e+00   1.436156e+00   1.027437e-21   1.177889e+06   2.319855e-41   0.000000e+00   0.000000e+00
     1728000   1.727999e-05   3.378012e+00   1.851834e+01   3.999891e+01   1.896997e+05   2.917523e+05   1.125308e+06  -1.250028e+01   8.127781e+00  -1.121823e-20   1.177889e+06   7.429220e-40   0.000000e+00   0.000000e+00
     1736000   1.735999e-05   3.393188e+00   1.854168e+01   4.008894e+01   1.896997e+05   2.917523e+05   1.125308e+06  -1.397048e+01   9.083721e+00   1.734474e-20   1.177889e+06   9.280154e-40   0.000000e+00   0.000000e+00
     1744000   1.743999e-05   3.408364e+00   1.856502e+01   4.017896e+01   1.896997e+05   2.917523e+05   1.125308e+06  -1.503410e+01   9.775296e+00  -5.259880e-22   1.177889e+06   1.074635e-39   0.000000e+00   0.000000e+00
     1752000   1.751999e-05   3.423540e+00   1.858836e+01   4.026899e+01   1.896997e+05   2.917523e+05   1.125308e+06  -8.327417e+00   5.414554e+00   4.223976e-22   1.177889e+06   3.297637e-40   0.000000e+00   0.000000e+00
     1760000   1.759999e-05   3.438716e+00   1.861170e+01   4.035901e+01   1.896997e+05   2.917523e+05   1.125308e+06  -8.338075e+00   5.421484e+00  -2.768306e-21   1.177889e+06   3.306167e-40   0.000000e+00   0.000000e+00
     1768000   1.767999e-05   3.453892e+00   1.863504e+01   4.044904e+01   1.896997e+05   2.917523e+05   1.125308e+06  -1.103176e+01   7.172938e+00   2.260768e-21   1.177889e+06   5.786215e-40   0.000000e+00   0.000000e+00
     1776000   1.775999e-05   3.469068e+00   1.865838e+01   4.053906e+01   1.896997e+05   2.917523e+05   1.125308e+06  -6.035782e+00   3.924514e+00   3.148585e-21   1.177889e+06   1.732535e-40   0.000000e+00   0.000000e+00
     1784000   1.783999e-05   3.484244e+00   1.868172e+01   4.062909e+01   1.896997e+05   2.917523e+05   1.125308e+06  -1.098925e+01   7.145301e+00  -6.963144e-22   1.177889e+06   5.741711e-40   0.000000e+00   0.000000e+00
     1792000   1.791999e-05   3.499420e+00   1.870506e+01   4.071911e+01   1.896997e+05   2.917523e+05   1.125308e+06  -1.035950e+01   6.735833e+00   1.404749e-22   1.177889e+06   5.102623e-40   0.000000e+00   0.000000e+00
     1800000   1.799999e-05   3.514596e+00   1.872840e+01   4.080914e+01   1.896997e+05   2.917523e+05   1.125308e+06  -1.233570e+01   8.020769e+00   4.148487e-21   1.177889e+06   7.235395e-40   0.000000e+00   0.000000e+00
     1808000   1.807999e-05   3.529772e+00   1.875174e+01   4.089916e+01   1.896997e+05   2.917523e+05   1.125308e+06  -1.250997e+01   8.134084e+00  -4.177047e-21   1.177889e+06   7.441277e-40   0.000000e+00   0.000000e+00
     1816000   1.815999e-05   3.544948e+00   1.877508e+01   4.098919e+01   1.896997e+05   2.917523e+05   1.125308e+06  -1.358527e+01   8.833251e+00   3.336207e-22   1.177889e+06   8.775221e-40   0.000000e+00   0.000000e+00
     1824000   1.823999e-05   3.560124e+00   1.879842e+01   4.107921e+01   1.896997e+05   2.917523e+05   1.125308e+06  -1.509682e+01   9.816071e+00  -6.141342e-21   1.177889e+06   1.083692e-39   0.000000e+00   0.000000e+00
     1832000   1.831999e-05   3.575300e+00   1.882176e+01   4.116923e+01   1.896997e+05   2.917523e+05   1.125308e+06  -1.639542e+01   1.066043e+01  -1.067820e-20   1.177889e+06   1.278111e-39   0.000000e+00   0.000000e+00
     1840000   1.839999e-05   3.590476e+00   1.884510e+01   4.125926e+01   1.896997e+05   2.917523e+05   1.125308e+06  -1.455763e+01   9.465489e+00   1.767391e-21   1.177889e+06   1.007712e-39   0.000000e+00   0.000000e+00
     1848000   1.847999e-05   3.605652e+00   1.886844e+01   4.134928e+01   1.896997e+05   2.917523e+05   1.125308e+06  -1.603509e+01   1.042614e+01   7.494402e-21   1.177889e+06   1.222582e-39   0.000000e+00   0.000000e+00
     1856000   1.855999e-05   3.620828e+00   1.889178e+01   4.143931e+01   1.896997e+05   2.917523e+05   1.125308e+06  -9.205604e+00   5.985558e+00  -1.666626e-22   1.177889e+06   4.029890e-40   0.000000e+00   0.000000e+00
     1864000   1.863999e-05   3.636004e+00   1.891512e+01   4.152933e+01   1.896997e+05   2.917523e+05   1.125308e+06  -1.332530e+01   8.664219e+00  -1.050838e-20   1.177889e+06   8.443577e-40   0.000000e+00   0.000000e+00
     1872000   1.871999e-05   3.651180e+00   1.893846e+01   4.161936e+01   1.896997e+05   2.917523e+05   1.125308e+06  -1.607908e+01   1.045475e+01   1.217549e-20   1.177889e+06   1.229219e-39   0.000000e+00   0.000000e+00
     1880000   1.879999e-05   3.666356e+00   1.896181e+01   4.170938e+01   1.896997e+05   2.917523e+05   1.125308e+06  -1.164427e+01   7.571197e+00  -1.613383e-21   1.177889e+06   6.447657e-40   0.000000e+00   0.000000e+00
     1888000   1.887999e-05   3.681531e+00   1.898515e+01   4.179941e+01   1.896997e+05   2.917523e+05   1.125308e+06  -7.234619e+00   4.704007e+00  -2.323141e-21   1.177889e+06   2.489052e-40   0.000000e+00   0.000000e+00
     1896000   1.895999e-05   3.696707e+00   1.900849e+01   4.188943e+01   1.896997e+05   2.917523e+05   1.125308e+06  -1.533776e+01   9.972737e+00  -4.716503e-21   1.177889e+06   1.118566e-39   0.000000e+00   0.000000e+00
     1904000   1.903999e-05   3.711883e+00   1.903183e+01   4.197946e+01   1.896997e+05   2.917523e+05   1.125308e+06  -1.591243e+01   1.034639e+01   4.527538e-21   1.177889e+06   1.203964e-39   0.000000e+00   0.000000e+00
     1912000   1.911999e-05   3.727059e+00   1.905517e+01   4.206948e+01   1.896997e+05   2.917523e+05   1.125308e+06  -1.628465e+01   1.058841e+01   8.684480e-22   1.177889e+06   1.260947e-39   0.000000e+00   0.000000e+00
     1920000   1.919999e-05   3.742235e+00   1.907851e+01   4.215951e+01   1.896997e+05   2.917523e+05   1.125308e+06  -1.432262e+01   9.312681e+00   5.467042e-21   1.177889e+06   9.754064e-40   0.000000e+00   0.000000e+00
     1928000   1.927999e-05   3.757411e+00   1.910185e+01   4.224953e+01   1.896997e+05   2.917523e+05   1.125308e+06  -1.019449e+01   6.628541e+00   7.021098e-21   1.177889e+06   4.942372e-40   0.000000e+00   0.000000e+00
     1936000   1.935999e-05   3.772587e+00   1.912519e+01   4.233955e+01   1.896997e+05   2.917523e+05   1.125308e+06  -1.279050e+01   8.316485e+00   5.246406e-21   1.177889e+06   7.778346e-40   0.000000e+00   0.000000e+00
     1944000   1.943999e-05   3.787763e+00   1.914853e+01   4.242958e+01   1.896997e+05   2.917523e+05   1.125308e+06  -4.897856e+00   3.184626e+00   3.010812e-21   1.177889e+06   1.141011e-40   0.000000e+00   0.000000e+00
     1952000   1.951999e-05   3.802939e+00   1.917187e+01   4.251960e+01   1.896997e+05   2.917523e+05   1.125308e+06  -1.783121e+01   1.159400e+01  -9.544550e-22   1.177889e+06   1.511807e-39   0.000000e+00   0.000000e+00
     1960000   1.959999e-05   3.818115e+00   1.919521e+01   4.260963e+01   1.896997e+05   2.917523e+05   1.125308e+06  -1.855965e+01   1.206763e+01   2.172562e-21   1.177889e+06   1.637760e-39   0.000000e+00   0.000000e+00
     1968000   1.967999e-05   3.833291e+00   1.921855e+01   4.269965e+01   1.896997e+05   2.917523e+05   1.125308e+06  -1.967663e+01   1.279390e+01   4.231746e-21   1.177889e+06   1.840902e-39   0.000000e+00   0.000000e+00
     1976000   1.975999e-05   3.848467e+00   1.924189e+01   4.278968e+01   1.896997e+05   2.917523e+05   1.125308e+06  -1.234122e+01   8.024360e+00   5.852100e-21   1.177889e+06   7.242626e-40   0.000000e+00   0.000000e+00
     1984000   1.983999e-05   3.863643e+00   1.926523e+01   4.287970e+01   1.896997e+05   2.917523e+05   1.125308e+06  -1.738893e+01   1.130642e+01   8.789361e-21   1.177889e+06   1.437718e-39   0.000000e+00   0.000000e+00
     1992000   1.991999e-05   3.878819e+00   1.928857e+01   4.296973e+01   1.896997e+05   2.917523e+05   1.125308e+06  -7.405303e+00   4.814988e+00  -3.636696e-21   1.177889e+06   2.607922e-40   0.000000e+00   0.000000e+00
     2000000   1.999999e-05   3.893995e+00   1.931191e+01   4.305975e+01   1.896997e+05   2.917523e+05   1.125308e+06  -7.945268e+00   5.166077e+00  -2.274427e-21   1.177889e+06   3.001990e-40   0.000000e+00   0.000000e+00
     2008000   2.007999e-05   3.909171e+00   1.933525e+01   4.314978e+01   1.896997e+05   2.917523e+05   1.125308e+06  -1.147975e+01   7.464224e+00  -3.586134e-21   1.177889e+06   6.265121e-40   0.000000e+00   0.000000e+00
     2016000   2.015999e-05   3.924347e+00   1.935859e+01   4.323980e+01   1.896997e+05   2.917523e+05   1.125308e+06  -1.296151e+01   8.427680e+00   6.308738e-22   1.177889e+06   7.988410e-40   0.000000e+00   0.000000e+00
     2024000   2.023999e-05   3.939523e+00   1.938193e+01   4.332983e+01   1.896997e+05   2.917523e+05   1.125308e+06  -1.805754e+01   1.174116e+01  -3.811975e-21   1.177889e+06   1.550273e-39   0.000000e+00   0.000000e+00
     2032000   2.031999e-05   3.954699e+00   1.940527e+01   4.341985e+01   1.896997e+05   2.917523e+05   1.125308e+06  -1.527151e+01   9.929659e+00  -6.750841e-21   1.177889e+06   1.108979e-39   0.000000e+00   0.000000e+00
     2040000   2.039999e-05   3.969875e+00   1.942861e+01   4.350987e+01   1.896997e+05   2.917523e+05   1.125308e+06  -2.125128e+01   1.381775e+01  -1.312761e-20   1.177889e+06   2.147288e-39   0.000000e+00   0.000000e+00
     2048000   2.047999e-05   3.985051e+00   1.945195e+01   4.359990e+01   1.896997e+05   2.917523e+05   1.125308e+06  -2.441852e+01   1.587712e+01  -2.892177e-20   1.177889e+06   2.835053e-39   0.000000e+00   0.000000e+00
     2056000   2.055999e-05   4.000227e+00   1.947529e+01   4.368992e+01   1.896997e+05   2.917523e+05   1.125308e+06  -2.884329e+01   1.875414e+01  -1.785705e-20   1.177889e+06   3.955404e-39   0.000000e+00   0.000000e+00
     2064000   2.063999e-05   4.015403e+00   1.949863e+01   4.377995e+01   1.896997e+05   2.917523e+05   1.125308e+06  -9.955127e+00   6.472904e+00  -8.367527e-21   1.177889e+06   4.713371e-40   0.000000e+00   0.000000e+00
     2072000   2.071999e-05   4.030579e+00   1.952197e+01   4.386997e+01   1.896997e+05   2.917523e+05   1.125308e+06  -1.553724e+01   1.010244e+01   9.731819e-21   1.177889e+06   1.148007e-39   0.000000e+00   0.000000e+00
     2080000   2.079999e-05   4.045755e+00   1.954531e+01   4.396000e+01   1.896997e+05   2.917523e+05   1.125308e+06  -1.900281e+01   1.235578e+01  -2.010137e-21   1.177889e+06   1.716875e-39   0.000000e+00   0.000000e+00
     2088000   2.087999e-05   4.060931e+00   1.956865e+01   4.405002e+01   1.896997e+05   2.917523e+05   1.125308e+06  -1.162410e+01   7.558083e+00  -1.566121e-21   1.177889e+06   6.425927e-40   0.000000e+00   0.000000e+00
     2096000   2.095999e-05   4.076107e+00   1.959199e+01   4.414005e+01   1.896997e+05   2.917523e+05   1.125308e+06  -1.723959e+01   1.120932e+01  -6.122934e-21   1.177889e+06   1.413037e-39   0.000000e+00   0.000000e+00
     2104000   2.103999e-05   4.091283e+00   1.961533e+01   4.423007e+01   1.896997e+05   2.917523e+05   1.125308e+06  -1.255352e+01   8.162401e+00   1.176502e-20   1.177889e+06   7.492390e-40   0.000000e+00   0.000000e+00
     2112000   2.111999e-05   4.106459e+00   1.963867e+01   4.432010e+01   1.896997e+05   2.917523e+05   1.125308e+06  -1.634330e+01   1.062655e+01   2.928803e-22   1.177889e+06   1.270134e-39   0.000000e+00   0.000000e+00
     2120000   2.119999e-05   4.121635e+00   1.966201e+01   4.441012e+01   1.896997e+05   2.917523e+05   1.125308e+06  -1.850722e+01   1.203355e+01   8.820414e-21   1.177889e+06   1.628393e-39   0.000000e+00   0.000000e+00
     2128000   2.127999e-05   4.136811e+00   1.968535e+01   4.450015e+01   1.896997e+05   2.917523e+05   1.125308e+06  -2.012126e+01   1.308301e+01   2.858494e-21   1.177889e+06   1.925193e-39   0.000000e+00   0.000000e+00
     2136000   2.135999e-05   4.151987e+00   1.970869e+01   4.459017e+01   1.896997e+05   2.917523e+05   1.125308e+06  -1.940705e+01   1.261862e+01  -1.500497e-20   1.177889e+06   1.790847e-39   0.000000e+00   0.000000e+00
     2144000   2.143999e-05   4.167163e+00   1.973203e+01   4.468019e+01   1.896997e+05   2.917523e+05   1.125308e+06  -2.029365e+01   1.319509e+01  -4.024327e-21   1.177889e+06   1.958197e-39   0.000000e+00   0.000000e+00
     2152000   2.151999e-05   4.182339e+00   1.975537e+01   4.477022e+01   1.896997e+05   2.917523e+05   1.125308e+06  -1.885929e+01   1.226246e+01  -1.075114e-20   1.177889e+06   1.691180e-39   0.000000e+00   0.000000e+00
     2160000   2.159999e-05   4.197515e+00   1.977871e+01   4.486024e+01   1.896997e+05   2.917523e+05   1.125308e+06  -1.998204e+01   1.299248e+01   3.788227e-21   1.177889e+06   1.898522e-39   0.000000e+00   0.000000e+00
     2168000   2.167999e-05   4.212691e+00   1.980205e+01   4.495027e+01   1.896997e+05   2.917523e+05   1.125308e+06  -1.948577e+01   1.266981e+01   7.102513e-22   1.177889e+06   1.805337e-39   0.000000e+00   0.000000e+00
     2176000   2.175999e-05   4.227867e+00   1.982539e+01   4.504029e+01   1.896997e+05   2.917523e+05   1.125308e+06  -1.666119e+01   1.083324e+01   3.572437e-21   1.177889e+06   1.320018e-39   0.000000e+00   0.000000e+00
     2184000   2.183999e-05   4.243043e+00   1.984873e+01   4.513032e+01   1.896997e+05   2.917523e+05   1.125308e+06  -1.865653e+01   1.213063e+01  -2.944966e-21   1.177889e+06   1.654948e-39   0.000000e+00   0.000000e+00
     2192000   2.191999e-05   4.258219e+00   1.987207e+01   4.522034e+01   1.896997e+05   2.917523e+05   1.125308e+06  -1.267598e+01   8.242022e+00   8.672498e-21   1.177889e+06   7.640831e-40   0.000000e+00   0.000000e+00
     2200000   2.199999e-05   4.273395e+00   1.989541e+01   4.531037e+01   1.896997e+05   2.917523e+05   1.125308e+06  -1.782729e+01   1.159145e+01   2.732670e-21   1.177889e+06   1.511098e-39   0.000000e+00   0.000000e+00
     2208000   2.207999e-05   4.288571e+00   1.991875e+01   4.540039e+01   1.896997e+05   2.917523e+05   1.125308e+06  -1.986407e+01   1.291578e+01  -1.899196e-20   1.177889e+06   1.876053e-39   0.000000e+00   0.000000e+00
     2216000   2.215999e-05   4.303746e+00   1.994209e+01   4.549042e+01   1.896997e+05   2.917523e+05   1.125308e+06  -2.387284e+01   1.552231e+01   5.640739e-21   1.177889e+06   2.709750e-39   0.000000e+00   0.000000e+00
     2224000   2.223999e-05   4.318922e+00   1.996543e+01   4.558044e+01   1.896997e+05   2.917523e+05   1.125308e+06  -2.111020e+01   1.372602e+01   1.414578e-20   1.177889e+06   2.118960e-39   0.000000e+00   0.000000e+00
     2232000   2.231999e-05   4.334098e+00   1.998877e+01   4.567047e+01   1.896997e+05   2.917523e+05   1.125308e+06  -2.857477e+01   1.857955e+01  -3.446225e-21   1.177889e+06   3.882301e-39   0.000000e+00   0.000000e+00
     2240000   2.239999e-05   4.349274e+00   2.001211e+01   4.576049e+01   1.896997e+05   2.917523e+05   1.125308e+06  -2.308020e+01   1.500693e+01  -1.018372e-20   1.177889e+06   2.532824e-39   0.000000e+00   0.000000e+00
     2248000   2.247999e-05   4.364450e+00   2.003545e+01   4.585051e+01   1.896997e+05   2.917523e+05   1.125308e+06  -1.552505e+01   1.009451e+01   7.448794e-21   1.177889e+06   1.146202e-39   0.000000e+00   0.000000e+00
     2256000   2.255999e-05   4.379626e+00   2.005879e+01   4.594054e+01   1.896997e+05   2.917523e+05   1.125308e+06  -1.774058e+01   1.153507e+01  -5.688944e-21   1.177889e+06   1.496436e-39   0.000000e+00   0.000000e+00
     2264000   2.263999e-05   4.394802e+00   2.008213e+01   4.603056e+01   1.896997e+05   2.917523e+05   1.125308e+06  -8.696076e+00   5.654259e+00  -4.460988e-22   1.177889e+06   3.596560e-40   0.000000e+00   0.000000e+00
     2272000   2.271999e-05   4.409978e+00   2.010547e+01   4.612059e+01   1.896997e+05   2.917523e+05   1.125308e+06  -1.735515e+01   1.128446e+01   1.388285e-20   1.177889e+06   1.432256e-39   0.000000e+00   0.000000e+00
     2280000   2.279999e-05   4.425154e+00   2.012881e+01   4.621061e+01   1.896997e+05   2.917523e+05   1.125308e+06  -1.562583e+01   1.016004e+01   5.522613e-21   1.177889e+06   1.160808e-39   0.000000e+00   0.000000e+00
     2288000   2.287999e-05   4.440330e+00   2.015215e+01   4.630064e+01   1.896997e+05   2.917523e+05   1.125308e+06  -2.226200e+01   1.447493e+01   6.602612e-21   1.177889e+06   2.356601e-39   0.000000e+00   0.000000e+00
     2296000   2.295999e-05   4.455506e+00   2.017549e+01   4.639066e+01   1.896997e+05   2.917523e+05   1.125308e+06  -1.787413e+01   1.162190e+01  -1.538188e-20   1.177889e+06   1.519193e-39   0.000000e+00   0.000000e+00
     2304000   2.303999e-05   4.470682e+00   2.019883e+01   4.648069e+01   1.896997e+05   2.917523e+05   1.125308e+06  -2.893767e+01   1.881551e+01  -1.353668e-20   1.177889e+06   3.981344e-39   0.000000e+00   0.000000e+00
     2312000   2.311999e-05   4.485858e+00   2.022218e+01   4.657071e+01   1.896997e+05   2.917523e+05   1.125308e+06  -2.319814e+01   1.508362e+01  -4.331927e-21   1.177889e+06   2.558766e-39   0.000000e+00   0.000000e+00
     2320000   2.319999e-05   4.501034e+00   2.024552e+01   4.666074e+01   1.896997e+05   2.917523e+05   1.125308e+06  -1.979479e+01   1.287073e+01  -1.953766e-20   1.177889e+06   1.863149e-39   0.000000e+00   0.000000e+00
     2328000   2.327999e-05   4.516210e+00   2.026886e+01   4.675076e+01   1.896997e+05   2.917523e+05   1.125308e+06  -1.957444e+01   1.272746e+01   6.044686e-21   1.177889e+06   1.821899e-39   0.000000e+00   0.000000e+00
     2336000   2.335999e-05   4.531386e+00   2.029220e+01   4.684079e+01   1.896997e+05   2.917523e+05   1.125308e+06  -1.574442e+01   1.023715e+01   5.365422e-21   1.177889e+06   1.178695e-39   0.000000e+00   0.000000e+00
     2344000   2.343999e-05   4.546562e+00   2.031554e+01   4.693081e+01   1.896997e+05   2.917523e+05   1.125308e+06  -2.056098e+01   1.336892e+01   1.249517e-20   1.177889e+06   2.010173e-39   0.000000e+00   0.000000e+00
     2352000   2.351999e-05   4.561738e+00   2.033888e+01   4.702083e+01   1.896997e+05   2.917523e+05   1.125308e+06  -2.119036e+01   1.377815e+01  -2.059240e-21   1.177889e+06   2.134968e-39   0.000000e+00   0.000000e+00
     2360000   2.359999e-05   4.576914e+00   2.036222e+01   4.711086e+01   1.896997e+05   2.917523e+05   1.125308e+06  -2.299419e+01   1.495101e+01  -1.170436e-21   1.177889e+06   2.514091e-39   0.000000e+00   0.000000e+00
     2368000   2.367999e-05   4.592090e+00   2.038556e+01   4.720088e+01   1.896997e+05   2.917523e+05   1.125308e+06  -2.379036e+01   1.546868e+01   3.393622e-21   1.177889e+06   2.691033e-39   0.000000e+00   0.000000e+00
     2376000   2.375999e-05   4.607266e+00   2.040890e+01   4.729091e+01   1.896997e+05   2.917523e+05   1.125308e+06  -2.788636e+01   1.813194e+01   5.952111e-21   1.177889e+06   3.697818e-39   0.000000e+00   0.000000e+00
     2384000   2.383999e-05   4.622442e+00   2.043224e+01   4.738093e+01   1.896997e+05   2.917523e+05   1.125308e+06  -2.662633e+01   1.731266e+01   1.123476e-20   1.177889e+06   3.371072e-39   0.000000e+00   0.000000e+00
     2392000   2.391999e-05   4.637618e+00   2.045558e+01   4.747096e+01   1.896997e+05   2.917523e+05   1.125308e+06  -1.673213e+01   1.087937e+01   1.086212e-20   1.177889e+06   1.331316e-39   0.000000e+00   0.000000e+00
     2400000   2.399999e-05   4.652794e+00   2.047892e+01   4.756098e+01   1.896997e+05   2.917523e+05   1.125308e+06  -2.040541e+01   1.326777e+01   1.142984e-20   1.177889e+06   1.979880e-39   0.000000e+00   0.000000e+00
     2408000   2.407999e-05   4.667970e+00   2.050226e+01   4.765101e+01   1.896997e+05   2.917523e+05   1.125308e+06  -2.645405e+01   1.720064e+01  -4.515814e-21   1.177889e+06   3.327201e-39   0.000000e+00   0.000000e+00
     2416000   2.415999e-05   4.683146e+00   2.052560e+01   4.774103e+01   1.896997e+05   2.917523e+05   1.125308e+06  -1.745506e+01   1.134942e+01  -8.521492e-21   1.177889e+06   1.448859e-39   0.000000e+00   0.000000e+00
     2424000   2.423999e-05   4.698322e+00   2.054894e+01   4.783106e+01   1.896997e+05   2.917523e+05   1.125308e+06  -3.201162e+01   2.081421e+01  -7.226975e-22   1.177889e+06   4.872111e-39   0.000000e+00   0.000000e+00
     2432000   2.431999e-05   4.713498e+00   2.057228e+01   4.792108e+01   1.896997e+05   2.917523e+05   1.125308e+06  -2.768996e+01   1.800424e+01  -8.657698e-21   1.177889e+06   3.645474e-39   0.000000e+00   0.000000e+00
     2440000   2.439999e-05   4.728674e+00   2.059562e+01   4.801111e+01   1.896997e+05   2.917523e+05   1.125308e+06  -2.988697e+01   1.943275e+01   4.426423e-22   1.177889e+06   4.247291e-39   0.000000e+00   0.000000e+00
     2448000   2.447999e-05   4.743850e+00   2.061896e+01   4.810113e+01   1.896997e+05   2.917523e+05   1.125308e+06  -2.625961e+01   1.707421e+01  -7.010476e-21   1.177889e+06   3.278746e-39   0.000000e+00   0.000000e+00
     2456000   2.455999e-05   4.759026e+00   2.064230e+01   4.819115e+01   1.896997e+05   2.917523e+05   1.125308e+06  -2.750560e+01   1.788436e+01   8.570867e-21   1.177889e+06   3.597277e-39   0.000000e+00   0.000000e+00
     2464000   2.463999e-05   4.774202e+00   2.066564e+01   4.828118e+01   1.896997e+05   2.917523e+05   1.125308e+06  -1.790425e+01   1.164149e+01  -6.339475e-21   1.177889e+06   1.524323e-39   0.000000e+00   0.000000e+00
     2472000   2.471999e-05   4.789378e+00   2.068898e+01   4.837120e+01   1.896997e+05   2.917523e+05   1.125308e+06  -2.564056e+01   1.667170e+01  -3.789949e-22   1.177889e+06   3.125980e-39   0.000000e+00   0.000000e+00
     2480000   2.479999e-05   4.804554e+00   2.071232e+01   4.846123e+01   1.896997e+05   2.917523e+05   1.125308e+06  -2.319815e+01   1.508363e+01  -1.285574e-21   1.177889e+06   2.558910e-39   0.000000e+00   0.000000e+00
     2488000   2.487999e-05   4.819730e+00   2.073566e+01   4.855125e+01   1.896997e+05   2.917523e+05   1.125308e+06  -2.708480e+01   1.761075e+01   9.413544e-21   1.177889e+06   3.487895e-39   0.000000e+00   0.000000e+00
     2496000   2.495999e-05   4.834906e+00   2.075900e+01   4.864128e+01   1.896997e+05   2.917523e+05   1.125308e+06  -2.566631e+01   1.668844e+01  -2.667487e-20   1.177889e+06   3.132377e-39   0.000000e+00   0.000000e+00
     2504000   2.503999e-05   4.850082e+00   2.078234e+01   4.873130e+01   1.896997e+05   2.917523e+05   1.125308e+06  -3.160050e+01   2.054690e+01  -1.161250e-22   1.177889e+06   4.747924e-39   0.000000e+00   0.000000e+00
     2512000   2.511999e-05   4.865258e+00   2.080568e+01   4.882133e+01   1.896997e+05   2.917523e+05   1.125308e+06  -2.493563e+01   1.621335e+01   3.703197e-21   1.177889e+06   2.956476e-39   0.000000e+00   0.000000e+00
     2520000   2.519999e-05   4.880434e+00   2.082902e+01   4.891135e+01   1.896997e+05   2.917523e+05   1.125308e+06  -2.030656e+01   1.320349e+01  -9.185237e-21   1.177889e+06   1.960770e-39   0.000000e+00   0.000000e+00
     2528000   2.527999e-05   4.895610e+00   2.085236e+01   4.900138e+01   1.896997e+05   2.917523e+05   1.125308e+06  -2.445906e+01   1.590348e+01  -8.779824e-22   1.177889e+06   2.844547e-39   0.000000e+00   0.000000e+00
     2536000   2.535999e-05   4.910786e+00   2.087570e+01   4.909140e+01   1.896997e+05   2.917523e+05   1.125308e+06  -2.556470e+01   1.662237e+01  -1.748528e-20   1.177889e+06   3.107553e-39   0.000000e+00   0.000000e+00
     2544000   2.543999e-05   4.925961e+00   2.089904e+01   4.918143e+01   1.896997e+05   2.917523e+05   1.125308e+06  -3.594820e+01   2.337381e+01  -7.592969e-21   1.177889e+06   6.144292e-39   0.000000e+00   0.000000e+00
     2552000   2.551999e-05   4.941137e+00   2.092238e+01   4.927145e+01   1.896997e+05   2.917523e+05   1.125308e+06  -2.905778e+01   1.889360e+01  -1.500837e-20   1.177889e+06   4.014747e-39   0.000000e+00   0.000000e+00
     2560000   2.559999e-05   4.956313e+00   2.094572e+01   4.936147e+01   1.896997e+05   2.917523e+05   1.125308e+06  -2.100831e+01   1.365977e+01  -1.321521e-20   1.177889e+06   2.098721e-39   0.000000e+00   0.000000e+00
     2568000   2.567999e-05   4.971489e+00   2.096906e+01   4.945150e+01   1.896997e+05   2.917523e+05   1.125308e+06  -2.423880e+01   1.576026e+01  -3.511657e-21   1.177889e+06   2.793539e-39   0.000000e+00   0.000000e+00
     2576000   2.575999e-05   4.986665e+00   2.099240e+01   4.954152e+01   1.896997e+05   2.917523e+05   1.125308e+06  -1.360533e+01   8.846293e+00   1.357948e-21   1.177889e+06   8.802578e-40   0.000000e+00   0.000000e+00
     2584000   2.583999e-05   5.001841e+00   2.101574e+01   4.963155e+01   1.897000e+05   2.917508e+05   1.125308e+06   1.557192e+07  -7.958839e+07   1.800928e+07   1.177889e+06   2.304715e-26   0.000000e+00   0.000000e+00
     2592000   2.591999e-05   5.017017e+00   2.103908e+01   4.972157e+01   1.897026e+05   2.917375e+05   1.125311e+06   3.396574e+07  -1.742350e+08   3.944465e+07   1.177889e+06   1.105081e-25   0.000000e+00   0.000000e+00
     2600000   2.599999e-05   5.032194e+00   2.106242e+01   4.981160e+01   1.897055e+05   2.917224e+05   1.125315e+06   4.579952e+07  -2.375867e+08   5.387021e+07   1.177889e+06   2.054155e-25   0.000000e+00   0.000000e+00
     2608000   2.607999e-05   5.047370e+00   2.108576e+01   4.990162e+01   1.897070e+05   2.917147e+05   1.125316e+06   0.000000e+00   0.000000e+00   0.000000e+00   1.177889e+06   0.000000e+00   0.000000e+00   0.000000e+00
     2616000   2.615999e-05   5.062547e+00   2.110909e+01   4.999165e+01   1.897070e+05   2.917147e+05   1.125316e+06   0.000000e+00   0.000000e+00   0.000000e+00   1.177889e+06   0.000000e+00   0.000000e+00   0.000000e+00
