     timestep     time              x             y              z              vx             vy             vz             ax             ay             az         v_magnitude      ELoss        Electronic      Nuclear
           0   0.000000e+00   1.000000e-01   1.989046e+01   1.352355e+01   5.825811e+05   1.355910e+06   3.848744e+05   0.000000e+00   0.000000e+00   0.000000e+00   1.525130e+06   0.000000e+00   0.000000e+00   0.000000e+00
        8000   7.999000e-08   1.466065e-01   1.999893e+01   1.355434e+01   5.825811e+05   1.355910e+06   3.848744e+05   0.000000e+00   0.000000e+00   0.000000e+00   1.525130e+06   0.000000e+00   0.000000e+00   0.000000e+00
       16000   1.599900e-07   1.932130e-01   2.010740e+01   1.358513e+01   5.825811e+05   1.355910e+06   3.848744e+05   0.000000e+00   0.000000e+00   0.000000e+00   1.525130e+06   0.000000e+00   0.000000e+00   0.000000e+00
       24000   2.399900e-07   2.398195e-01   2.021587e+01   1.361592e+01   5.825811e+05   1.355910e+06   3.848744e+05   0.000000e+00   0.000000e+00   0.000000e+00   1.525130e+06   0.000000e+00   0.000000e+00   0.000000e+00
       32000   3.199900e-07   2.864259e-01   2.032435e+01   1.364671e+01   5.825811e+05   1.355910e+06   3.848744e+05   0.000000e+00   0.000000e+00   0.000000e+00   1.525130e+06   0.000000e+00   0.000000e+00   0.000000e+00
       40000   3.999900e-07   3.330324e-01   2.043282e+01   1.367750e+01   5.825811e+05   1.355910e+06   3.848744e+05   0.000000e+00   0.000000e+00   0.000000e+00   1.525130e+06   0.000000e+00   0.000000e+00   0.000000e+00
       48000   4.799900e-07   3.796389e-01   2.054129e+01   1.370829e+01   5.825811e+05   1.355910e+06   3.848744e+05   0.000000e+00   0.000000e+00   0.000000e+00   1.525130e+06   0.000000e+00   0.000000e+00   0.000000e+00
       56000   5.599900e-07   4.262454e-01   2.064977e+01   1.373908e+01   5.825811e+05   1.355910e+06   3.848744e+05   0.000000e+00   0.000000e+00   0.000000e+00   1.525130e+06   0.000000e+00   0.000000e+00   0.000000e+00
       64000   6.399900e-07   4.728519e-01   2.075824e+01   1.376987e+01   5.825811e+05   1.355910e+06   3.848744e+05   0.000000e+00   0.000000e+00   0.000000e+00   1.525130e+06   0.000000e+00   0.000000e+00   0.000000e+00
       72000   7.199900e-07   5.194584e-01   2.086671e+01   1.380066e+01   5.825811e+05   1.355910e+06   3.848744e+05   0.000000e+00   0.000000e+00   0.000000e+00   1.525130e+06   0.000000e+00   0.000000e+00   0.000000e+00
       80000   7.999900e-07   5.660649e-01   2.097518e+01   1.383145e+01   5.825811e+05   1.355910e+06   3.848744e+05   0.000000e+00   0.000000e+00   0.000000e+00   1.525130e+06   0.000000e+00   0.000000e+00   0.000000e+00
       88000   8.799900e-07   6.126714e-01   2.108366e+01   1.386224e+01   5.825811e+05   1.355910e+06   3.848744e+05   0.000000e+00   0.000000e+00   0.000000e+00   1.525130e+06   0.000000e+00   0.000000e+00   0.000000e+00
       96000   9.599900e-07   6.592778e-01   2.119213e+01   1.389303e+01   5.825811e+05   1.355910e+06   3.848744e+05   0.000000e+00   0.000000e+00   0.000000e+00   1.525130e+06   0.000000e+00   0.000000e+00   0.000000e+00
      104000   1.039990e-06   7.058843e-01   2.130060e+01   1.392382e+01   5.825811e+05   1.355910e+06   3.848744e+05   0.000000e+00   0.000000e+00   0.000000e+00   1.525130e+06   0.000000e+00   0.000000e+00   0.000000e+00
      112000   1.119990e-06   7.524908e-01   2.140907e+01   1.395461e+01   5.825811e+05   1.355910e+06   3.848744e+05   0.000000e+00   0.000000e+00   0.000000e+00   1.525130e+06   0.000000e+00   0.000000e+00   0.000000e+00
      120000   1.199990e-06   7.990973e-01   2.151755e+01   1.398540e+01   5.825811e+05   1.355910e+06   3.848744e+05   0.000000e+00   0.000000e+00   0.000000e+00   1.525130e+06   0.000000e+00   0.000000e+00   0.000000e+00
      128000   1.279990e-06   8.457038e-01   2.162602e+01   1.401619e+01   5.825811e+05   1.355910e+06   3.848744e+05   0.000000e+00   0.000000e+00   0.000000e+00   1.525130e+06   0.000000e+00   0.000000e+00   0.000000e+00
      136000   1.359990e-06   8.923103e-01   2.173449e+01   1.404698e+01   5.825811e+05   1.355910e+06   3.848744e+05   0.000000e+00   0.000000e+00   0.000000e+00   1.525130e+06   0.000000e+00   0.000000e+00   0.000000e+00
      144000   1.439990e-06   9.389168e-01   2.184297e+01   1.407777e+01   5.825811e+05   1.355910e+06   3.848744e+05   0.000000e+00   0.000000e+00   0.000000e+00   1.525130e+06   0.000000e+00   0.000000e+00   0.000000e+00
      152000   1.519990e-06   9.855233e-01   2.195144e+01   1.410856e+01   5.825811e+05   1.355910e+06   3.848744e+05   0.000000e+00   0.000000e+00   0.000000e+00   1.525130e+06   0.000000e+00   0.000000e+00   0.000000e+00
      160000   1.599990e-06   1.032130e+00   2.205991e+01   1.413935e+01   5.825811e+05   1.355910e+06   3.848744e+05   0.000000e+00   0.000000e+00   0.000000e+00   1.525130e+06   0.000000e+00   0.000000e+00   0.000000e+00
      168000   1.679990e-06   1.078736e+00   2.216838e+01   1.417014e+01   5.825811e+05   1.355910e+06   3.848744e+05   0.000000e+00   0.000000e+00   0.000000e+00   1.525130e+06   0.000000e+00   0.000000e+00   0.000000e+00
      176000   1.759990e-06   1.125343e+00   2.227686e+01   1.420093e+01   5.825811e+05   1.355910e+06   3.848744e+05   0.000000e+00   0.000000e+00   0.000000e+00   1.525130e+06   0.000000e+00   0.000000e+00   0.000000e+00
      184000   1.839990e-06   1.171949e+00   2.238533e+01   1.423172e+01   5.825811e+05   1.355910e+06   3.848744e+05   0.000000e+00   0.000000e+00   0.000000e+00   1.525130e+06   0.000000e+00   0.000000e+00   0.000000e+00
      192000   1.919990e-06   1.218556e+00   2.249380e+01   1.426251e+01   5.825811e+05   1.355910e+06   3.848744e+05   0.000000e+00   0.000000e+00   0.000000e+00   1.525130e+06   0.000000e+00   0.000000e+00   0.000000e+00
      200000   1.999990e-06   1.265162e+00   2.260228e+01   1.429330e+01   5.825811e+05   1.355910e+06   3.848744e+05   0.000000e+00   0.000000e+00   0.000000e+00   1.525130e+06   0.000000e+00   0.000000e+00   0.000000e+00
      208000   2.079990e-06   1.311769e+00   2.271075e+01   1.432409e+01   5.825811e+05   1.355910e+06   3.848744e+05   0.000000e+00   0.000000e+00   0.000000e+00   1.525130e+06   0.000000e+00   0.000000e+00   0.000000e+00
      216000   2.159990e-06   1.358375e+00   2.281922e+01   1.435488e+01   5.825811e+05   1.355910e+06   3.848744e+05   0.000000e+00   0.000000e+00   0.000000e+00   1.525130e+06   0.000000e+00   0.000000e+00   0.000000e+00
      224000   2.239990e-06   1.404982e+00   2.292769e+01   1.438567e+01   5.825811e+05   1.355910e+06   3.848744e+05   0.000000e+00   0.000000e+00   0.000000e+00   1.525130e+06   0.000000e+00   0.000000e+00   0.000000e+00
      232000   2.319990e-06   1.451588e+00   2.303617e+01   1.441646e+01   5.825811e+05   1.355910e+06   3.848744e+05   0.000000e+00   0.000000e+00   0.000000e+00   1.525130e+06   0.000000e+00   0.000000e+00   0.000000e+00
      240000   2.399990e-06   1.498195e+00   2.314464e+01   1.444725e+01   5.825811e+05   1.355910e+06   3.848744e+05   0.000000e+00   0.000000e+00   0.000000e+00   1.525130e+06   0.000000e+00   0.000000e+00   0.000000e+00
      248000   2.479990e-06   1.544801e+00   2.325311e+01   1.447804e+01   5.825811e+05   1.355910e+06   3.848744e+05   0.000000e+00   0.000000e+00   0.000000e+00   1.525130e+06   0.000000e+00   0.000000e+00   0.000000e+00
      256000   2.559990e-06   1.591408e+00   2.336158e+01   1.450883e+01   5.825811e+05   1.355910e+06   3.848744e+05   0.000000e+00   0.000000e+00   0.000000e+00   1.525130e+06   0.000000e+00   0.000000e+00   0.000000e+00
      264000   2.639990e-06   1.638014e+00   2.347006e+01   1.453962e+01   5.825811e+05   1.355910e+06   3.848744e+05   0.000000e+00   0.000000e+00   0.000000e+00   1.525130e+06   0.000000e+00   0.000000e+00   0.000000e+00
      272000   2.719990e-06   1.684621e+00   2.357853e+01   1.457041e+01   5.825811e+05   1.355910e+06   3.848744e+05   0.000000e+00   0.000000e+00   0.000000e+00   1.525130e+06   0.000000e+00   0.000000e+00   0.000000e+00
      280000   2.799990e-06   1.731227e+00   2.368700e+01   1.460120e+01   5.825811e+05   1.355910e+06   3.848744e+05   0.000000e+00   0.000000e+00   0.000000e+00   1.525130e+06   0.000000e+00   0.000000e+00   0.000000e+00
      288000   2.879990e-06   1.777834e+00   2.379548e+01   1.463199e+01   5.825811e+05   1.355910e+06   3.848744e+05   0.000000e+00   0.000000e+00   0.000000e+00   1.525130e+06   0.000000e+00   0.000000e+00   0.000000e+00
      296000   2.959990e-06   1.824440e+00   2.390395e+01   1.466278e+01   5.825811e+05   1.355910e+06   3.848744e+05   0.000000e+00   0.000000e+00   0.000000e+00   1.525130e+06   0.000000e+00   0.000000e+00   0.000000e+00
      304000   3.039990e-06   1.871047e+00   2.401242e+01   1.469357e+01   5.825811e+05   1.355910e+06   3.848744e+05   0.000000e+00   0.000000e+00   0.000000e+00   1.525130e+06   0.000000e+00   0.000000e+00   0.000000e+00
      312000   3.119990e-06   1.917653e+00   2.412089e+01   1.472436e+01   5.825811e+05   1.355910e+06   3.848744e+05   0.000000e+00   0.000000e+00   0.000000e+00   1.525130e+06   0.000000e+00   0.000000e+00   0.000000e+00
      320000   3.199990e-06   1.964259e+00   2.422937e+01   1.475515e+01   5.825811e+05   1.355910e+06   3.848744e+05   0.000000e+00   0.000000e+00   0.000000e+00   1.525130e+06   0.000000e+00   0.000000e+00   0.000000e+00
      328000   3.279990e-06   2.010866e+00   2.433784e+01   1.478594e+01   5.825811e+05   1.355910e+06   3.848744e+05   0.000000e+00   0.000000e+00   0.000000e+00   1.525130e+06   0.000000e+00   0.000000e+00   0.000000e+00
      336000   3.359990e-06   2.057472e+00   2.444631e+01   1.481673e+01   5.825811e+05   1.355910e+06   3.848744e+05   0.000000e+00   0.000000e+00   0.000000e+00   1.525130e+06   0.000000e+00   0.000000e+00   0.000000e+00
      344000   3.439990e-06   2.104079e+00   2.455479e+01   1.484752e+01   5.825811e+05   1.355910e+06   3.848744e+05   0.000000e+00   0.000000e+00   0.000000e+00   1.525130e+06   0.000000e+00   0.000000e+00   0.000000e+00
      352000   3.519990e-06   2.150685e+00   2.466326e+01   1.487831e+01   5.825811e+05   1.355910e+06   3.848744e+05   0.000000e+00   0.000000e+00   0.000000e+00   1.525130e+06   0.000000e+00   0.000000e+00   0.000000e+00
      360000   3.599990e-06   2.197292e+00   2.477173e+01   1.490910e+01   5.825811e+05   1.355910e+06   3.848744e+05   0.000000e+00   0.000000e+00   0.000000e+00   1.525130e+06   0.000000e+00   0.000000e+00   0.000000e+00
      368000   3.679990e-06   2.243898e+00   2.488020e+01   1.493989e+01   5.825811e+05   1.355910e+06   3.848744e+05   0.000000e+00   0.000000e+00   0.000000e+00   1.525130e+06   0.000000e+00   0.000000e+00   0.000000e+00
      376000   3.759990e-06   2.290505e+00   2.498868e+01   1.497068e+01   5.825811e+05   1.355910e+06   3.848744e+05   0.000000e+00   0.000000e+00   0.000000e+00   1.525130e+06   0.000000e+00   0.000000e+00   0.000000e+00
      384000   3.839990e-06   2.337111e+00   2.509715e+01   1.500147e+01   5.825811e+05   1.355910e+06   3.848744e+05   0.000000e+00   0.000000e+00   0.000000e+00   1.525130e+06   0.000000e+00   0.000000e+00   0.000000e+00
      392000   3.919990e-06   2.383718e+00   2.520562e+01   1.503226e+01   5.825811e+05   1.355910e+06   3.848744e+05   0.000000e+00   0.000000e+00   0.000000e+00   1.525130e+06   0.000000e+00   0.000000e+00   0.000000e+00
      400000   3.999990e-06   2.430324e+00   2.531409e+01   1.506305e+01   5.825811e+05   1.355910e+06   3.848744e+05   0.000000e+00   0.000000e+00   0.000000e+00   1.525130e+06   0.000000e+00   0.000000e+00   0.000000e+00
      408000   4.079990e-06   2.476931e+00   2.542257e+01   1.509384e+01   5.825811e+05   1.355910e+06   3.848744e+05   0.000000e+00   0.000000e+00   0.000000e+00   1.525130e+06   0.000000e+00   0.000000e+00   0.000000e+00
      416000   4.159990e-06   2.523537e+00   2.553104e+01   1.512463e+01   5.825811e+05   1.355910e+06   3.848744e+05   0.000000e+00   0.000000e+00   0.000000e+00   1.525130e+06   0.000000e+00   0.000000e+00   0.000000e+00
      424000   4.239990e-06   2.570144e+00   2.563951e+01   1.515542e+01   5.825811e+05   1.355910e+06   3.848744e+05   0.000000e+00   0.000000e+00   0.000000e+00   1.525130e+06   0.000000e+00   0.000000e+00   0.000000e+00
      432000   4.319990e-06   2.616750e+00   2.574799e+01   1.518621e+01   5.825811e+05   1.355910e+06   3.848744e+05   0.000000e+00   0.000000e+00   0.000000e+00   1.525130e+06   0.000000e+00   0.000000e+00   0.000000e+00
      440000   4.399990e-06   2.663357e+00   2.585646e+01   1.521700e+01   5.825811e+05   1.355910e+06   3.848744e+05   0.000000e+00   0.000000e+00   0.000000e+00   1.525130e+06   0.000000e+00   0.000000e+00   0.000000e+00
      448000   4.479990e-06   2.709963e+00   2.596493e+01   1.524779e+01   5.825811e+05   1.355910e+06   3.848744e+05   0.000000e+00   0.000000e+00   0.000000e+00   1.525130e+06   0.000000e+00   0.000000e+00   0.000000e+00
      456000   4.559990e-06   2.756570e+00   2.607340e+01   1.527858e+01   5.825811e+05   1.355910e+06   3.848744e+05   0.000000e+00   0.000000e+00   0.000000e+00   1.525130e+06   0.000000e+00   0.000000e+00   0.000000e+00
      464000   4.639990e-06   2.803176e+00   2.618188e+01   1.530937e+01   5.825811e+05   1.355910e+06   3.848744e+05   0.000000e+00   0.000000e+00   0.000000e+00   1.525130e+06   0.000000e+00   0.000000e+00   0.000000e+00
      472000   4.719990e-06   2.849783e+00   2.629035e+01   1.534016e+01   5.825811e+05   1.355910e+06   3.848744e+05   0.000000e+00   0.000000e+00   0.000000e+00   1.525130e+06   0.000000e+00   0.000000e+00   0.000000e+00
      480000   4.799990e-06   2.896389e+00   2.639882e+01   1.537095e+01   5.825811e+05   1.355910e+06   3.848744e+05   0.000000e+00   0.000000e+00   0.000000e+00   1.525130e+06   0.000000e+00   0.000000e+00   0.000000e+00
      488000   4.879990e-06   2.942996e+00   2.650730e+01   1.540174e+01   5.825811e+05   1.355910e+06   3.848744e+05   0.000000e+00   0.000000e+00   0.000000e+00   1.525130e+06   0.000000e+00   0.000000e+00   0.000000e+00
      496000   4.959990e-06   2.989602e+00   2.661577e+01   1.543253e+01   5.825811e+05   1.355910e+06   3.848744e+05   0.000000e+00   0.000000e+00   0.000000e+00   1.525130e+06   0.000000e+00   0.000000e+00   0.000000e+00
      504000   5.039990e-06   3.036209e+00   2.672424e+01   1.546332e+01   5.825811e+05   1.355910e+06   3.848744e+05   0.000000e+00   0.000000e+00   0.000000e+00   1.525130e+06   0.000000e+00   0.000000e+00   0.000000e+00
      512000   5.119990e-06   3.082815e+00   2.683271e+01   1.549411e+01   5.825811e+05   1.355910e+06   3.848744e+05   0.000000e+00   0.000000e+00   0.000000e+00   1.525130e+06   0.000000e+00   0.000000e+00   0.000000e+00
      520000   5.199990e-06   3.129422e+00   2.694119e+01   1.552490e+01   5.825811e+05   1.355910e+06   3.848744e+05   0.000000e+00   0.000000e+00   0.000000e+00   1.525130e+06   0.000000e+00   0.000000e+00   0.000000e+00
      528000   5.279990e-06   3.176028e+00   2.704966e+01   1.555569e+01   5.825811e+05   1.355910e+06   3.848744e+05   0.000000e+00   0.000000e+00   0.000000e+00   1.525130e+06   0.000000e+00   0.000000e+00   0.000000e+00
      536000   5.359990e-06   3.222635e+00   2.715813e+01   1.558648e+01   5.825811e+05   1.355910e+06   3.848744e+05   0.000000e+00   0.000000e+00   0.000000e+00   1.525130e+06   0.000000e+00   0.000000e+00   0.000000e+00
      544000   5.439990e-06   3.269241e+00   2.726660e+01   1.561727e+01   5.825811e+05   1.355910e+06   3.848744e+05   0.000000e+00   0.000000e+00   0.000000e+00   1.525130e+06   0.000000e+00   0.000000e+00   0.000000e+00
      552000   5.519990e-06   3.315848e+00   2.737508e+01   1.564806e+01   5.825811e+05   1.355910e+06   3.848744e+05   0.000000e+00   0.000000e+00   0.000000e+00   1.525130e+06   0.000000e+00   0.000000e+00   0.000000e+00
      560000   5.599990e-06   3.362454e+00   2.748355e+01   1.567885e+01   5.825811e+05   1.355910e+06   3.848744e+05   0.000000e+00   0.000000e+00   0.000000e+00   1.525130e+06   0.000000e+00   0.000000e+00   0.000000e+00
      568000   5.679990e-06   3.409061e+00   2.759202e+01   1.570964e+01   5.825811e+05   1.355910e+06   3.848744e+05   0.000000e+00   0.000000e+00   0.000000e+00   1.525130e+06   0.000000e+00   0.000000e+00   0.000000e+00
      576000   5.759990e-06   3.455667e+00   2.770050e+01   1.574043e+01   5.825811e+05   1.355910e+06   3.848744e+05   0.000000e+00   0.000000e+00   0.000000e+00   1.525130e+06   0.000000e+00   0.000000e+00   0.000000e+00
      584000   5.839990e-06   3.502274e+00   2.780897e+01   1.577122e+01   5.825811e+05   1.355910e+06   3.848744e+05   0.000000e+00   0.000000e+00   0.000000e+00   1.525130e+06   0.000000e+00   0.000000e+00   0.000000e+00
      592000   5.919990e-06   3.548880e+00   2.791744e+01   1.580201e+01   5.825811e+05   1.355910e+06   3.848744e+05   0.000000e+00   0.000000e+00   0.000000e+00   1.525130e+06   0.000000e+00   0.000000e+00   0.000000e+00
      600000   5.999990e-06   3.595487e+00   2.802591e+01   1.583280e+01   5.825811e+05   1.355910e+06   3.848744e+05   0.000000e+00   0.000000e+00   0.000000e+00   1.525130e+06   0.000000e+00   0.000000e+00   0.000000e+00
      608000   6.079990e-06   3.642093e+00   2.813439e+01   1.586359e+01   5.825811e+05   1.355910e+06   3.848744e+05   0.000000e+00   0.000000e+00   0.000000e+00   1.525130e+06   0.000000e+00   0.000000e+00   0.000000e+00
      616000   6.159990e-06   3.688699e+00   2.824286e+01   1.589438e+01   5.825811e+05   1.355910e+06   3.848744e+05   0.000000e+00   0.000000e+00   0.000000e+00   1.525130e+06   0.000000e+00   0.000000e+00   0.000000e+00
      624000   6.239990e-06   3.735306e+00   2.835133e+01   1.592517e+01   5.825811e+05   1.355910e+06   3.848744e+05   0.000000e+00   0.000000e+00   0.000000e+00   1.525130e+06   0.000000e+00   0.000000e+00   0.000000e+00
      632000   6.319990e-06   3.781912e+00   2.845980e+01   1.595596e+01   5.825811e+05   1.355910e+06   3.848744e+05   0.000000e+00   0.000000e+00   0.000000e+00   1.525130e+06   0.000000e+00   0.000000e+00   0.000000e+00
      640000   6.399990e-06   3.828519e+00   2.856828e+01   1.598675e+01   5.825811e+05   1.355910e+06   3.848744e+05   0.000000e+00   0.000000e+00   0.000000e+00   1.525130e+06   0.000000e+00   0.000000e+00   0.000000e+00
      648000   6.479990e-06   3.875125e+00   2.867675e+01   1.601754e+01   5.825811e+05   1.355910e+06   3.848744e+05   0.000000e+00   0.000000e+00   0.000000e+00   1.525130e+06   0.000000e+00   0.000000e+00   0.000000e+00
      656000   6.559990e-06   3.921732e+00   2.878522e+01   1.604833e+01   5.825811e+05   1.355910e+06   3.848744e+05   0.000000e+00   0.000000e+00   0.000000e+00   1.525130e+06   0.000000e+00   0.000000e+00   0.000000e+00
      664000   6.639990e-06   3.968338e+00   2.889370e+01   1.607912e+01   5.825811e+05   1.355910e+06   3.848744e+05   0.000000e+00   0.000000e+00   0.000000e+00   1.525130e+06   0.000000e+00   0.000000e+00   0.000000e+00
      672000   6.719990e-06   4.014945e+00   2.900217e+01   1.610991e+01   5.825811e+05   1.355910e+06   3.848744e+05   0.000000e+00   0.000000e+00   0.000000e+00   1.525130e+06   0.000000e+00   0.000000e+00   0.000000e+00
      680000   6.799990e-06   4.061551e+00   2.911064e+01   1.614070e+01   5.825811e+05   1.355910e+06   3.848744e+05   0.000000e+00   0.000000e+00   0.000000e+00   1.525130e+06   0.000000e+00   0.000000e+00   0.000000e+00
      688000   6.879990e-06   4.108158e+00   2.921911e+01   1.617149e+01   5.825811e+05   1.355910e+06   3.848744e+05   0.000000e+00   0.000000e+00   0.000000e+00   1.525130e+06   0.000000e+00   0.000000e+00   0.000000e+00
      696000   6.959990e-06   4.154764e+00   2.932759e+01   1.620228e+01   5.825811e+05   1.355910e+06   3.848744e+05   0.000000e+00   0.000000e+00   0.000000e+00   1.525130e+06   0.000000e+00   0.000000e+00   0.000000e+00
      704000   7.039990e-06   4.201371e+00   2.943606e+01   1.623307e+01   5.825811e+05   1.355910e+06   3.848744e+05   0.000000e+00   0.000000e+00   0.000000e+00   1.525130e+06   0.000000e+00   0.000000e+00   0.000000e+00
      712000   7.119990e-06   4.247977e+00   2.954453e+01   1.626386e+01   5.825811e+05   1.355910e+06   3.848744e+05   0.000000e+00   0.000000e+00   0.000000e+00   1.525130e+06   0.000000e+00   0.000000e+00   0.000000e+00
      720000   7.199990e-06   4.294584e+00   2.965301e+01   1.629465e+01   5.825811e+05   1.355910e+06   3.848744e+05   0.000000e+00   0.000000e+00   0.000000e+00   1.525130e+06   0.000000e+00   0.000000e+00   0.000000e+00
      728000   7.279990e-06   4.341190e+00   2.976148e+01   1.632544e+01   5.825811e+05   1.355910e+06   3.848744e+05   0.000000e+00   0.000000e+00   0.000000e+00   1.525130e+06   0.000000e+00   0.000000e+00   0.000000e+00
      736000   7.359990e-06   4.387797e+00   2.986995e+01   1.635623e+01   5.825811e+05   1.355910e+06   3.848744e+05   0.000000e+00   0.000000e+00   0.000000e+00   1.525130e+06   0.000000e+00   0.000000e+00   0.000000e+00
      744000   7.439990e-06   4.434403e+00   2.997842e+01   1.638702e+01   5.825811e+05   1.355910e+06   3.848744e+05   0.000000e+00   0.000000e+00   0.000000e+00   1.525130e+06   0.000000e+00   0.000000e+00   0.000000e+00
      752000   7.519990e-06   4.481010e+00   3.008690e+01   1.641781e+01   5.825811e+05   1.355910e+06   3.848744e+05   0.000000e+00   0.000000e+00   0.000000e+00   1.525130e+06   0.000000e+00   0.000000e+00   0.000000e+00
      760000   7.599990e-06   4.527616e+00   3.019537e+01   1.644860e+01   5.825811e+05   1.355910e+06   3.848744e+05   0.000000e+00   0.000000e+00   0.000000e+00   1.525130e+06   0.000000e+00   0.000000e+00   0.000000e+00
      768000   7.679990e-06   4.574223e+00   3.030384e+01   1.647939e+01   5.825811e+05   1.355910e+06   3.848744e+05   0.000000e+00   0.000000e+00   0.000000e+00   1.525130e+06   0.000000e+00   0.000000e+00   0.000000e+00
      776000   7.759990e-06   4.620829e+00   3.041231e+01   1.651018e+01   5.825811e+05   1.355910e+06   3.848744e+05   0.000000e+00   0.000000e+00   0.000000e+00   1.525130e+06   0.000000e+00   0.000000e+00   0.000000e+00
      784000   7.839990e-06   4.667436e+00   3.052079e+01   1.654097e+01   5.825811e+05   1.355910e+06   3.848744e+05   0.000000e+00   0.000000e+00   0.000000e+00   1.525130e+06   0.000000e+00   0.000000e+00   0.000000e+00
      792000   7.919990e-06   4.714042e+00   3.062926e+01   1.657176e+01   5.825811e+05   1.355910e+06   3.848744e+05   0.000000e+00   0.000000e+00   0.000000e+00   1.525130e+06   0.000000e+00   0.000000e+00   0.000000e+00
      800000   7.999990e-06   4.760649e+00   3.073773e+01   1.660255e+01   5.825811e+05   1.355910e+06   3.848744e+05   0.000000e+00   0.000000e+00   0.000000e+00   1.525130e+06   0.000000e+00   0.000000e+00   0.000000e+00
      808000   8.079990e-06   4.807255e+00   3.084621e+01   1.663334e+01   5.825811e+05   1.355910e+06   3.848744e+05   0.000000e+00   0.000000e+00   0.000000e+00   1.525130e+06   0.000000e+00   0.000000e+00   0.000000e+00
      816000   8.159990e-06   4.853862e+00   3.095468e+01   1.666413e+01   5.825811e+05   1.355910e+06   3.848744e+05   0.000000e+00   0.000000e+00   0.000000e+00   1.525130e+06   0.000000e+00   0.000000e+00   0.000000e+00
      824000   8.239990e-06   4.900468e+00   3.106315e+01   1.669492e+01   5.825811e+05   1.355910e+06   3.848744e+05   0.000000e+00   0.000000e+00   0.000000e+00   1.525130e+06   0.000000e+00   0.000000e+00   0.000000e+00
      832000   8.319990e-06   4.947075e+00   3.117162e+01   1.672571e+01   5.825811e+05   1.355910e+06   3.848744e+05   0.000000e+00   0.000000e+00   0.000000e+00   1.525130e+06   0.000000e+00   0.000000e+00   0.000000e+00
      840000   8.399990e-06   4.993681e+00   3.128010e+01   1.675650e+01   5.825811e+05   1.355910e+06   3.848744e+05   0.000000e+00   0.000000e+00   0.000000e+00   1.525130e+06   0.000000e+00   0.000000e+00   0.000000e+00
      848000   8.479990e-06   5.040288e+00   3.138857e+01   1.678729e+01   5.825811e+05   1.355910e+06   3.848744e+05   0.000000e+00   0.000000e+00   0.000000e+00   1.525130e+06   0.000000e+00   0.000000e+00   0.000000e+00
      856000   8.559990e-06   5.086894e+00   3.149704e+01   1.681808e+01   5.825811e+05   1.355910e+06   3.848744e+05   0.000000e+00   0.000000e+00   0.000000e+00   1.525130e+06   0.000000e+00   0.000000e+00   0.000000e+00
      864000   8.639990e-06   5.133501e+00   3.160552e+01   1.684887e+01   5.825811e+05   1.355910e+06   3.848744e+05   0.000000e+00   0.000000e+00   0.000000e+00   1.525130e+06   0.000000e+00   0.000000e+00   0.000000e+00
      872000   8.719990e-06   5.180107e+00   3.171399e+01   1.687966e+01   5.825811e+05   1.355910e+06   3.848744e+05   0.000000e+00   0.000000e+00   0.000000e+00   1.525130e+06   0.000000e+00   0.000000e+00   0.000000e+00
      880000   8.799990e-06   5.226714e+00   3.182246e+01   1.691045e+01   5.825811e+05   1.355910e+06   3.848744e+05   0.000000e+00   0.000000e+00   0.000000e+00   1.525130e+06   0.000000e+00   0.000000e+00   0.000000e+00
      888000   8.879990e-06   5.273320e+00   3.193093e+01   1.694124e+01   5.825811e+05   1.355910e+06   3.848744e+05   0.000000e+00   0.000000e+00   0.000000e+00   1.525130e+06   0.000000e+00   0.000000e+00   0.000000e+00
      896000   8.959990e-06   5.319927e+00   3.203941e+01   1.697203e+01   5.825811e+05   1.355910e+06   3.848744e+05   0.000000e+00   0.000000e+00   0.000000e+00   1.525130e+06   0.000000e+00   0.000000e+00   0.000000e+00
      904000   9.039990e-06   5.366533e+00   3.214788e+01   1.700282e+01   5.825811e+05   1.355910e+06   3.848744e+05   0.000000e+00   0.000000e+00   0.000000e+00   1.525130e+06   0.000000e+00   0.000000e+00   0.000000e+00
      912000   9.119990e-06   5.413140e+00   3.225635e+01   1.703361e+01   5.825811e+05   1.355910e+06   3.848744e+05   0.000000e+00   0.000000e+00   0.000000e+00   1.525130e+06   0.000000e+00   0.000000e+00   0.000000e+00
      920000   9.199990e-06   5.459746e+00   3.236482e+01   1.706440e+01   5.825811e+05   1.355910e+06   3.848744e+05   0.000000e+00   0.000000e+00   0.000000e+00   1.525130e+06   0.000000e+00   0.000000e+00   0.000000e+00
      928000   9.279990e-06   5.506352e+00   3.247330e+01   1.709519e+01   5.825811e+05   1.355910e+06   3.848744e+05   0.000000e+00   0.000000e+00   0.000000e+00   1.525130e+06   0.000000e+00   0.000000e+00   0.000000e+00
      936000   9.359990e-06   5.552959e+00   3.258177e+01   1.712598e+01   5.825811e+05   1.355910e+06   3.848744e+05   0.000000e+00   0.000000e+00   0.000000e+00   1.525130e+06   0.000000e+00   0.000000e+00   0.000000e+00
      944000   9.439990e-06   5.599565e+00   3.269024e+01   1.715677e+01   5.825811e+05   1.355910e+06   3.848744e+05   0.000000e+00   0.000000e+00   0.000000e+00   1.525130e+06   0.000000e+00   0.000000e+00   0.000000e+00
      952000   9.519990e-06   5.646172e+00   3.279872e+01   1.718756e+01   5.825811e+05   1.355910e+06   3.848744e+05   0.000000e+00   0.000000e+00   0.000000e+00   1.525130e+06   0.000000e+00   0.000000e+00   0.000000e+00
      960000   9.599990e-06   5.692778e+00   3.290719e+01   1.721835e+01   5.825811e+05   1.355910e+06   3.848744e+05   0.000000e+00   0.000000e+00   0.000000e+00   1.525130e+06   0.000000e+00   0.000000e+00   0.000000e+00
      968000   9.679990e-06   5.739385e+00   3.301566e+01   1.724914e+01   5.825811e+05   1.355910e+06   3.848744e+05   0.000000e+00   0.000000e+00   0.000000e+00   1.525130e+06   0.000000e+00   0.000000e+00   0.000000e+00
      976000   9.759990e-06   5.785991e+00   3.312413e+01   1.727993e+01   5.825811e+05   1.355910e+06   3.848744e+05   0.000000e+00   0.000000e+00   0.000000e+00   1.525130e+06   0.000000e+00   0.000000e+00   0.000000e+00
      984000   9.839990e-06   5.832598e+00   3.323261e+01   1.731072e+01   5.825811e+05   1.355910e+06   3.848744e+05   0.000000e+00   0.000000e+00   0.000000e+00   1.525130e+06   0.000000e+00   0.000000e+00   0.000000e+00
      992000   9.919990e-06   5.879204e+00   3.334108e+01   1.734151e+01   5.825811e+05   1.355910e+06   3.848744e+05   0.000000e+00   0.000000e+00   0.000000e+00   1.525130e+06   0.000000e+00   0.000000e+00   0.000000e+00
     1000000   9.999990e-06   5.925811e+00   3.344955e+01   1.737230e+01   5.825811e+05   1.355910e+06   3.848744e+05   0.000000e+00   0.000000e+00   0.000000e+00   1.525130e+06   0.000000e+00   0.000000e+00   0.000000e+00
     1008000   1.007999e-05   5.972417e+00   3.355803e+01   1.740309e+01   5.825811e+05   1.355910e+06   3.848744e+05   0.000000e+00   0.000000e+00   0.000000e+00   1.525130e+06   0.000000e+00   0.000000e+00   0.000000e+00
     1016000   1.015999e-05   6.019024e+00   3.366650e+01   1.743388e+01   5.825811e+05   1.355910e+06   3.848744e+05   0.000000e+00   0.000000e+00   0.000000e+00   1.525130e+06   0.000000e+00   0.000000e+00   0.000000e+00
     1024000   1.023999e-05   6.065630e+00   3.377497e+01   1.746467e+01   5.825811e+05   1.355910e+06   3.848744e+05   0.000000e+00   0.000000e+00   0.000000e+00   1.525130e+06   0.000000e+00   0.000000e+00   0.000000e+00
     1032000   1.031999e-05   6.112237e+00   3.388344e+01   1.749546e+01   5.825811e+05   1.355910e+06   3.848744e+05   0.000000e+00   0.000000e+00   0.000000e+00   1.525130e+06   0.000000e+00   0.000000e+00   0.000000e+00
     1040000   1.039999e-05   6.158843e+00   3.399192e+01   1.752625e+01   5.825811e+05   1.355910e+06   3.848744e+05   0.000000e+00   0.000000e+00   0.000000e+00   1.525130e+06   0.000000e+00   0.000000e+00   0.000000e+00
     1048000   1.047999e-05   6.205450e+00   3.410039e+01   1.755704e+01   5.825811e+05   1.355910e+06   3.848744e+05   0.000000e+00   0.000000e+00   0.000000e+00   1.525130e+06   0.000000e+00   0.000000e+00   0.000000e+00
     1056000   1.055999e-05   6.252056e+00   3.420886e+01   1.758783e+01   5.825811e+05   1.355910e+06   3.848744e+05   0.000000e+00   0.000000e+00   0.000000e+00   1.525130e+06   0.000000e+00   0.000000e+00   0.000000e+00
     1064000   1.063999e-05   6.298663e+00   3.431733e+01   1.761862e+01   5.825811e+05   1.355910e+06   3.848744e+05   0.000000e+00   0.000000e+00   0.000000e+00   1.525130e+06   0.000000e+00   0.000000e+00   0.000000e+00
     1072000   1.071999e-05   6.345269e+00   3.442581e+01   1.764941e+01   5.825811e+05   1.355910e+06   3.848744e+05   0.000000e+00   0.000000e+00   0.000000e+00   1.525130e+06   0.000000e+00   0.000000e+00   0.000000e+00
     1080000   1.079999e-05   6.391876e+00   3.453428e+01   1.768020e+01   5.825811e+05   1.355910e+06   3.848744e+05   0.000000e+00   0.000000e+00   0.000000e+00   1.525130e+06   0.000000e+00   0.000000e+00   0.000000e+00
     1088000   1.087999e-05   6.438482e+00   3.464275e+01   1.771099e+01   5.825811e+05   1.355910e+06   3.848744e+05   0.000000e+00   0.000000e+00   0.000000e+00   1.525130e+06   0.000000e+00   0.000000e+00   0.000000e+00
     1096000   1.095999e-05   6.485089e+00   3.475123e+01   1.774178e+01   5.825811e+05   1.355910e+06   3.848744e+05   0.000000e+00   0.000000e+00   0.000000e+00   1.525130e+06   0.000000e+00   0.000000e+00   0.000000e+00
     1104000   1.103999e-05   6.531695e+00   3.485970e+01   1.777257e+01   5.825811e+05   1.355910e+06   3.848744e+05   0.000000e+00   0.000000e+00   0.000000e+00   1.525130e+06   0.000000e+00   0.000000e+00   0.000000e+00
     1112000   1.111999e-05   6.578302e+00   3.496817e+01   1.780336e+01   5.825811e+05   1.355910e+06   3.848744e+05   0.000000e+00   0.000000e+00   0.000000e+00   1.525130e+06   0.000000e+00   0.000000e+00   0.000000e+00
     1120000   1.119999e-05   6.624908e+00   3.507664e+01   1.783415e+01   5.825811e+05   1.355910e+06   3.848744e+05   0.000000e+00   0.000000e+00   0.000000e+00   1.525130e+06   0.000000e+00   0.000000e+00   0.000000e+00
     1128000   1.127999e-05   6.671515e+00   3.518512e+01   1.786494e+01   5.825811e+05   1.355910e+06   3.848744e+05   0.000000e+00   0.000000e+00   0.000000e+00   1.525130e+06   0.000000e+00   0.000000e+00   0.000000e+00
     1136000   1.135999e-05   6.718121e+00   3.529359e+01   1.789573e+01   5.825811e+05   1.355910e+06   3.848744e+05   0.000000e+00   0.000000e+00   0.000000e+00   1.525130e+06   0.000000e+00   0.000000e+00   0.000000e+00
     1144000   1.143999e-05   6.764728e+00   3.540206e+01   1.792652e+01   5.825811e+05   1.355910e+06   3.848744e+05   0.000000e+00   0.000000e+00   0.000000e+00   1.525130e+06   0.000000e+00   0.000000e+00   0.000000e+00
     1152000   1.151999e-05   6.811334e+00   3.551054e+01   1.795731e+01   5.825811e+05   1.355910e+06   3.848744e+05   0.000000e+00   0.000000e+00   0.000000e+00   1.525130e+06   0.000000e+00   0.000000e+00   0.000000e+00
     1160000   1.159999e-05   6.857941e+00   3.561901e+01   1.798810e+01   5.825811e+05   1.355910e+06   3.848744e+05   0.000000e+00   0.000000e+00   0.000000e+00   1.525130e+06   0.000000e+00   0.000000e+00   0.000000e+00
     1168000   1.167999e-05   6.904547e+00   3.572748e+01   1.801889e+01   5.825811e+05   1.355910e+06   3.848744e+05   0.000000e+00   0.000000e+00   0.000000e+00   1.525130e+06   0.000000e+00   0.000000e+00   0.000000e+00
     1176000   1.175999e-05   6.951154e+00   3.583595e+01   1.804968e+01   5.825811e+05   1.355910e+06   3.848744e+05   0.000000e+00   0.000000e+00   0.000000e+00   1.525130e+06   0.000000e+00   0.000000e+00   0.000000e+00
     1184000   1.183999e-05   6.997760e+00   3.594443e+01   1.808047e+01   5.825811e+05   1.355910e+06   3.848744e+05   0.000000e+00   0.000000e+00   0.000000e+00   1.525130e+06   0.000000e+00   0.000000e+00   0.000000e+00
     1192000   1.191999e-05   7.044367e+00   3.605290e+01   1.811126e+01   5.825811e+05   1.355910e+06   3.848744e+05   0.000000e+00   0.000000e+00   0.000000e+00   1.525130e+06   0.000000e+00   0.000000e+00   0.000000e+00
     1200000   1.199999e-05   7.090973e+00   3.616137e+01   1.814205e+01   5.825811e+05   1.355910e+06   3.848744e+05   0.000000e+00   0.000000e+00   0.000000e+00   1.525130e+06   0.000000e+00   0.000000e+00   0.000000e+00
     1208000   1.207999e-05   7.137580e+00   3.626984e+01   1.817284e+01   5.825811e+05   1.355910e+06   3.848744e+05   0.000000e+00   0.000000e+00   0.000000e+00   1.525130e+06   0.000000e+00   0.000000e+00   0.000000e+00
     1216000   1.215999e-05   7.184186e+00   3.637832e+01   1.820363e+01   5.825811e+05   1.355910e+06   3.848744e+05   0.000000e+00   0.000000e+00   0.000000e+00   1.525130e+06   0.000000e+00   0.000000e+00   0.000000e+00
     1224000   1.223999e-05   7.230792e+00   3.648679e+01   1.823442e+01   5.825811e+05   1.355910e+06   3.848744e+05   0.000000e+00   0.000000e+00   0.000000e+00   1.525130e+06   0.000000e+00   0.000000e+00   0.000000e+00
     1232000   1.231999e-05   7.277399e+00   3.659526e+01   1.826521e+01   5.825811e+05   1.355910e+06   3.848744e+05   0.000000e+00   0.000000e+00   0.000000e+00   1.525130e+06   0.000000e+00   0.000000e+00   0.000000e+00
     1240000   1.239999e-05   7.324005e+00   3.670374e+01   1.829600e+01   5.825811e+05   1.355910e+06   3.848744e+05   0.000000e+00   0.000000e+00   0.000000e+00   1.525130e+06   0.000000e+00   0.000000e+00   0.000000e+00
     1248000   1.247999e-05   7.370612e+00   3.681221e+01   1.832679e+01   5.825811e+05   1.355910e+06   3.848744e+05   0.000000e+00   0.000000e+00   0.000000e+00   1.525130e+06   0.000000e+00   0.000000e+00   0.000000e+00
     1256000   1.255999e-05   7.417218e+00   3.692068e+01   1.835758e+01   5.825811e+05   1.355910e+06   3.848744e+05   0.000000e+00   0.000000e+00   0.000000e+00   1.525130e+06   0.000000e+00   0.000000e+00   0.000000e+00
     1264000   1.263999e-05   7.463825e+00   3.702915e+01   1.838837e+01   5.825811e+05   1.355910e+06   3.848744e+05   0.000000e+00   0.000000e+00   0.000000e+00   1.525130e+06   0.000000e+00   0.000000e+00   0.000000e+00
     1272000   1.271999e-05   7.510431e+00   3.713763e+01   1.841916e+01   5.825811e+05   1.355910e+06   3.848744e+05   0.000000e+00   0.000000e+00   0.000000e+00   1.525130e+06   0.000000e+00   0.000000e+00   0.000000e+00
     1280000   1.279999e-05   7.557038e+00   3.724610e+01   1.844995e+01   5.825811e+05   1.355910e+06   3.848744e+05   0.000000e+00   0.000000e+00   0.000000e+00   1.525130e+06   0.000000e+00   0.000000e+00   0.000000e+00
     1288000   1.287999e-05   7.603644e+00   3.735457e+01   1.848074e+01   5.825811e+05   1.355910e+06   3.848744e+05   0.000000e+00   0.000000e+00   0.000000e+00   1.525130e+06   0.000000e+00   0.000000e+00   0.000000e+00
     1296000   1.295999e-05   7.650251e+00   3.746304e+01   1.851153e+01   5.825811e+05   1.355910e+06   3.848744e+05   0.000000e+00   0.000000e+00   0.000000e+00   1.525130e+06   0.000000e+00   0.000000e+00   0.000000e+00
     1304000   1.303999e-05   7.696857e+00   3.757152e+01   1.854232e+01   5.825811e+05   1.355910e+06   3.848744e+05   0.000000e+00   0.000000e+00   0.000000e+00   1.525130e+06   0.000000e+00   0.000000e+00   0.000000e+00
     1312000   1.311999e-05   7.743464e+00   3.767999e+01   1.857311e+01   5.825811e+05   1.355910e+06   3.848744e+05   0.000000e+00   0.000000e+00   0.000000e+00   1.525130e+06   0.000000e+00   0.000000e+00   0.000000e+00
     1320000   1.319999e-05   7.790070e+00   3.778846e+01   1.860390e+01   5.825811e+05   1.355910e+06   3.848744e+05   0.000000e+00   0.000000e+00   0.000000e+00   1.525130e+06   0.000000e+00   0.000000e+00   0.000000e+00
     1328000   1.327999e-05   7.836677e+00   3.789694e+01   1.863469e+01   5.825811e+05   1.355910e+06   3.848744e+05   0.000000e+00   0.000000e+00   0.000000e+00   1.525130e+06   0.000000e+00   0.000000e+00   0.000000e+00
     1336000   1.335999e-05   7.883283e+00   3.800541e+01   1.866548e+01   5.825811e+05   1.355910e+06   3.848744e+05   0.000000e+00   0.000000e+00   0.000000e+00   1.525130e+06   0.000000e+00   0.000000e+00   0.000000e+00
     1344000   1.343999e-05   7.929890e+00   3.811388e+01   1.869627e+01   5.825811e+05   1.355910e+06   3.848744e+05   0.000000e+00   0.000000e+00   0.000000e+00   1.525130e+06   0.000000e+00   0.000000e+00   0.000000e+00
     1352000   1.351999e-05   7.976496e+00   3.822235e+01   1.872706e+01   5.825811e+05   1.355910e+06   3.848744e+05   0.000000e+00   0.000000e+00   0.000000e+00   1.525130e+06   0.000000e+00   0.000000e+00   0.000000e+00
     1360000   1.359999e-05   8.023103e+00   3.833083e+01   1.875785e+01   5.825811e+05   1.355910e+06   3.848744e+05   0.000000e+00   0.000000e+00   0.000000e+00   1.525130e+06   0.000000e+00   0.000000e+00   0.000000e+00
     1368000   1.367999e-05   8.069709e+00   3.843930e+01   1.878864e+01   5.825811e+05   1.355910e+06   3.848744e+05   0.000000e+00   0.000000e+00   0.000000e+00   1.525130e+06   0.000000e+00   0.000000e+00   0.000000e+00
     1376000   1.375999e-05   8.116316e+00   3.854777e+01   1.881943e+01   5.825811e+05   1.355910e+06   3.848744e+05   0.000000e+00   0.000000e+00   0.000000e+00   1.525130e+06   0.000000e+00   0.000000e+00   0.000000e+00
     1384000   1.383999e-05   8.162922e+00   3.865625e+01   1.885022e+01   5.825811e+05   1.355910e+06   3.848744e+05   0.000000e+00   0.000000e+00   0.000000e+00   1.525130e+06   0.000000e+00   0.000000e+00   0.000000e+00
     1392000   1.391999e-05   8.209529e+00   3.876472e+01   1.888101e+01   5.825811e+05   1.355910e+06   3.848744e+05   0.000000e+00   0.000000e+00   0.000000e+00   1.525130e+06   0.000000e+00   0.000000e+00   0.000000e+00
     1400000   1.399999e-05   8.256135e+00   3.887319e+01   1.891180e+01   5.825811e+05   1.355910e+06   3.848744e+05   0.000000e+00   0.000000e+00   0.000000e+00   1.525130e+06   0.000000e+00   0.000000e+00   0.000000e+00
     1408000   1.407999e-05   8.302742e+00   3.898166e+01   1.894259e+01   5.825811e+05   1.355910e+06   3.848744e+05   0.000000e+00   0.000000e+00   0.000000e+00   1.525130e+06   0.000000e+00   0.000000e+00   0.000000e+00
     1416000   1.415999e-05   8.349348e+00   3.909014e+01   1.897338e+01   5.825811e+05   1.355910e+06   3.848744e+05   0.000000e+00   0.000000e+00   0.000000e+00   1.525130e+06   0.000000e+00   0.000000e+00   0.000000e+00
     1424000   1.423999e-05   8.395955e+00   3.919861e+01   1.900416e+01   5.825811e+05   1.355910e+06   3.848744e+05   0.000000e+00   0.000000e+00   0.000000e+00   1.525130e+06   0.000000e+00   0.000000e+00   0.000000e+00
     1432000   1.431999e-05   8.442561e+00   3.930708e+01   1.903495e+01   5.825811e+05   1.355910e+06   3.848744e+05   0.000000e+00   0.000000e+00   0.000000e+00   1.525130e+06   0.000000e+00   0.000000e+00   0.000000e+00
     1440000   1.439999e-05   8.489168e+00   3.941555e+01   1.906574e+01   5.825811e+05   1.355910e+06   3.848744e+05   0.000000e+00   0.000000e+00   0.000000e+00   1.525130e+06   0.000000e+00   0.000000e+00   0.000000e+00
     1448000   1.447999e-05   8.535774e+00   3.952403e+01   1.909653e+01   5.825811e+05   1.355910e+06   3.848744e+05   0.000000e+00   0.000000e+00   0.000000e+00   1.525130e+06   0.000000e+00   0.000000e+00   0.000000e+00
     1456000   1.455999e-05   8.582381e+00   3.963250e+01   1.912732e+01   5.825811e+05   1.355910e+06   3.848744e+05   0.000000e+00   0.000000e+00   0.000000e+00   1.525130e+06   0.000000e+00   0.000000e+00   0.000000e+00
     1464000   1.463999e-05   8.628987e+00   3.974097e+01   1.915811e+01   5.825811e+05   1.355910e+06   3.848744e+05   0.000000e+00   0.000000e+00   0.000000e+00   1.525130e+06   0.000000e+00   0.000000e+00   0.000000e+00
     1472000   1.471999e-05   8.675594e+00   3.984945e+01   1.918890e+01   5.825811e+05   1.355910e+06   3.848744e+05   0.000000e+00   0.000000e+00   0.000000e+00   1.525130e+06   0.000000e+00   0.000000e+00   0.000000e+00
     1480000   1.479999e-05   8.722200e+00   3.995792e+01   1.921969e+01   5.825811e+05   1.355910e+06   3.848744e+05   0.000000e+00   0.000000e+00   0.000000e+00   1.525130e+06   0.000000e+00   0.000000e+00   0.000000e+00
     1488000   1.487999e-05   8.768807e+00   4.006639e+01   1.925048e+01   5.825811e+05   1.355910e+06   3.848744e+05   0.000000e+00   0.000000e+00   0.000000e+00   1.525130e+06   0.000000e+00   0.000000e+00   0.000000e+00
     1496000   1.495999e-05   8.815413e+00   4.017486e+01   1.928127e+01   5.825811e+05   1.355910e+06   3.848744e+05   0.000000e+00   0.000000e+00   0.000000e+00   1.525130e+06   0.000000e+00   0.000000e+00   0.000000e+00
     1504000   1.503999e-05   8.862020e+00   4.028334e+01   1.931206e+01   5.825811e+05   1.355910e+06   3.848744e+05   0.000000e+00   0.000000e+00   0.000000e+00   1.525130e+06   0.000000e+00   0.000000e+00   0.000000e+00
     1512000   1.511999e-05   8.908626e+00   4.039181e+01   1.934285e+01   5.825811e+05   1.355910e+06   3.848744e+05   0.000000e+00   0.000000e+00   0.000000e+00   1.525130e+06   0.000000e+00   0.000000e+00   0.000000e+00
     1520000   1.519999e-05   8.955233e+00   4.050028e+01   1.937364e+01   5.825811e+05   1.355910e+06   3.848744e+05   0.000000e+00   0.000000e+00   0.000000e+00   1.525130e+06   0.000000e+00   0.000000e+00   0.000000e+00
     1528000   1.527999e-05   9.001839e+00   4.060876e+01   1.940443e+01   5.825811e+05   1.355910e+06   3.848744e+05   0.000000e+00   0.000000e+00   0.000000e+00   1.525130e+06   0.000000e+00   0.000000e+00   0.000000e+00
     1536000   1.535999e-05   9.048445e+00   4.071723e+01   1.943522e+01   5.825811e+05   1.355910e+06   3.848744e+05   0.000000e+00   0.000000e+00   0.000000e+00   1.525130e+06   0.000000e+00   0.000000e+00   0.000000e+00
     1544000   1.543999e-05   9.095052e+00   4.082570e+01   1.946601e+01   5.825811e+05   1.355910e+06   3.848744e+05   0.000000e+00   0.000000e+00   0.000000e+00   1.525130e+06   0.000000e+00   0.000000e+00   0.000000e+00
     1552000   1.551999e-05   9.141658e+00   4.093417e+01   1.949680e+01   5.825811e+05   1.355910e+06   3.848744e+05   0.000000e+00   0.000000e+00   0.000000e+00   1.525130e+06   0.000000e+00   0.000000e+00   0.000000e+00
     1560000   1.559999e-05   9.188265e+00   4.104265e+01   1.952759e+01   5.825811e+05   1.355910e+06   3.848742e+05   2.054715e+06   2.016429e+06  -1.021407e+07   1.525130e+06   6.307987e-28   0.000000e+00   0.000000e+00
     1568000   1.567999e-05   9.234871e+00   4.115112e+01   1.955838e+01   5.825813e+05   1.355910e+06   3.848732e+05   4.374012e+06   4.239011e+06  -2.155498e+07   1.525130e+06   2.810722e-27   0.000000e+00   0.000000e+00
     1576000   1.575999e-05   9.281478e+00   4.125959e+01   1.958917e+01   5.825815e+05   1.355910e+06   3.848724e+05   0.000000e+00   0.000000e+00   0.000000e+00   1.525130e+06   0.000000e+00   0.000000e+00   0.000000e+00
     1584000   1.583999e-05   9.328084e+00   4.136806e+01   1.961996e+01   5.825820e+05   1.355910e+06   3.848701e+05   1.780993e+07   1.689862e+07  -8.649352e+07   1.525130e+06   4.527566e-26   0.000000e+00   0.000000e+00
     1592000   1.591999e-05   9.374691e+00   4.147654e+01   1.965075e+01   5.825829e+05   1.355911e+06   3.848658e+05   3.860431e+06   3.649862e+06  -1.870239e+07   1.525130e+06   2.118889e-27   0.000000e+00   0.000000e+00
     1600000   1.599999e-05   9.421298e+00   4.158501e+01   1.968154e+01   5.825845e+05   1.355913e+06   3.848580e+05   1.199335e+07   1.119861e+07  -5.760951e+07   1.525130e+06   2.010685e-26   0.000000e+00   0.000000e+00
     1608000   1.607999e-05   9.467905e+00   4.169348e+01   1.971233e+01   5.825871e+05   1.355915e+06   3.848455e+05   6.310477e+06   5.645569e+06  -2.944380e+07   1.525130e+06   5.268097e-27   0.000000e+00   0.000000e+00
     1616000   1.615999e-05   9.514512e+00   4.180196e+01   1.974312e+01   5.825914e+05   1.355919e+06   3.848253e+05   4.473370e+07   4.071153e+07  -2.111686e+08   1.525130e+06   2.702562e-25   0.000000e+00   0.000000e+00
     1624000   1.623999e-05   9.561119e+00   4.191043e+01   1.977390e+01   5.825969e+05   1.355924e+06   3.847993e+05   4.346735e+07   3.928061e+07  -2.042246e+08   1.525130e+06   2.529784e-25   0.000000e+00   0.000000e+00
     1632000   1.631999e-05   9.607727e+00   4.201890e+01   1.980469e+01   5.825996e+05   1.355927e+06   3.847867e+05   6.513503e+07   5.818958e+07  -3.036706e+08   1.525130e+06   5.594830e-25   0.000000e+00   0.000000e+00
     1640000   1.639999e-05   9.654335e+00   4.212738e+01   1.983547e+01   5.826041e+05   1.355931e+06   3.847658e+05   6.294960e+07   5.567679e+07  -2.915243e+08   1.525130e+06   5.157299e-25   0.000000e+00   0.000000e+00
     1648000   1.647999e-05   9.700944e+00   4.223585e+01   1.986625e+01   5.826084e+05   1.355934e+06   3.847459e+05   5.482489e+07   4.803942e+07  -2.523217e+08   1.525130e+06   3.864770e-25   0.000000e+00   0.000000e+00
     1656000   1.655999e-05   9.747553e+00   4.234433e+01   1.989703e+01   5.826116e+05   1.355937e+06   3.847310e+05   1.077531e+07   9.104119e+06  -4.840377e+07   1.525130e+06   1.425189e-26   0.000000e+00   0.000000e+00
     1664000   1.663999e-05   9.794162e+00   4.245280e+01   1.992780e+01   5.826138e+05   1.355939e+06   3.847212e+05  -1.123986e+07  -9.891460e+06   5.188358e+07   1.525130e+06   1.631627e-26   0.000000e+00   0.000000e+00
     1672000   1.671999e-05   9.840771e+00   4.256128e+01   1.995858e+01   5.826148e+05   1.355940e+06   3.847165e+05  -1.195599e+07  -1.034329e+07   5.456126e+07   1.525130e+06   1.805646e-26   0.000000e+00   0.000000e+00
     1680000   1.679999e-05   9.887380e+00   4.266975e+01   1.998936e+01   5.826160e+05   1.355941e+06   3.847111e+05   5.026449e+07   4.249144e+07  -2.258858e+08   1.525130e+06   3.100923e-25   0.000000e+00   0.000000e+00
     1688000   1.687999e-05   9.933989e+00   4.277823e+01   2.002014e+01   5.826172e+05   1.355942e+06   3.847056e+05   9.844504e+01  -4.300754e+01   2.495275e+00   1.525130e+06   6.469770e-38   0.000000e+00   0.000000e+00
     1696000   1.695999e-05   9.980599e+00   4.288670e+01   2.005091e+01   5.826172e+05   1.355942e+06   3.847056e+05   1.182708e+02  -3.954706e+01  -3.972668e+01   1.525130e+06   9.597045e-38   0.000000e+00   0.000000e+00
     1704000   1.703999e-05   1.002721e+01   4.299518e+01   2.008169e+01   5.826172e+05   1.355942e+06   3.847056e+05   1.000246e+02  -3.912138e+01  -1.359419e+01   1.525130e+06   6.566774e-38   0.000000e+00   0.000000e+00
     1712000   1.711999e-05   1.007382e+01   4.310366e+01   2.011247e+01   5.826172e+05   1.355942e+06   3.847056e+05   8.587228e+01  -3.895634e+01   7.257141e+00   1.525130e+06   5.011691e-38   0.000000e+00   0.000000e+00
     1720000   1.719999e-05   1.012043e+01   4.321213e+01   2.014324e+01   5.826172e+05   1.355942e+06   3.847056e+05   9.475559e+01  -4.073456e+01   7.138417e-02   1.525130e+06   5.960289e-38   0.000000e+00   0.000000e+00
     1728000   1.727999e-05   1.016704e+01   4.332061e+01   2.017402e+01   5.826172e+05   1.355942e+06   3.847056e+05   7.984624e+01  -3.446618e+01   5.571557e-01   1.525130e+06   4.237830e-38   0.000000e+00   0.000000e+00
     1736000   1.735999e-05   1.021365e+01   4.342908e+01   2.020479e+01   5.826172e+05   1.355942e+06   3.847056e+05   9.186807e+01  -3.947361e+01  -1.840261e-20   1.525130e+06   5.602808e-38   0.000000e+00   0.000000e+00
     1744000   1.743999e-05   1.026026e+01   4.353756e+01   2.023557e+01   5.826172e+05   1.355942e+06   3.847056e+05   9.511604e+01  -4.086919e+01  -7.291786e-20   1.525130e+06   6.004625e-38   0.000000e+00   0.000000e+00
     1752000   1.751999e-05   1.030686e+01   4.364603e+01   2.026635e+01   5.826172e+05   1.355942e+06   3.847056e+05   7.694655e+01  -3.306217e+01  -2.090800e-20   1.525130e+06   3.930669e-38   0.000000e+00   0.000000e+00
     1760000   1.759999e-05   1.035347e+01   4.375451e+01   2.029712e+01   5.826172e+05   1.355942e+06   3.847056e+05   1.134777e+02  -4.875879e+01   7.157247e-21   1.525130e+06   8.546091e-38   0.000000e+00   0.000000e+00
     1768000   1.767999e-05   1.040008e+01   4.386298e+01   2.032790e+01   5.826172e+05   1.355942e+06   3.847056e+05   8.495233e+01  -3.650207e+01  -3.082216e-20   1.525130e+06   4.789282e-38   0.000000e+00   0.000000e+00
     1776000   1.775999e-05   1.044669e+01   4.397146e+01   2.035868e+01   5.826172e+05   1.355942e+06   3.847056e+05   7.810410e+01  -3.355954e+01  -6.342052e-20   1.525130e+06   4.049301e-38   0.000000e+00   0.000000e+00
     1784000   1.783999e-05   1.049330e+01   4.407993e+01   2.038945e+01   5.826172e+05   1.355942e+06   3.847056e+05   9.110712e+01  -3.914664e+01  -4.394621e-20   1.525130e+06   5.509079e-38   0.000000e+00   0.000000e+00
     1792000   1.791999e-05   1.053991e+01   4.418841e+01   2.042023e+01   5.826172e+05   1.355942e+06   3.847056e+05   1.028322e+02  -4.418463e+01  -1.878710e-22   1.525130e+06   7.017743e-38   0.000000e+00   0.000000e+00
     1800000   1.799999e-05   1.058652e+01   4.429688e+01   2.045101e+01   5.826172e+05   1.355942e+06   3.847056e+05   5.498855e+01  -2.362732e+01  -1.591510e-20   1.525130e+06   2.007158e-38   0.000000e+00   0.000000e+00
     1808000   1.807999e-05   1.063313e+01   4.440536e+01   2.048178e+01   5.826172e+05   1.355942e+06   3.847056e+05   7.218019e+01  -3.101417e+01   1.711641e-20   1.525130e+06   3.458468e-38   0.000000e+00   0.000000e+00
     1816000   1.815999e-05   1.067974e+01   4.451384e+01   2.051256e+01   5.826172e+05   1.355942e+06   3.847056e+05   5.601229e+01  -2.406720e+01   2.752008e-20   1.525130e+06   2.082243e-38   0.000000e+00   0.000000e+00
     1824000   1.823999e-05   1.072635e+01   4.462231e+01   2.054334e+01   5.826172e+05   1.355942e+06   3.847056e+05   7.656398e+01  -3.289779e+01   7.402039e-21   1.525130e+06   3.890386e-38   0.000000e+00   0.000000e+00
     1832000   1.831999e-05   1.077296e+01   4.473079e+01   2.057411e+01   5.826172e+05   1.355942e+06   3.847056e+05   4.471909e+01  -1.921477e+01  -2.383371e-20   1.525130e+06   1.327573e-38   0.000000e+00   0.000000e+00
     1840000   1.839999e-05   1.081957e+01   4.483926e+01   2.060489e+01   5.826172e+05   1.355942e+06   3.847056e+05   6.528496e+01  -2.805145e+01  -2.071818e-21   1.525130e+06   2.829141e-38   0.000000e+00   0.000000e+00
     1848000   1.847999e-05   1.086618e+01   4.494774e+01   2.063567e+01   5.826172e+05   1.355942e+06   3.847056e+05   8.396511e+01  -3.607788e+01  -1.613346e-20   1.525130e+06   4.679171e-38   0.000000e+00   0.000000e+00
     1856000   1.855999e-05   1.091279e+01   4.505621e+01   2.066644e+01   5.826172e+05   1.355942e+06   3.847056e+05   6.285196e+01  -2.700605e+01  -3.689573e-20   1.525130e+06   2.621382e-38   0.000000e+00   0.000000e+00
     1864000   1.863999e-05   1.095940e+01   4.516469e+01   2.069722e+01   5.826172e+05   1.355942e+06   3.847056e+05   6.674519e+01  -2.867888e+01  -3.954973e-20   1.525130e+06   2.956717e-38   0.000000e+00   0.000000e+00
     1872000   1.871999e-05   1.100601e+01   4.527316e+01   2.072799e+01   5.826172e+05   1.355942e+06   3.847056e+05   4.770799e+01  -2.049903e+01   1.327211e-20   1.525130e+06   1.510756e-38   0.000000e+00   0.000000e+00
     1880000   1.879999e-05   1.105261e+01   4.538164e+01   2.075877e+01   5.826172e+05   1.355942e+06   3.847056e+05   6.924621e+01  -2.975351e+01  -6.378575e-21   1.525130e+06   3.182278e-38   0.000000e+00   0.000000e+00
     1888000   1.887999e-05   1.109922e+01   4.549011e+01   2.078955e+01   5.826172e+05   1.355942e+06   3.847056e+05   6.863404e+01  -2.949047e+01  -6.015622e-20   1.525130e+06   3.126723e-38   0.000000e+00   0.000000e+00
     1896000   1.895999e-05   1.114583e+01   4.559859e+01   2.082032e+01   5.826172e+05   1.355942e+06   3.847056e+05   4.667683e+01  -2.005597e+01  -4.009104e-20   1.525130e+06   1.446172e-38   0.000000e+00   0.000000e+00
     1904000   1.903999e-05   1.119244e+01   4.570706e+01   2.085110e+01   5.826172e+05   1.355942e+06   3.847056e+05   5.699486e+01  -2.448939e+01   2.252080e-20   1.525130e+06   2.155974e-38   0.000000e+00   0.000000e+00
     1912000   1.911999e-05   1.123905e+01   4.581554e+01   2.088188e+01   5.826172e+05   1.355942e+06   3.847056e+05   3.785237e+01  -1.626430e+01  -1.895409e-20   1.525130e+06   9.508349e-39   0.000000e+00   0.000000e+00
     1920000   1.919999e-05   1.128566e+01   4.592401e+01   2.091265e+01   5.826172e+05   1.355942e+06   3.847056e+05   6.025723e+01  -2.589115e+01  -3.531685e-20   1.525130e+06   2.410267e-38   0.000000e+00   0.000000e+00
     1928000   1.927999e-05   1.133227e+01   4.603249e+01   2.094343e+01   5.826172e+05   1.355942e+06   3.847056e+05   5.085818e+01  -2.185260e+01   1.957210e-20   1.525130e+06   1.716935e-38   0.000000e+00   0.000000e+00
     1936000   1.935999e-05   1.137888e+01   4.614097e+01   2.097421e+01   5.826172e+05   1.355942e+06   3.847056e+05   5.016305e+01  -2.155391e+01   6.388037e-21   1.525130e+06   1.670082e-38   0.000000e+00   0.000000e+00
     1944000   1.943999e-05   1.142549e+01   4.624944e+01   2.100498e+01   5.826172e+05   1.355942e+06   3.847056e+05   3.709030e+01  -1.593685e+01  -1.310807e-21   1.525130e+06   9.132466e-39   0.000000e+00   0.000000e+00
     1952000   1.951999e-05   1.147210e+01   4.635792e+01   2.103576e+01   5.826172e+05   1.355942e+06   3.847056e+05   7.125777e+01  -3.061783e+01   2.608085e-20   1.525130e+06   3.369719e-38   0.000000e+00   0.000000e+00
     1960000   1.959999e-05   1.151871e+01   4.646639e+01   2.106654e+01   5.826172e+05   1.355942e+06   3.847056e+05   4.219849e+01  -1.813173e+01  -3.101945e-22   1.525130e+06   1.182158e-38   0.000000e+00   0.000000e+00
     1968000   1.967999e-05   1.156532e+01   4.657487e+01   2.109731e+01   5.826172e+05   1.355942e+06   3.847056e+05   4.858726e+01  -2.087683e+01  -1.919398e-20   1.525130e+06   1.566851e-38   0.000000e+00   0.000000e+00
     1976000   1.975999e-05   1.161193e+01   4.668334e+01   2.112809e+01   5.826172e+05   1.355942e+06   3.847056e+05   1.658916e+01  -7.127983e+00  -4.644659e-21   1.525130e+06   1.827507e-39   0.000000e+00   0.000000e+00
     1984000   1.983999e-05   1.165854e+01   4.679182e+01   2.115886e+01   5.826172e+05   1.355942e+06   3.847056e+05   7.411919e+01  -3.184732e+01   3.906638e-20   1.525130e+06   3.645600e-38   0.000000e+00   0.000000e+00
     1992000   1.991999e-05   1.170515e+01   4.690029e+01   2.118964e+01   5.826172e+05   1.355942e+06   3.847056e+05   2.545264e+01  -1.093642e+01   2.007142e-20   1.525130e+06   4.299030e-39   0.000000e+00   0.000000e+00
     2000000   1.999999e-05   1.175176e+01   4.700877e+01   2.122042e+01   5.826172e+05   1.355942e+06   3.847056e+05   5.119220e+01  -2.199611e+01   8.144543e-21   1.525130e+06   1.740083e-38   0.000000e+00   0.000000e+00
     2008000   2.007999e-05   1.179836e+01   4.711724e+01   2.125119e+01   5.826172e+05   1.355942e+06   3.847056e+05   6.254746e+01  -2.687521e+01  -4.864175e-20   1.525130e+06   2.596745e-38   0.000000e+00   0.000000e+00
     2016000   2.015999e-05   1.184497e+01   4.722572e+01   2.128197e+01   5.826172e+05   1.355942e+06   3.847056e+05   3.165584e+01  -1.360179e+01  -2.818179e-20   1.525130e+06   6.649354e-39   0.000000e+00   0.000000e+00
     2024000   2.023999e-05   1.189158e+01   4.733419e+01   2.131275e+01   5.826172e+05   1.355942e+06   3.847056e+05   3.285749e+01  -1.411811e+01   1.558296e-21   1.525130e+06   7.165412e-39   0.000000e+00   0.000000e+00
     2032000   2.031999e-05   1.193819e+01   4.744267e+01   2.134352e+01   5.826172e+05   1.355942e+06   3.847056e+05   4.086393e+01  -1.755830e+01   7.970133e-21   1.525130e+06   1.108107e-38   0.000000e+00   0.000000e+00
     2040000   2.039999e-05   1.198480e+01   4.755115e+01   2.137430e+01   5.826172e+05   1.355942e+06   3.847056e+05   3.883693e+01  -1.668734e+01  -7.651597e-21   1.525130e+06   1.000943e-38   0.000000e+00   0.000000e+00
     2048000   2.047999e-05   1.203141e+01   4.765962e+01   2.140508e+01   5.826172e+05   1.355942e+06   3.847056e+05   3.994999e+01  -1.716560e+01   1.055628e-20   1.525130e+06   1.059312e-38   0.000000e+00   0.000000e+00
     2056000   2.055999e-05   1.207802e+01   4.776810e+01   2.143585e+01   5.826172e+05   1.355942e+06   3.847056e+05   8.548886e+00  -3.673261e+00  -5.528362e-21   1.525130e+06   4.856350e-40   0.000000e+00   0.000000e+00
     2064000   2.063999e-05   1.212463e+01   4.787657e+01   2.146663e+01   5.826172e+05   1.355942e+06   3.847056e+05   4.105068e+01  -1.763854e+01  -2.584096e-20   1.525130e+06   1.118391e-38   0.000000e+00   0.000000e+00
     2072000   2.071999e-05   1.217124e+01   4.798505e+01   2.149741e+01   5.826172e+05   1.355942e+06   3.847056e+05   4.419271e+01  -1.898860e+01  -8.867769e-21   1.525130e+06   1.296047e-38   0.000000e+00   0.000000e+00
     2080000   2.079999e-05   1.221785e+01   4.809352e+01   2.152818e+01   5.826172e+05   1.355942e+06   3.847056e+05   7.605371e+00  -3.267854e+00  -1.554108e-21   1.525130e+06   3.841089e-40   0.000000e+00   0.000000e+00
     2088000   2.087999e-05   1.226446e+01   4.820200e+01   2.155896e+01   5.826172e+05   1.355942e+06   3.847056e+05   6.740326e+00  -2.896164e+00  -7.831615e-22   1.525130e+06   3.006561e-40   0.000000e+00   0.000000e+00
     2096000   2.095999e-05   1.231107e+01   4.831047e+01   2.158974e+01   5.826172e+05   1.355942e+06   3.847056e+05   1.209385e+01  -5.196450e+00  -1.055090e-20   1.525130e+06   9.682974e-40   0.000000e+00   0.000000e+00
     2104000   2.103999e-05   1.235768e+01   4.841895e+01   2.162051e+01   5.826172e+05   1.355942e+06   3.847056e+05   2.133152e+01  -9.165666e+00  -8.268901e-21   1.525130e+06   3.022947e-39   0.000000e+00   0.000000e+00
     2112000   2.111999e-05   1.240429e+01   4.852742e+01   2.165129e+01   5.826172e+05   1.355942e+06   3.847056e+05   4.218531e+01  -1.812606e+01  -5.538265e-24   1.525130e+06   1.181321e-38   0.000000e+00   0.000000e+00
     2120000   2.119999e-05   1.245090e+01   4.863590e+01   2.168206e+01   5.826172e+05   1.355942e+06   3.847056e+05   4.245811e+01  -1.824328e+01  -1.849444e-20   1.525130e+06   1.196646e-38   0.000000e+00   0.000000e+00
     2128000   2.127999e-05   1.249751e+01   4.874437e+01   2.171284e+01   5.826172e+05   1.355942e+06   3.847056e+05  -9.446439e-01   4.058919e-01  -7.885757e-22   1.525130e+06   5.941679e-42   0.000000e+00   0.000000e+00
     2136000   2.135999e-05   1.254411e+01   4.885285e+01   2.174362e+01   5.826172e+05   1.355942e+06   3.847056e+05   2.945567e+01  -1.265643e+01   1.258053e-20   1.525130e+06   5.758536e-39   0.000000e+00   0.000000e+00
     2144000   2.143999e-05   1.259072e+01   4.896133e+01   2.177439e+01   5.826172e+05   1.355942e+06   3.847056e+05  -3.237455e+01   1.391060e+01  -1.304358e-20   1.525130e+06   6.951260e-39   0.000000e+00   0.000000e+00
     2152000   2.151999e-05   1.263733e+01   4.906980e+01   2.180517e+01   5.826172e+05   1.355942e+06   3.847056e+05   3.051714e+01  -1.311252e+01   3.041596e-20   1.525130e+06   6.180923e-39   0.000000e+00   0.000000e+00
     2160000   2.159999e-05   1.268394e+01   4.917828e+01   2.183595e+01   5.826172e+05   1.355942e+06   3.847056e+05  -3.345399e+01   1.437441e+01  -1.402169e-20   1.525130e+06   7.424920e-39   0.000000e+00   0.000000e+00
     2168000   2.167999e-05   1.273055e+01   4.928675e+01   2.186672e+01   5.826172e+05   1.355942e+06   3.847056e+05   1.601597e+00  -6.881697e-01   6.420626e-22   1.525130e+06   1.711471e-41   0.000000e+00   0.000000e+00
     2176000   2.175999e-05   1.277716e+01   4.939523e+01   2.189750e+01   5.826172e+05   1.355942e+06   3.847056e+05   6.493811e+01  -2.790242e+01  -1.018657e-20   1.525130e+06   2.798629e-38   0.000000e+00   0.000000e+00
     2184000   2.183999e-05   1.282377e+01   4.950370e+01   2.192828e+01   5.826172e+05   1.355942e+06   3.847056e+05  -9.911923e+05   4.258927e+05   6.614976e-16   1.525130e+06   6.473094e-30   0.000000e+00   0.000000e+00
     2192000   2.191999e-05   1.287038e+01   4.961218e+01   2.195905e+01   5.826163e+05   1.355942e+06   3.847056e+05   1.307287e+06  -5.617102e+05  -9.907934e-16   1.525130e+06   1.142594e-29   0.000000e+00   0.000000e+00
     2200000   2.199999e-05   1.291699e+01   4.972065e+01   2.198983e+01   5.826117e+05   1.355944e+06   3.847056e+05  -8.579447e+07   3.686350e+07   4.422808e-14   1.525130e+06   4.885847e-26   0.000000e+00   0.000000e+00
     2208000   2.207999e-05   1.296360e+01   4.982913e+01   2.202061e+01   5.825973e+05   1.355951e+06   3.847056e+05  -1.784674e+08   7.668024e+07  -5.005956e-14   1.525130e+06   2.114656e-25   0.000000e+00   0.000000e+00
     2216000   2.215999e-05   1.301021e+01   4.993760e+01   2.205138e+01   5.825917e+05   1.355953e+06   3.847056e+05   0.000000e+00   0.000000e+00   0.000000e+00   1.525130e+06   0.000000e+00   0.000000e+00   0.000000e+00
