     timestep     time              x             y              z              vx             vy             vz             ax             ay             az         v_magnitude      ELoss        Electronic      Nuclear
           0   0.000000e+00   1.000000e-01   1.754428e+01   1.354872e+01   6.186744e+05   5.687498e+05   2.215038e+05   0.000000e+00   0.000000e+00   0.000000e+00   8.690790e+05   0.000000e+00   0.000000e+00   0.000000e+00
        8000   7.999000e-08   1.494940e-01   1.758978e+01   1.356644e+01   6.186744e+05   5.687498e+05   2.215038e+05   0.000000e+00   0.000000e+00   0.000000e+00   8.690790e+05   0.000000e+00   0.000000e+00   0.000000e+00
       16000   1.599900e-07   1.989879e-01   1.763528e+01   1.358416e+01   6.186744e+05   5.687498e+05   2.215038e+05   0.000000e+00   0.000000e+00   0.000000e+00   8.690790e+05   0.000000e+00   0.000000e+00   0.000000e+00
       24000   2.399900e-07   2.484819e-01   1.768078e+01   1.360188e+01   6.186744e+05   5.687498e+05   2.215038e+05   0.000000e+00   0.000000e+00   0.000000e+00   8.690790e+05   0.000000e+00   0.000000e+00   0.000000e+00
       32000   3.199900e-07   2.979758e-01   1.772628e+01   1.361960e+01   6.186744e+05   5.687498e+05   2.215038e+05   0.000000e+00   0.000000e+00   0.000000e+00   8.690790e+05   0.000000e+00   0.000000e+00   0.000000e+00
       40000   3.999900e-07   3.474698e-01   1.777178e+01   1.363732e+01   6.186744e+05   5.687498e+05   2.215038e+05   0.000000e+00   0.000000e+00   0.000000e+00   8.690790e+05   0.000000e+00   0.000000e+00   0.000000e+00
       48000   4.799900e-07   3.969637e-01   1.781728e+01   1.365504e+01   6.186744e+05   5.687498e+05   2.215038e+05   0.000000e+00   0.000000e+00   0.000000e+00   8.690790e+05   0.000000e+00   0.000000e+00   0.000000e+00
       56000   5.599900e-07   4.464577e-01   1.786278e+01   1.367276e+01   6.186744e+05   5.687498e+05   2.215038e+05   0.000000e+00   0.000000e+00   0.000000e+00   8.690790e+05   0.000000e+00   0.000000e+00   0.000000e+00
       64000   6.399900e-07   4.959516e-01   1.790828e+01   1.369048e+01   6.186744e+05   5.687498e+05   2.215038e+05   0.000000e+00   0.000000e+00   0.000000e+00   8.690790e+05   0.000000e+00   0.000000e+00   0.000000e+00
       72000   7.199900e-07   5.454456e-01   1.795378e+01   1.370820e+01   6.186744e+05   5.687498e+05   2.215038e+05   0.000000e+00   0.000000e+00   0.000000e+00   8.690790e+05   0.000000e+00   0.000000e+00   0.000000e+00
       80000   7.999900e-07   5.949395e-01   1.799928e+01   1.372592e+01   6.186744e+05   5.687498e+05   2.215038e+05   0.000000e+00   0.000000e+00   0.000000e+00   8.690790e+05   0.000000e+00   0.000000e+00   0.000000e+00
       88000   8.799900e-07   6.444335e-01   1.804478e+01   1.374364e+01   6.186744e+05   5.687498e+05   2.215038e+05   0.000000e+00   0.000000e+00   0.000000e+00   8.690790e+05   0.000000e+00   0.000000e+00   0.000000e+00
       96000   9.599900e-07   6.939274e-01   1.809028e+01   1.376136e+01   6.186744e+05   5.687498e+05   2.215038e+05   0.000000e+00   0.000000e+00   0.000000e+00   8.690790e+05   0.000000e+00   0.000000e+00   0.000000e+00
      104000   1.039990e-06   7.434214e-01   1.813578e+01   1.377908e+01   6.186744e+05   5.687498e+05   2.215038e+05   0.000000e+00   0.000000e+00   0.000000e+00   8.690790e+05   0.000000e+00   0.000000e+00   0.000000e+00
      112000   1.119990e-06   7.929153e-01   1.818128e+01   1.379680e+01   6.186744e+05   5.687498e+05   2.215038e+05   0.000000e+00   0.000000e+00   0.000000e+00   8.690790e+05   0.000000e+00   0.000000e+00   0.000000e+00
      120000   1.199990e-06   8.424093e-01   1.822678e+01   1.381452e+01   6.186744e+05   5.687498e+05   2.215038e+05   0.000000e+00   0.000000e+00   0.000000e+00   8.690790e+05   0.000000e+00   0.000000e+00   0.000000e+00
      128000   1.279990e-06   8.919032e-01   1.827228e+01   1.383224e+01   6.186744e+05   5.687498e+05   2.215038e+05   0.000000e+00   0.000000e+00   0.000000e+00   8.690790e+05   0.000000e+00   0.000000e+00   0.000000e+00
      136000   1.359990e-06   9.413972e-01   1.831778e+01   1.384996e+01   6.186744e+05   5.687498e+05   2.215038e+05   0.000000e+00   0.000000e+00   0.000000e+00   8.690790e+05   0.000000e+00   0.000000e+00   0.000000e+00
      144000   1.439990e-06   9.908911e-01   1.836328e+01   1.386768e+01   6.186744e+05   5.687498e+05   2.215038e+05   0.000000e+00   0.000000e+00   0.000000e+00   8.690790e+05   0.000000e+00   0.000000e+00   0.000000e+00
      152000   1.519990e-06   1.040385e+00   1.840878e+01   1.388540e+01   6.186744e+05   5.687498e+05   2.215038e+05   0.000000e+00   0.000000e+00   0.000000e+00   8.690790e+05   0.000000e+00   0.000000e+00   0.000000e+00
      160000   1.599990e-06   1.089879e+00   1.845428e+01   1.390313e+01   6.186744e+05   5.687498e+05   2.215038e+05   0.000000e+00   0.000000e+00   0.000000e+00   8.690790e+05   0.000000e+00   0.000000e+00   0.000000e+00
      168000   1.679990e-06   1.139373e+00   1.849978e+01   1.392085e+01   6.186744e+05   5.687498e+05   2.215038e+05   0.000000e+00   0.000000e+00   0.000000e+00   8.690790e+05   0.000000e+00   0.000000e+00   0.000000e+00
      176000   1.759990e-06   1.188867e+00   1.854528e+01   1.393857e+01   6.186744e+05   5.687498e+05   2.215038e+05   0.000000e+00   0.000000e+00   0.000000e+00   8.690790e+05   0.000000e+00   0.000000e+00   0.000000e+00
      184000   1.839990e-06   1.238361e+00   1.859078e+01   1.395629e+01   6.186744e+05   5.687498e+05   2.215038e+05   0.000000e+00   0.000000e+00   0.000000e+00   8.690790e+05   0.000000e+00   0.000000e+00   0.000000e+00
      192000   1.919990e-06   1.287855e+00   1.863628e+01   1.397401e+01   6.186744e+05   5.687498e+05   2.215038e+05   0.000000e+00   0.000000e+00   0.000000e+00   8.690790e+05   0.000000e+00   0.000000e+00   0.000000e+00
      200000   1.999990e-06   1.337349e+00   1.868178e+01   1.399173e+01   6.186744e+05   5.687498e+05   2.215038e+05   0.000000e+00   0.000000e+00   0.000000e+00   8.690790e+05   0.000000e+00   0.000000e+00   0.000000e+00
      208000   2.079990e-06   1.386843e+00   1.872728e+01   1.400945e+01   6.186744e+05   5.687498e+05   2.215038e+05   0.000000e+00   0.000000e+00   0.000000e+00   8.690790e+05   0.000000e+00   0.000000e+00   0.000000e+00
      216000   2.159990e-06   1.436337e+00   1.877278e+01   1.402717e+01   6.186744e+05   5.687498e+05   2.215038e+05   0.000000e+00   0.000000e+00   0.000000e+00   8.690790e+05   0.000000e+00   0.000000e+00   0.000000e+00
      224000   2.239990e-06   1.485831e+00   1.881828e+01   1.404489e+01   6.186744e+05   5.687498e+05   2.215038e+05   0.000000e+00   0.000000e+00   0.000000e+00   8.690790e+05   0.000000e+00   0.000000e+00   0.000000e+00
      232000   2.319990e-06   1.535325e+00   1.886378e+01   1.406261e+01   6.186744e+05   5.687498e+05   2.215038e+05   0.000000e+00   0.000000e+00   0.000000e+00   8.690790e+05   0.000000e+00   0.000000e+00   0.000000e+00
      240000   2.399990e-06   1.584819e+00   1.890928e+01   1.408033e+01   6.186744e+05   5.687498e+05   2.215038e+05   0.000000e+00   0.000000e+00   0.000000e+00   8.690790e+05   0.000000e+00   0.000000e+00   0.000000e+00
      248000   2.479990e-06   1.634312e+00   1.895478e+01   1.409805e+01   6.186744e+05   5.687498e+05   2.215038e+05   0.000000e+00   0.000000e+00   0.000000e+00   8.690790e+05   0.000000e+00   0.000000e+00   0.000000e+00
      256000   2.559990e-06   1.683806e+00   1.900028e+01   1.411577e+01   6.186744e+05   5.687498e+05   2.215038e+05   0.000000e+00   0.000000e+00   0.000000e+00   8.690790e+05   0.000000e+00   0.000000e+00   0.000000e+00
      264000   2.639990e-06   1.733300e+00   1.904578e+01   1.413349e+01   6.186744e+05   5.687498e+05   2.215038e+05   0.000000e+00   0.000000e+00   0.000000e+00   8.690790e+05   0.000000e+00   0.000000e+00   0.000000e+00
      272000   2.719990e-06   1.782794e+00   1.909128e+01   1.415121e+01   6.186744e+05   5.687498e+05   2.215038e+05   0.000000e+00   0.000000e+00   0.000000e+00   8.690790e+05   0.000000e+00   0.000000e+00   0.000000e+00
      280000   2.799990e-06   1.832288e+00   1.913678e+01   1.416893e+01   6.186744e+05   5.687498e+05   2.215038e+05   0.000000e+00   0.000000e+00   0.000000e+00   8.690790e+05   0.000000e+00   0.000000e+00   0.000000e+00
      288000   2.879990e-06   1.881782e+00   1.918228e+01   1.418665e+01   6.186744e+05   5.687498e+05   2.215038e+05   0.000000e+00   0.000000e+00   0.000000e+00   8.690790e+05   0.000000e+00   0.000000e+00   0.000000e+00
      296000   2.959990e-06   1.931276e+00   1.922778e+01   1.420437e+01   6.186744e+05   5.687498e+05   2.215038e+05   0.000000e+00   0.000000e+00   0.000000e+00   8.690790e+05   0.000000e+00   0.000000e+00   0.000000e+00
      304000   3.039990e-06   1.980770e+00   1.927328e+01   1.422209e+01   6.186744e+05   5.687498e+05   2.215038e+05   0.000000e+00   0.000000e+00   0.000000e+00   8.690790e+05   0.000000e+00   0.000000e+00   0.000000e+00
      312000   3.119990e-06   2.030264e+00   1.931878e+01   1.423981e+01   6.186744e+05   5.687498e+05   2.215038e+05   0.000000e+00   0.000000e+00   0.000000e+00   8.690790e+05   0.000000e+00   0.000000e+00   0.000000e+00
      320000   3.199990e-06   2.079758e+00   1.936428e+01   1.425753e+01   6.186744e+05   5.687498e+05   2.215038e+05   0.000000e+00   0.000000e+00   0.000000e+00   8.690790e+05   0.000000e+00   0.000000e+00   0.000000e+00
      328000   3.279990e-06   2.129252e+00   1.940978e+01   1.427525e+01   6.186744e+05   5.687498e+05   2.215038e+05   0.000000e+00   0.000000e+00   0.000000e+00   8.690790e+05   0.000000e+00   0.000000e+00   0.000000e+00
      336000   3.359990e-06   2.178746e+00   1.945528e+01   1.429297e+01   6.186744e+05   5.687498e+05   2.215038e+05   0.000000e+00   0.000000e+00   0.000000e+00   8.690790e+05   0.000000e+00   0.000000e+00   0.000000e+00
      344000   3.439990e-06   2.228240e+00   1.950078e+01   1.431069e+01   6.186744e+05   5.687498e+05   2.215038e+05   0.000000e+00   0.000000e+00   0.000000e+00   8.690790e+05   0.000000e+00   0.000000e+00   0.000000e+00
      352000   3.519990e-06   2.277734e+00   1.954628e+01   1.432841e+01   6.186744e+05   5.687498e+05   2.215038e+05   0.000000e+00   0.000000e+00   0.000000e+00   8.690790e+05   0.000000e+00   0.000000e+00   0.000000e+00
      360000   3.599990e-06   2.327228e+00   1.959178e+01   1.434613e+01   6.186744e+05   5.687498e+05   2.215038e+05   0.000000e+00   0.000000e+00   0.000000e+00   8.690790e+05   0.000000e+00   0.000000e+00   0.000000e+00
      368000   3.679990e-06   2.376722e+00   1.963728e+01   1.436385e+01   6.186744e+05   5.687498e+05   2.215038e+05   0.000000e+00   0.000000e+00   0.000000e+00   8.690790e+05   0.000000e+00   0.000000e+00   0.000000e+00
      376000   3.759990e-06   2.426216e+00   1.968278e+01   1.438157e+01   6.186744e+05   5.687498e+05   2.215038e+05   0.000000e+00   0.000000e+00   0.000000e+00   8.690790e+05   0.000000e+00   0.000000e+00   0.000000e+00
      384000   3.839990e-06   2.475710e+00   1.972828e+01   1.439929e+01   6.186744e+05   5.687498e+05   2.215038e+05   0.000000e+00   0.000000e+00   0.000000e+00   8.690790e+05   0.000000e+00   0.000000e+00   0.000000e+00
      392000   3.919990e-06   2.525204e+00   1.977378e+01   1.441701e+01   6.186744e+05   5.687498e+05   2.215038e+05   0.000000e+00   0.000000e+00   0.000000e+00   8.690790e+05   0.000000e+00   0.000000e+00   0.000000e+00
      400000   3.999990e-06   2.574698e+00   1.981928e+01   1.443473e+01   6.186744e+05   5.687498e+05   2.215038e+05   0.000000e+00   0.000000e+00   0.000000e+00   8.690790e+05   0.000000e+00   0.000000e+00   0.000000e+00
      408000   4.079990e-06   2.624191e+00   1.986478e+01   1.445245e+01   6.186744e+05   5.687498e+05   2.215038e+05   0.000000e+00   0.000000e+00   0.000000e+00   8.690790e+05   0.000000e+00   0.000000e+00   0.000000e+00
      416000   4.159990e-06   2.673685e+00   1.991028e+01   1.447017e+01   6.186744e+05   5.687498e+05   2.215038e+05   0.000000e+00   0.000000e+00   0.000000e+00   8.690790e+05   0.000000e+00   0.000000e+00   0.000000e+00
      424000   4.239990e-06   2.723179e+00   1.995578e+01   1.448790e+01   6.186744e+05   5.687498e+05   2.215038e+05   0.000000e+00   0.000000e+00   0.000000e+00   8.690790e+05   0.000000e+00   0.000000e+00   0.000000e+00
      432000   4.319990e-06   2.772673e+00   2.000128e+01   1.450562e+01   6.186744e+05   5.687498e+05   2.215038e+05   0.000000e+00   0.000000e+00   0.000000e+00   8.690790e+05   0.000000e+00   0.000000e+00   0.000000e+00
      440000   4.399990e-06   2.822167e+00   2.004678e+01   1.452334e+01   6.186744e+05   5.687498e+05   2.215038e+05   0.000000e+00   0.000000e+00   0.000000e+00   8.690790e+05   0.000000e+00   0.000000e+00   0.000000e+00
      448000   4.479990e-06   2.871661e+00   2.009228e+01   1.454106e+01   6.186744e+05   5.687498e+05   2.215038e+05   0.000000e+00   0.000000e+00   0.000000e+00   8.690790e+05   0.000000e+00   0.000000e+00   0.000000e+00
      456000   4.559990e-06   2.921155e+00   2.013778e+01   1.455878e+01   6.186744e+05   5.687498e+05   2.215038e+05   0.000000e+00   0.000000e+00   0.000000e+00   8.690790e+05   0.000000e+00   0.000000e+00   0.000000e+00
      464000   4.639990e-06   2.970649e+00   2.018328e+01   1.457650e+01   6.186744e+05   5.687498e+05   2.215038e+05   0.000000e+00   0.000000e+00   0.000000e+00   8.690790e+05   0.000000e+00   0.000000e+00   0.000000e+00
      472000   4.719990e-06   3.020143e+00   2.022878e+01   1.459422e+01   6.186744e+05   5.687498e+05   2.215038e+05   0.000000e+00   0.000000e+00   0.000000e+00   8.690790e+05   0.000000e+00   0.000000e+00   0.000000e+00
      480000   4.799990e-06   3.069637e+00   2.027428e+01   1.461194e+01   6.186744e+05   5.687498e+05   2.215038e+05   0.000000e+00   0.000000e+00   0.000000e+00   8.690790e+05   0.000000e+00   0.000000e+00   0.000000e+00
      488000   4.879990e-06   3.119131e+00   2.031978e+01   1.462966e+01   6.186744e+05   5.687498e+05   2.215038e+05   0.000000e+00   0.000000e+00   0.000000e+00   8.690790e+05   0.000000e+00   0.000000e+00   0.000000e+00
      496000   4.959990e-06   3.168625e+00   2.036528e+01   1.464738e+01   6.186744e+05   5.687498e+05   2.215038e+05   0.000000e+00   0.000000e+00   0.000000e+00   8.690790e+05   0.000000e+00   0.000000e+00   0.000000e+00
      504000   5.039990e-06   3.218119e+00   2.041078e+01   1.466510e+01   6.186744e+05   5.687498e+05   2.215038e+05   0.000000e+00   0.000000e+00   0.000000e+00   8.690790e+05   0.000000e+00   0.000000e+00   0.000000e+00
      512000   5.119990e-06   3.267613e+00   2.045628e+01   1.468282e+01   6.186744e+05   5.687498e+05   2.215038e+05   0.000000e+00   0.000000e+00   0.000000e+00   8.690790e+05   0.000000e+00   0.000000e+00   0.000000e+00
      520000   5.199990e-06   3.317107e+00   2.050178e+01   1.470054e+01   6.186744e+05   5.687498e+05   2.215038e+05   0.000000e+00   0.000000e+00   0.000000e+00   8.690790e+05   0.000000e+00   0.000000e+00   0.000000e+00
      528000   5.279990e-06   3.366601e+00   2.054728e+01   1.471826e+01   6.186744e+05   5.687498e+05   2.215038e+05   0.000000e+00   0.000000e+00   0.000000e+00   8.690790e+05   0.000000e+00   0.000000e+00   0.000000e+00
      536000   5.359990e-06   3.416095e+00   2.059278e+01   1.473598e+01   6.186744e+05   5.687498e+05   2.215038e+05   0.000000e+00   0.000000e+00   0.000000e+00   8.690790e+05   0.000000e+00   0.000000e+00   0.000000e+00
      544000   5.439990e-06   3.465589e+00   2.063828e+01   1.475370e+01   6.186744e+05   5.687498e+05   2.215038e+05   0.000000e+00   0.000000e+00   0.000000e+00   8.690790e+05   0.000000e+00   0.000000e+00   0.000000e+00
      552000   5.519990e-06   3.515083e+00   2.068378e+01   1.477142e+01   6.186744e+05   5.687498e+05   2.215038e+05   0.000000e+00   0.000000e+00   0.000000e+00   8.690790e+05   0.000000e+00   0.000000e+00   0.000000e+00
      560000   5.599990e-06   3.564577e+00   2.072928e+01   1.478914e+01   6.186744e+05   5.687498e+05   2.215038e+05   0.000000e+00   0.000000e+00   0.000000e+00   8.690790e+05   0.000000e+00   0.000000e+00   0.000000e+00
      568000   5.679990e-06   3.614070e+00   2.077478e+01   1.480686e+01   6.186744e+05   5.687498e+05   2.215038e+05   0.000000e+00   0.000000e+00   0.000000e+00   8.690790e+05   0.000000e+00   0.000000e+00   0.000000e+00
      576000   5.759990e-06   3.663564e+00   2.082028e+01   1.482458e+01   6.186744e+05   5.687498e+05   2.215038e+05   0.000000e+00   0.000000e+00   0.000000e+00   8.690790e+05   0.000000e+00   0.000000e+00   0.000000e+00
      584000   5.839990e-06   3.713058e+00   2.086578e+01   1.484230e+01   6.186744e+05   5.687498e+05   2.215038e+05   0.000000e+00   0.000000e+00   0.000000e+00   8.690790e+05   0.000000e+00   0.000000e+00   0.000000e+00
      592000   5.919990e-06   3.762552e+00   2.091128e+01   1.486002e+01   6.186744e+05   5.687498e+05   2.215038e+05   0.000000e+00   0.000000e+00   0.000000e+00   8.690790e+05   0.000000e+00   0.000000e+00   0.000000e+00
      600000   5.999990e-06   3.812046e+00   2.095678e+01   1.487774e+01   6.186744e+05   5.687498e+05   2.215038e+05   0.000000e+00   0.000000e+00   0.000000e+00   8.690790e+05   0.000000e+00   0.000000e+00   0.000000e+00
      608000   6.079990e-06   3.861540e+00   2.100228e+01   1.489546e+01   6.186744e+05   5.687498e+05   2.215038e+05   0.000000e+00   0.000000e+00   0.000000e+00   8.690790e+05   0.000000e+00   0.000000e+00   0.000000e+00
      616000   6.159990e-06   3.911034e+00   2.104778e+01   1.491318e+01   6.186744e+05   5.687498e+05   2.215038e+05   0.000000e+00   0.000000e+00   0.000000e+00   8.690790e+05   0.000000e+00   0.000000e+00   0.000000e+00
      624000   6.239990e-06   3.960528e+00   2.109328e+01   1.493090e+01   6.186744e+05   5.687498e+05   2.215038e+05   0.000000e+00   0.000000e+00   0.000000e+00   8.690790e+05   0.000000e+00   0.000000e+00   0.000000e+00
      632000   6.319990e-06   4.010022e+00   2.113878e+01   1.494862e+01   6.186744e+05   5.687498e+05   2.215038e+05   0.000000e+00   0.000000e+00   0.000000e+00   8.690790e+05   0.000000e+00   0.000000e+00   0.000000e+00
      640000   6.399990e-06   4.059516e+00   2.118428e+01   1.496634e+01   6.186744e+05   5.687498e+05   2.215038e+05   0.000000e+00   0.000000e+00   0.000000e+00   8.690790e+05   0.000000e+00   0.000000e+00   0.000000e+00
      648000   6.479990e-06   4.109010e+00   2.122978e+01   1.498406e+01   6.186744e+05   5.687498e+05   2.215038e+05   0.000000e+00   0.000000e+00   0.000000e+00   8.690790e+05   0.000000e+00   0.000000e+00   0.000000e+00
      656000   6.559990e-06   4.158504e+00   2.127528e+01   1.500178e+01   6.186744e+05   5.687498e+05   2.215038e+05   0.000000e+00   0.000000e+00   0.000000e+00   8.690790e+05   0.000000e+00   0.000000e+00   0.000000e+00
      664000   6.639990e-06   4.207998e+00   2.132078e+01   1.501950e+01   6.186744e+05   5.687498e+05   2.215038e+05   0.000000e+00   0.000000e+00   0.000000e+00   8.690790e+05   0.000000e+00   0.000000e+00   0.000000e+00
      672000   6.719990e-06   4.257492e+00   2.136628e+01   1.503722e+01   6.186744e+05   5.687498e+05   2.215038e+05   0.000000e+00   0.000000e+00   0.000000e+00   8.690790e+05   0.000000e+00   0.000000e+00   0.000000e+00
      680000   6.799990e-06   4.306986e+00   2.141178e+01   1.505495e+01   6.186744e+05   5.687498e+05   2.215038e+05   0.000000e+00   0.000000e+00   0.000000e+00   8.690790e+05   0.000000e+00   0.000000e+00   0.000000e+00
      688000   6.879990e-06   4.356480e+00   2.145728e+01   1.507267e+01   6.186744e+05   5.687498e+05   2.215038e+05   0.000000e+00   0.000000e+00   0.000000e+00   8.690790e+05   0.000000e+00   0.000000e+00   0.000000e+00
      696000   6.959990e-06   4.405974e+00   2.150278e+01   1.509039e+01   6.186744e+05   5.687498e+05   2.215038e+05   0.000000e+00   0.000000e+00   0.000000e+00   8.690790e+05   0.000000e+00   0.000000e+00   0.000000e+00
      704000   7.039990e-06   4.455468e+00   2.154828e+01   1.510811e+01   6.186744e+05   5.687498e+05   2.215038e+05   0.000000e+00   0.000000e+00   0.000000e+00   8.690790e+05   0.000000e+00   0.000000e+00   0.000000e+00
      712000   7.119990e-06   4.504962e+00   2.159378e+01   1.512583e+01   6.186744e+05   5.687498e+05   2.215038e+05   0.000000e+00   0.000000e+00   0.000000e+00   8.690790e+05   0.000000e+00   0.000000e+00   0.000000e+00
      720000   7.199990e-06   4.554456e+00   2.163928e+01   1.514355e+01   6.186744e+05   5.687498e+05   2.215038e+05   0.000000e+00   0.000000e+00   0.000000e+00   8.690790e+05   0.000000e+00   0.000000e+00   0.000000e+00
      728000   7.279990e-06   4.603949e+00   2.168478e+01   1.516127e+01   6.186744e+05   5.687498e+05   2.215038e+05   0.000000e+00   0.000000e+00   0.000000e+00   8.690790e+05   0.000000e+00   0.000000e+00   0.000000e+00
      736000   7.359990e-06   4.653443e+00   2.173028e+01   1.517899e+01   6.186744e+05   5.687498e+05   2.215038e+05   0.000000e+00   0.000000e+00   0.000000e+00   8.690790e+05   0.000000e+00   0.000000e+00   0.000000e+00
      744000   7.439990e-06   4.702937e+00   2.177578e+01   1.519671e+01   6.186744e+05   5.687498e+05   2.215038e+05   0.000000e+00   0.000000e+00   0.000000e+00   8.690790e+05   0.000000e+00   0.000000e+00   0.000000e+00
      752000   7.519990e-06   4.752431e+00   2.182128e+01   1.521443e+01   6.186744e+05   5.687498e+05   2.215038e+05   0.000000e+00   0.000000e+00   0.000000e+00   8.690790e+05   0.000000e+00   0.000000e+00   0.000000e+00
      760000   7.599990e-06   4.801925e+00   2.186678e+01   1.523215e+01   6.186744e+05   5.687498e+05   2.215038e+05   0.000000e+00   0.000000e+00   0.000000e+00   8.690790e+05   0.000000e+00   0.000000e+00   0.000000e+00
      768000   7.679990e-06   4.851419e+00   2.191228e+01   1.524987e+01   6.186744e+05   5.687498e+05   2.215038e+05   0.000000e+00   0.000000e+00   0.000000e+00   8.690790e+05   0.000000e+00   0.000000e+00   0.000000e+00
      776000   7.759990e-06   4.900913e+00   2.195778e+01   1.526759e+01   6.186744e+05   5.687498e+05   2.215038e+05   0.000000e+00   0.000000e+00   0.000000e+00   8.690790e+05   0.000000e+00   0.000000e+00   0.000000e+00
      784000   7.839990e-06   4.950407e+00   2.200328e+01   1.528531e+01   6.186744e+05   5.687498e+05   2.215038e+05   0.000000e+00   0.000000e+00   0.000000e+00   8.690790e+05   0.000000e+00   0.000000e+00   0.000000e+00
      792000   7.919990e-06   4.999901e+00   2.204878e+01   1.530303e+01   6.186744e+05   5.687498e+05   2.215038e+05   0.000000e+00   0.000000e+00   0.000000e+00   8.690790e+05   0.000000e+00   0.000000e+00   0.000000e+00
      800000   7.999990e-06   5.049395e+00   2.209428e+01   1.532075e+01   6.186744e+05   5.687498e+05   2.215038e+05   0.000000e+00   0.000000e+00   0.000000e+00   8.690790e+05   0.000000e+00   0.000000e+00   0.000000e+00
      808000   8.079990e-06   5.098889e+00   2.213978e+01   1.533847e+01   6.186744e+05   5.687498e+05   2.215038e+05   0.000000e+00   0.000000e+00   0.000000e+00   8.690790e+05   0.000000e+00   0.000000e+00   0.000000e+00
      816000   8.159990e-06   5.148383e+00   2.218528e+01   1.535619e+01   6.186744e+05   5.687498e+05   2.215038e+05   0.000000e+00   0.000000e+00   0.000000e+00   8.690790e+05   0.000000e+00   0.000000e+00   0.000000e+00
      824000   8.239990e-06   5.197877e+00   2.223078e+01   1.537391e+01   6.186744e+05   5.687498e+05   2.215038e+05   0.000000e+00   0.000000e+00   0.000000e+00   8.690790e+05   0.000000e+00   0.000000e+00   0.000000e+00
      832000   8.319990e-06   5.247371e+00   2.227628e+01   1.539163e+01   6.186744e+05   5.687498e+05   2.215038e+05   0.000000e+00   0.000000e+00   0.000000e+00   8.690790e+05   0.000000e+00   0.000000e+00   0.000000e+00
      840000   8.399990e-06   5.296865e+00   2.232178e+01   1.540935e+01   6.186744e+05   5.687498e+05   2.215038e+05   0.000000e+00   0.000000e+00   0.000000e+00   8.690790e+05   0.000000e+00   0.000000e+00   0.000000e+00
      848000   8.479990e-06   5.346359e+00   2.236728e+01   1.542707e+01   6.186744e+05   5.687498e+05   2.215038e+05   0.000000e+00   0.000000e+00   0.000000e+00   8.690790e+05   0.000000e+00   0.000000e+00   0.000000e+00
      856000   8.559990e-06   5.395853e+00   2.241278e+01   1.544479e+01   6.186744e+05   5.687498e+05   2.215038e+05   0.000000e+00   0.000000e+00   0.000000e+00   8.690790e+05   0.000000e+00   0.000000e+00   0.000000e+00
      864000   8.639990e-06   5.445347e+00   2.245828e+01   1.546251e+01   6.186744e+05   5.687498e+05   2.215038e+05   0.000000e+00   0.000000e+00   0.000000e+00   8.690790e+05   0.000000e+00   0.000000e+00   0.000000e+00
      872000   8.719990e-06   5.494841e+00   2.250378e+01   1.548023e+01   6.186744e+05   5.687498e+05   2.215038e+05   0.000000e+00   0.000000e+00   0.000000e+00   8.690790e+05   0.000000e+00   0.000000e+00   0.000000e+00
      880000   8.799990e-06   5.544335e+00   2.254928e+01   1.549795e+01   6.186744e+05   5.687498e+05   2.215038e+05   0.000000e+00   0.000000e+00   0.000000e+00   8.690790e+05   0.000000e+00   0.000000e+00   0.000000e+00
      888000   8.879990e-06   5.593828e+00   2.259478e+01   1.551567e+01   6.186744e+05   5.687498e+05   2.215038e+05   0.000000e+00   0.000000e+00   0.000000e+00   8.690790e+05   0.000000e+00   0.000000e+00   0.000000e+00
      896000   8.959990e-06   5.643322e+00   2.264028e+01   1.553339e+01   6.186744e+05   5.687498e+05   2.215038e+05   0.000000e+00   0.000000e+00   0.000000e+00   8.690790e+05   0.000000e+00   0.000000e+00   0.000000e+00
      904000   9.039990e-06   5.692816e+00   2.268578e+01   1.555111e+01   6.186744e+05   5.687498e+05   2.215038e+05   0.000000e+00   0.000000e+00   0.000000e+00   8.690790e+05   0.000000e+00   0.000000e+00   0.000000e+00
      912000   9.119990e-06   5.742310e+00   2.273128e+01   1.556883e+01   6.186744e+05   5.687498e+05   2.215038e+05   0.000000e+00   0.000000e+00   0.000000e+00   8.690790e+05   0.000000e+00   0.000000e+00   0.000000e+00
      920000   9.199990e-06   5.791804e+00   2.277678e+01   1.558655e+01   6.186744e+05   5.687498e+05   2.215038e+05   0.000000e+00   0.000000e+00   0.000000e+00   8.690790e+05   0.000000e+00   0.000000e+00   0.000000e+00
      928000   9.279990e-06   5.841298e+00   2.282228e+01   1.560427e+01   6.186744e+05   5.687498e+05   2.215038e+05   0.000000e+00   0.000000e+00   0.000000e+00   8.690790e+05   0.000000e+00   0.000000e+00   0.000000e+00
      936000   9.359990e-06   5.890792e+00   2.286778e+01   1.562199e+01   6.186744e+05   5.687498e+05   2.215038e+05   0.000000e+00   0.000000e+00   0.000000e+00   8.690790e+05   0.000000e+00   0.000000e+00   0.000000e+00
      944000   9.439990e-06   5.940286e+00   2.291328e+01   1.563972e+01   6.186744e+05   5.687498e+05   2.215038e+05   0.000000e+00   0.000000e+00   0.000000e+00   8.690790e+05   0.000000e+00   0.000000e+00   0.000000e+00
      952000   9.519990e-06   5.989780e+00   2.295878e+01   1.565744e+01   6.186744e+05   5.687498e+05   2.215038e+05   0.000000e+00   0.000000e+00   0.000000e+00   8.690790e+05   0.000000e+00   0.000000e+00   0.000000e+00
      960000   9.599990e-06   6.039274e+00   2.300428e+01   1.567516e+01   6.186744e+05   5.687498e+05   2.215038e+05   0.000000e+00   0.000000e+00   0.000000e+00   8.690790e+05   0.000000e+00   0.000000e+00   0.000000e+00
      968000   9.679990e-06   6.088768e+00   2.304978e+01   1.569288e+01   6.186744e+05   5.687498e+05   2.215038e+05   0.000000e+00   0.000000e+00   0.000000e+00   8.690790e+05   0.000000e+00   0.000000e+00   0.000000e+00
      976000   9.759990e-06   6.138262e+00   2.309528e+01   1.571060e+01   6.186744e+05   5.687498e+05   2.215038e+05   0.000000e+00   0.000000e+00   0.000000e+00   8.690790e+05   0.000000e+00   0.000000e+00   0.000000e+00
      984000   9.839990e-06   6.187756e+00   2.314078e+01   1.572832e+01   6.186744e+05   5.687498e+05   2.215038e+05   0.000000e+00   0.000000e+00   0.000000e+00   8.690790e+05   0.000000e+00   0.000000e+00   0.000000e+00
      992000   9.919990e-06   6.237250e+00   2.318628e+01   1.574604e+01   6.186744e+05   5.687498e+05   2.215038e+05   0.000000e+00   0.000000e+00   0.000000e+00   8.690790e+05   0.000000e+00   0.000000e+00   0.000000e+00
     1000000   9.999990e-06   6.286744e+00   2.323178e+01   1.576376e+01   6.186744e+05   5.687498e+05   2.215038e+05   0.000000e+00   0.000000e+00   0.000000e+00   8.690790e+05   0.000000e+00   0.000000e+00   0.000000e+00
     1008000   1.007999e-05   6.336238e+00   2.327728e+01   1.578148e+01   6.186744e+05   5.687498e+05   2.215038e+05   0.000000e+00   0.000000e+00   0.000000e+00   8.690790e+05   0.000000e+00   0.000000e+00   0.000000e+00
     1016000   1.015999e-05   6.385732e+00   2.332278e+01   1.579920e+01   6.186744e+05   5.687498e+05   2.215038e+05   0.000000e+00   0.000000e+00   0.000000e+00   8.690790e+05   0.000000e+00   0.000000e+00   0.000000e+00
     1024000   1.023999e-05   6.435226e+00   2.336828e+01   1.581692e+01   6.186744e+05   5.687498e+05   2.215038e+05   0.000000e+00   0.000000e+00   0.000000e+00   8.690790e+05   0.000000e+00   0.000000e+00   0.000000e+00
     1032000   1.031999e-05   6.484720e+00   2.341378e+01   1.583464e+01   6.186744e+05   5.687498e+05   2.215038e+05   0.000000e+00   0.000000e+00   0.000000e+00   8.690790e+05   0.000000e+00   0.000000e+00   0.000000e+00
     1040000   1.039999e-05   6.534214e+00   2.345928e+01   1.585236e+01   6.186744e+05   5.687498e+05   2.215038e+05   0.000000e+00   0.000000e+00   0.000000e+00   8.690790e+05   0.000000e+00   0.000000e+00   0.000000e+00
     1048000   1.047999e-05   6.583707e+00   2.350478e+01   1.587008e+01   6.186744e+05   5.687498e+05   2.215038e+05   0.000000e+00   0.000000e+00   0.000000e+00   8.690790e+05   0.000000e+00   0.000000e+00   0.000000e+00
     1056000   1.055999e-05   6.633201e+00   2.355028e+01   1.588780e+01   6.186744e+05   5.687498e+05   2.215038e+05   0.000000e+00   0.000000e+00   0.000000e+00   8.690790e+05   0.000000e+00   0.000000e+00   0.000000e+00
     1064000   1.063999e-05   6.682695e+00   2.359578e+01   1.590552e+01   6.186744e+05   5.687498e+05   2.215038e+05   0.000000e+00   0.000000e+00   0.000000e+00   8.690790e+05   0.000000e+00   0.000000e+00   0.000000e+00
     1072000   1.071999e-05   6.732189e+00   2.364128e+01   1.592324e+01   6.186744e+05   5.687498e+05   2.215038e+05   0.000000e+00   0.000000e+00   0.000000e+00   8.690790e+05   0.000000e+00   0.000000e+00   0.000000e+00
     1080000   1.079999e-05   6.781683e+00   2.368678e+01   1.594096e+01   6.186744e+05   5.687498e+05   2.215038e+05   0.000000e+00   0.000000e+00   0.000000e+00   8.690790e+05   0.000000e+00   0.000000e+00   0.000000e+00
     1088000   1.087999e-05   6.831177e+00   2.373228e+01   1.595868e+01   6.186744e+05   5.687498e+05   2.215038e+05   0.000000e+00   0.000000e+00   0.000000e+00   8.690790e+05   0.000000e+00   0.000000e+00   0.000000e+00
     1096000   1.095999e-05   6.880671e+00   2.377778e+01   1.597640e+01   6.186744e+05   5.687498e+05   2.215038e+05   0.000000e+00   0.000000e+00   0.000000e+00   8.690790e+05   0.000000e+00   0.000000e+00   0.000000e+00
     1104000   1.103999e-05   6.930165e+00   2.382328e+01   1.599412e+01   6.186744e+05   5.687498e+05   2.215038e+05   0.000000e+00   0.000000e+00   0.000000e+00   8.690790e+05   0.000000e+00   0.000000e+00   0.000000e+00
     1112000   1.111999e-05   6.979659e+00   2.386878e+01   1.601184e+01   6.186744e+05   5.687498e+05   2.215038e+05   0.000000e+00   0.000000e+00   0.000000e+00   8.690790e+05   0.000000e+00   0.000000e+00   0.000000e+00
     1120000   1.119999e-05   7.029153e+00   2.391428e+01   1.602956e+01   6.186744e+05   5.687498e+05   2.215038e+05   0.000000e+00   0.000000e+00   0.000000e+00   8.690790e+05   0.000000e+00   0.000000e+00   0.000000e+00
     1128000   1.127999e-05   7.078647e+00   2.395978e+01   1.604728e+01   6.186744e+05   5.687498e+05   2.215038e+05   0.000000e+00   0.000000e+00   0.000000e+00   8.690790e+05   0.000000e+00   0.000000e+00   0.000000e+00
     1136000   1.135999e-05   7.128141e+00   2.400528e+01   1.606500e+01   6.186744e+05   5.687498e+05   2.215038e+05   0.000000e+00   0.000000e+00   0.000000e+00   8.690790e+05   0.000000e+00   0.000000e+00   0.000000e+00
     1144000   1.143999e-05   7.177635e+00   2.405078e+01   1.608272e+01   6.186744e+05   5.687498e+05   2.215038e+05   0.000000e+00   0.000000e+00   0.000000e+00   8.690790e+05   0.000000e+00   0.000000e+00   0.000000e+00
     1152000   1.151999e-05   7.227129e+00   2.409628e+01   1.610044e+01   6.186744e+05   5.687498e+05   2.215038e+05   0.000000e+00   0.000000e+00   0.000000e+00   8.690790e+05   0.000000e+00   0.000000e+00   0.000000e+00
     1160000   1.159999e-05   7.276623e+00   2.414178e+01   1.611816e+01   6.186744e+05   5.687498e+05   2.215038e+05   0.000000e+00   0.000000e+00   0.000000e+00   8.690790e+05   0.000000e+00   0.000000e+00   0.000000e+00
     1168000   1.167999e-05   7.326117e+00   2.418728e+01   1.613588e+01   6.186744e+05   5.687498e+05   2.215038e+05   0.000000e+00   0.000000e+00   0.000000e+00   8.690790e+05   0.000000e+00   0.000000e+00   0.000000e+00
     1176000   1.175999e-05   7.375611e+00   2.423278e+01   1.615360e+01   6.186744e+05   5.687498e+05   2.215038e+05   0.000000e+00   0.000000e+00   0.000000e+00   8.690790e+05   0.000000e+00   0.000000e+00   0.000000e+00
     1184000   1.183999e-05   7.425105e+00   2.427828e+01   1.617132e+01   6.186744e+05   5.687498e+05   2.215038e+05   0.000000e+00   0.000000e+00   0.000000e+00   8.690790e+05   0.000000e+00   0.000000e+00   0.000000e+00
     1192000   1.191999e-05   7.474599e+00   2.432378e+01   1.618904e+01   6.186744e+05   5.687498e+05   2.215038e+05   0.000000e+00   0.000000e+00   0.000000e+00   8.690790e+05   0.000000e+00   0.000000e+00   0.000000e+00
     1200000   1.199999e-05   7.524093e+00   2.436928e+01   1.620677e+01   6.186744e+05   5.687498e+05   2.215038e+05   0.000000e+00   0.000000e+00   0.000000e+00   8.690790e+05   0.000000e+00   0.000000e+00   0.000000e+00
     1208000   1.207999e-05   7.573586e+00   2.441478e+01   1.622449e+01   6.186744e+05   5.687498e+05   2.215038e+05   0.000000e+00   0.000000e+00   0.000000e+00   8.690790e+05   0.000000e+00   0.000000e+00   0.000000e+00
     1216000   1.215999e-05   7.623080e+00   2.446028e+01   1.624221e+01   6.186744e+05   5.687498e+05   2.215038e+05   0.000000e+00   0.000000e+00   0.000000e+00   8.690790e+05   0.000000e+00   0.000000e+00   0.000000e+00
     1224000   1.223999e-05   7.672574e+00   2.450578e+01   1.625993e+01   6.186744e+05   5.687498e+05   2.215038e+05   0.000000e+00   0.000000e+00   0.000000e+00   8.690790e+05   0.000000e+00   0.000000e+00   0.000000e+00
     1232000   1.231999e-05   7.722068e+00   2.455128e+01   1.627765e+01   6.186744e+05   5.687498e+05   2.215038e+05   0.000000e+00   0.000000e+00   0.000000e+00   8.690790e+05   0.000000e+00   0.000000e+00   0.000000e+00
     1240000   1.239999e-05   7.771562e+00   2.459678e+01   1.629537e+01   6.186744e+05   5.687498e+05   2.215038e+05   0.000000e+00   0.000000e+00   0.000000e+00   8.690790e+05   0.000000e+00   0.000000e+00   0.000000e+00
     1248000   1.247999e-05   7.821056e+00   2.464228e+01   1.631309e+01   6.186744e+05   5.687498e+05   2.215038e+05   0.000000e+00   0.000000e+00   0.000000e+00   8.690790e+05   0.000000e+00   0.000000e+00   0.000000e+00
     1256000   1.255999e-05   7.870550e+00   2.468778e+01   1.633081e+01   6.186744e+05   5.687498e+05   2.215038e+05   0.000000e+00   0.000000e+00   0.000000e+00   8.690790e+05   0.000000e+00   0.000000e+00   0.000000e+00
     1264000   1.263999e-05   7.920044e+00   2.473328e+01   1.634853e+01   6.186744e+05   5.687498e+05   2.215038e+05   0.000000e+00   0.000000e+00   0.000000e+00   8.690790e+05   0.000000e+00   0.000000e+00   0.000000e+00
     1272000   1.271999e-05   7.969538e+00   2.477878e+01   1.636625e+01   6.186744e+05   5.687498e+05   2.215038e+05   0.000000e+00   0.000000e+00   0.000000e+00   8.690790e+05   0.000000e+00   0.000000e+00   0.000000e+00
     1280000   1.279999e-05   8.019032e+00   2.482428e+01   1.638397e+01   6.186744e+05   5.687498e+05   2.215038e+05   0.000000e+00   0.000000e+00   0.000000e+00   8.690790e+05   0.000000e+00   0.000000e+00   0.000000e+00
     1288000   1.287999e-05   8.068526e+00   2.486978e+01   1.640169e+01   6.186744e+05   5.687498e+05   2.215038e+05   0.000000e+00   0.000000e+00   0.000000e+00   8.690790e+05   0.000000e+00   0.000000e+00   0.000000e+00
     1296000   1.295999e-05   8.118020e+00   2.491528e+01   1.641941e+01   6.186744e+05   5.687498e+05   2.215038e+05   0.000000e+00   0.000000e+00   0.000000e+00   8.690790e+05   0.000000e+00   0.000000e+00   0.000000e+00
     1304000   1.303999e-05   8.167514e+00   2.496078e+01   1.643713e+01   6.186744e+05   5.687498e+05   2.215038e+05   0.000000e+00   0.000000e+00   0.000000e+00   8.690790e+05   0.000000e+00   0.000000e+00   0.000000e+00
     1312000   1.311999e-05   8.217008e+00   2.500628e+01   1.645485e+01   6.186744e+05   5.687498e+05   2.215038e+05   0.000000e+00   0.000000e+00   0.000000e+00   8.690790e+05   0.000000e+00   0.000000e+00   0.000000e+00
     1320000   1.319999e-05   8.266502e+00   2.505178e+01   1.647257e+01   6.186744e+05   5.687498e+05   2.215038e+05   0.000000e+00   0.000000e+00   0.000000e+00   8.690790e+05   0.000000e+00   0.000000e+00   0.000000e+00
     1328000   1.327999e-05   8.315996e+00   2.509728e+01   1.649029e+01   6.186744e+05   5.687498e+05   2.215038e+05   0.000000e+00   0.000000e+00   0.000000e+00   8.690790e+05   0.000000e+00   0.000000e+00   0.000000e+00
     1336000   1.335999e-05   8.365490e+00   2.514278e+01   1.650801e+01   6.186744e+05   5.687498e+05   2.215038e+05   0.000000e+00   0.000000e+00   0.000000e+00   8.690790e+05   0.000000e+00   0.000000e+00   0.000000e+00
     1344000   1.343999e-05   8.414984e+00   2.518828e+01   1.652573e+01   6.186744e+05   5.687498e+05   2.215038e+05   0.000000e+00   0.000000e+00   0.000000e+00   8.690790e+05   0.000000e+00   0.000000e+00   0.000000e+00
     1352000   1.351999e-05   8.464478e+00   2.523378e+01   1.654345e+01   6.186744e+05   5.687498e+05   2.215038e+05   0.000000e+00   0.000000e+00   0.000000e+00   8.690790e+05   0.000000e+00   0.000000e+00   0.000000e+00
     1360000   1.359999e-05   8.513972e+00   2.527928e+01   1.656117e+01   6.186744e+05   5.687498e+05   2.215038e+05   0.000000e+00   0.000000e+00   0.000000e+00   8.690790e+05   0.000000e+00   0.000000e+00   0.000000e+00
     1368000   1.367999e-05   8.563465e+00   2.532478e+01   1.657889e+01   6.186744e+05   5.687498e+05   2.215038e+05   0.000000e+00   0.000000e+00   0.000000e+00   8.690790e+05   0.000000e+00   0.000000e+00   0.000000e+00
     1376000   1.375999e-05   8.612959e+00   2.537028e+01   1.659661e+01   6.186744e+05   5.687498e+05   2.215038e+05   0.000000e+00   0.000000e+00   0.000000e+00   8.690790e+05   0.000000e+00   0.000000e+00   0.000000e+00
     1384000   1.383999e-05   8.662453e+00   2.541578e+01   1.661433e+01   6.186744e+05   5.687498e+05   2.215038e+05   0.000000e+00   0.000000e+00   0.000000e+00   8.690790e+05   0.000000e+00   0.000000e+00   0.000000e+00
     1392000   1.391999e-05   8.711947e+00   2.546128e+01   1.663205e+01   6.186744e+05   5.687498e+05   2.215038e+05   0.000000e+00   0.000000e+00   0.000000e+00   8.690790e+05   0.000000e+00   0.000000e+00   0.000000e+00
     1400000   1.399999e-05   8.761441e+00   2.550678e+01   1.664977e+01   6.186744e+05   5.687498e+05   2.215038e+05   0.000000e+00   0.000000e+00   0.000000e+00   8.690790e+05   0.000000e+00   0.000000e+00   0.000000e+00
     1408000   1.407999e-05   8.810935e+00   2.555228e+01   1.666749e+01   6.186744e+05   5.687498e+05   2.215038e+05   0.000000e+00   0.000000e+00   0.000000e+00   8.690790e+05   0.000000e+00   0.000000e+00   0.000000e+00
     1416000   1.415999e-05   8.860429e+00   2.559778e+01   1.668521e+01   6.186744e+05   5.687498e+05   2.215038e+05   0.000000e+00   0.000000e+00   0.000000e+00   8.690790e+05   0.000000e+00   0.000000e+00   0.000000e+00
     1424000   1.423999e-05   8.909923e+00   2.564328e+01   1.670293e+01   6.186744e+05   5.687498e+05   2.215038e+05   0.000000e+00   0.000000e+00   0.000000e+00   8.690790e+05   0.000000e+00   0.000000e+00   0.000000e+00
     1432000   1.431999e-05   8.959417e+00   2.568878e+01   1.672065e+01   6.186744e+05   5.687498e+05   2.215038e+05   0.000000e+00   0.000000e+00   0.000000e+00   8.690790e+05   0.000000e+00   0.000000e+00   0.000000e+00
     1440000   1.439999e-05   9.008911e+00   2.573428e+01   1.673837e+01   6.186744e+05   5.687498e+05   2.215038e+05   0.000000e+00   0.000000e+00   0.000000e+00   8.690790e+05   0.000000e+00   0.000000e+00   0.000000e+00
     1448000   1.447999e-05   9.058405e+00   2.577978e+01   1.675609e+01   6.186744e+05   5.687498e+05   2.215038e+05   0.000000e+00   0.000000e+00   0.000000e+00   8.690790e+05   0.000000e+00   0.000000e+00   0.000000e+00
     1456000   1.455999e-05   9.107899e+00   2.582528e+01   1.677381e+01   6.186744e+05   5.687498e+05   2.215038e+05   0.000000e+00   0.000000e+00   0.000000e+00   8.690790e+05   0.000000e+00   0.000000e+00   0.000000e+00
     1464000   1.463999e-05   9.157393e+00   2.587078e+01   1.679154e+01   6.186744e+05   5.687498e+05   2.215038e+05   0.000000e+00   0.000000e+00   0.000000e+00   8.690790e+05   0.000000e+00   0.000000e+00   0.000000e+00
     1472000   1.471999e-05   9.206887e+00   2.591628e+01   1.680926e+01   6.186744e+05   5.687498e+05   2.215038e+05   0.000000e+00   0.000000e+00   0.000000e+00   8.690790e+05   0.000000e+00   0.000000e+00   0.000000e+00
     1480000   1.479999e-05   9.256381e+00   2.596178e+01   1.682698e+01   6.186744e+05   5.687498e+05   2.215038e+05   0.000000e+00   0.000000e+00   0.000000e+00   8.690790e+05   0.000000e+00   0.000000e+00   0.000000e+00
     1488000   1.487999e-05   9.305875e+00   2.600728e+01   1.684470e+01   6.186744e+05   5.687498e+05   2.215038e+05   0.000000e+00   0.000000e+00   0.000000e+00   8.690790e+05   0.000000e+00   0.000000e+00   0.000000e+00
     1496000   1.495999e-05   9.355369e+00   2.605278e+01   1.686242e+01   6.186744e+05   5.687498e+05   2.215038e+05   0.000000e+00   0.000000e+00   0.000000e+00   8.690790e+05   0.000000e+00   0.000000e+00   0.000000e+00
     1504000   1.503999e-05   9.404863e+00   2.609828e+01   1.688014e+01   6.186744e+05   5.687498e+05   2.215038e+05   0.000000e+00   0.000000e+00   0.000000e+00   8.690790e+05   0.000000e+00   0.000000e+00   0.000000e+00
     1512000   1.511999e-05   9.454357e+00   2.614378e+01   1.689786e+01   6.186744e+05   5.687498e+05   2.215038e+05   0.000000e+00   0.000000e+00   0.000000e+00   8.690790e+05   0.000000e+00   0.000000e+00   0.000000e+00
     1520000   1.519999e-05   9.503851e+00   2.618928e+01   1.691558e+01   6.186744e+05   5.687498e+05   2.215038e+05   0.000000e+00   0.000000e+00   0.000000e+00   8.690790e+05   0.000000e+00   0.000000e+00   0.000000e+00
     1528000   1.527999e-05   9.553344e+00   2.623478e+01   1.693330e+01   6.186744e+05   5.687498e+05   2.215038e+05   0.000000e+00   0.000000e+00   0.000000e+00   8.690790e+05   0.000000e+00   0.000000e+00   0.000000e+00
     1536000   1.535999e-05   9.602838e+00   2.628028e+01   1.695102e+01   6.186744e+05   5.687498e+05   2.215038e+05   0.000000e+00   0.000000e+00   0.000000e+00   8.690790e+05   0.000000e+00   0.000000e+00   0.000000e+00
     1544000   1.543999e-05   9.652332e+00   2.632578e+01   1.696874e+01   6.186744e+05   5.687498e+05   2.215038e+05   0.000000e+00   0.000000e+00   0.000000e+00   8.690790e+05   0.000000e+00   0.000000e+00   0.000000e+00
     1552000   1.551999e-05   9.701826e+00   2.637128e+01   1.698646e+01   6.186744e+05   5.687498e+05   2.215038e+05   0.000000e+00   0.000000e+00   0.000000e+00   8.690790e+05   0.000000e+00   0.000000e+00   0.000000e+00
     1560000   1.559999e-05   9.751320e+00   2.641678e+01   1.700418e+01   6.186744e+05   5.687498e+05   2.215038e+05   0.000000e+00   0.000000e+00   0.000000e+00   8.690790e+05   0.000000e+00   0.000000e+00   0.000000e+00
     1568000   1.567999e-05   9.800814e+00   2.646228e+01   1.702190e+01   6.186744e+05   5.687498e+05   2.215038e+05   0.000000e+00   0.000000e+00   0.000000e+00   8.690790e+05   0.000000e+00   0.000000e+00   0.000000e+00
     1576000   1.575999e-05   9.850308e+00   2.650778e+01   1.703962e+01   6.186744e+05   5.687498e+05   2.215038e+05   0.000000e+00   0.000000e+00   0.000000e+00   8.690790e+05   0.000000e+00   0.000000e+00   0.000000e+00
     1584000   1.583999e-05   9.899802e+00   2.655328e+01   1.705734e+01   6.186744e+05   5.687498e+05   2.215038e+05   0.000000e+00   0.000000e+00   0.000000e+00   8.690790e+05   0.000000e+00   0.000000e+00   0.000000e+00
     1592000   1.591999e-05   9.949296e+00   2.659878e+01   1.707506e+01   6.186744e+05   5.687498e+05   2.215038e+05   0.000000e+00   0.000000e+00   0.000000e+00   8.690790e+05   0.000000e+00   0.000000e+00   0.000000e+00
     1600000   1.599999e-05   9.998790e+00   2.664428e+01   1.709278e+01   6.186744e+05   5.687498e+05   2.215038e+05   0.000000e+00   0.000000e+00   0.000000e+00   8.690790e+05   0.000000e+00   0.000000e+00   0.000000e+00
     1608000   1.607999e-05   1.004828e+01   2.668978e+01   1.711050e+01   6.186744e+05   5.687498e+05   2.215038e+05   0.000000e+00   0.000000e+00   0.000000e+00   8.690790e+05   0.000000e+00   0.000000e+00   0.000000e+00
     1616000   1.615999e-05   1.009778e+01   2.673528e+01   1.712822e+01   6.186744e+05   5.687498e+05   2.215038e+05   0.000000e+00   0.000000e+00   0.000000e+00   8.690790e+05   0.000000e+00   0.000000e+00   0.000000e+00
     1624000   1.623999e-05   1.014727e+01   2.678078e+01   1.714594e+01   6.186744e+05   5.687498e+05   2.215038e+05   0.000000e+00   0.000000e+00   0.000000e+00   8.690790e+05   0.000000e+00   0.000000e+00   0.000000e+00
     1632000   1.631999e-05   1.019677e+01   2.682628e+01   1.716366e+01   6.186744e+05   5.687498e+05   2.215038e+05   0.000000e+00   0.000000e+00   0.000000e+00   8.690790e+05   0.000000e+00   0.000000e+00   0.000000e+00
     1640000   1.639999e-05   1.024626e+01   2.687178e+01   1.718138e+01   6.186744e+05   5.687498e+05   2.215038e+05   0.000000e+00   0.000000e+00   0.000000e+00   8.690790e+05   0.000000e+00   0.000000e+00   0.000000e+00
     1648000   1.647999e-05   1.029575e+01   2.691728e+01   1.719910e+01   6.186744e+05   5.687498e+05   2.215038e+05   0.000000e+00   0.000000e+00   0.000000e+00   8.690790e+05   0.000000e+00   0.000000e+00   0.000000e+00
     1656000   1.655999e-05   1.034525e+01   2.696278e+01   1.721682e+01   6.186744e+05   5.687498e+05   2.215038e+05   0.000000e+00   0.000000e+00   0.000000e+00   8.690790e+05   0.000000e+00   0.000000e+00   0.000000e+00
     1664000   1.663999e-05   1.039474e+01   2.700828e+01   1.723454e+01   6.186744e+05   5.687498e+05   2.215038e+05   0.000000e+00   0.000000e+00   0.000000e+00   8.690790e+05   0.000000e+00   0.000000e+00   0.000000e+00
     1672000   1.671999e-05   1.044424e+01   2.705378e+01   1.725226e+01   6.186744e+05   5.687498e+05   2.215038e+05   0.000000e+00   0.000000e+00   0.000000e+00   8.690790e+05   0.000000e+00   0.000000e+00   0.000000e+00
     1680000   1.679999e-05   1.049373e+01   2.709928e+01   1.726998e+01   6.186744e+05   5.687498e+05   2.215038e+05   0.000000e+00   0.000000e+00   0.000000e+00   8.690790e+05   0.000000e+00   0.000000e+00   0.000000e+00
     1688000   1.687999e-05   1.054322e+01   2.714478e+01   1.728770e+01   6.186744e+05   5.687498e+05   2.215038e+05   0.000000e+00   0.000000e+00   0.000000e+00   8.690790e+05   0.000000e+00   0.000000e+00   0.000000e+00
     1696000   1.695999e-05   1.059272e+01   2.719028e+01   1.730542e+01   6.186744e+05   5.687498e+05   2.215038e+05   0.000000e+00   0.000000e+00   0.000000e+00   8.690790e+05   0.000000e+00   0.000000e+00   0.000000e+00
     1704000   1.703999e-05   1.064221e+01   2.723578e+01   1.732314e+01   6.186744e+05   5.687498e+05   2.215038e+05   0.000000e+00   0.000000e+00   0.000000e+00   8.690790e+05   0.000000e+00   0.000000e+00   0.000000e+00
     1712000   1.711999e-05   1.069171e+01   2.728128e+01   1.734086e+01   6.186744e+05   5.687498e+05   2.215038e+05   0.000000e+00   0.000000e+00   0.000000e+00   8.690790e+05   0.000000e+00   0.000000e+00   0.000000e+00
     1720000   1.719999e-05   1.074120e+01   2.732678e+01   1.735859e+01   6.186744e+05   5.687498e+05   2.215038e+05   0.000000e+00   0.000000e+00   0.000000e+00   8.690790e+05   0.000000e+00   0.000000e+00   0.000000e+00
     1728000   1.727999e-05   1.079069e+01   2.737228e+01   1.737631e+01   6.186744e+05   5.687498e+05   2.215038e+05   0.000000e+00   0.000000e+00   0.000000e+00   8.690790e+05   0.000000e+00   0.000000e+00   0.000000e+00
     1736000   1.735999e-05   1.084019e+01   2.741778e+01   1.739403e+01   6.186744e+05   5.687498e+05   2.215038e+05   0.000000e+00   0.000000e+00   0.000000e+00   8.690790e+05   0.000000e+00   0.000000e+00   0.000000e+00
     1744000   1.743999e-05   1.088968e+01   2.746328e+01   1.741175e+01   6.186744e+05   5.687498e+05   2.215038e+05   0.000000e+00   0.000000e+00   0.000000e+00   8.690790e+05   0.000000e+00   0.000000e+00   0.000000e+00
     1752000   1.751999e-05   1.093918e+01   2.750878e+01   1.742947e+01   6.186744e+05   5.687498e+05   2.215038e+05   0.000000e+00   0.000000e+00   0.000000e+00   8.690790e+05   0.000000e+00   0.000000e+00   0.000000e+00
     1760000   1.759999e-05   1.098867e+01   2.755428e+01   1.744719e+01   6.186744e+05   5.687498e+05   2.215038e+05   0.000000e+00   0.000000e+00   0.000000e+00   8.690790e+05   0.000000e+00   0.000000e+00   0.000000e+00
     1768000   1.767999e-05   1.103816e+01   2.759978e+01   1.746491e+01   6.186744e+05   5.687498e+05   2.215038e+05   0.000000e+00   0.000000e+00   0.000000e+00   8.690790e+05   0.000000e+00   0.000000e+00   0.000000e+00
     1776000   1.775999e-05   1.108766e+01   2.764528e+01   1.748263e+01   6.186744e+05   5.687498e+05   2.215038e+05   0.000000e+00   0.000000e+00   0.000000e+00   8.690790e+05   0.000000e+00   0.000000e+00   0.000000e+00
     1784000   1.783999e-05   1.113715e+01   2.769078e+01   1.750035e+01   6.186744e+05   5.687498e+05   2.215038e+05   0.000000e+00   0.000000e+00   0.000000e+00   8.690790e+05   0.000000e+00   0.000000e+00   0.000000e+00
     1792000   1.791999e-05   1.118664e+01   2.773628e+01   1.751807e+01   6.186744e+05   5.687498e+05   2.215038e+05   0.000000e+00   0.000000e+00   0.000000e+00   8.690790e+05   0.000000e+00   0.000000e+00   0.000000e+00
     1800000   1.799999e-05   1.123614e+01   2.778178e+01   1.753579e+01   6.186744e+05   5.687498e+05   2.215038e+05   0.000000e+00   0.000000e+00   0.000000e+00   8.690790e+05   0.000000e+00   0.000000e+00   0.000000e+00
     1808000   1.807999e-05   1.128563e+01   2.782728e+01   1.755351e+01   6.186744e+05   5.687498e+05   2.215038e+05   0.000000e+00   0.000000e+00   0.000000e+00   8.690790e+05   0.000000e+00   0.000000e+00   0.000000e+00
     1816000   1.815999e-05   1.133513e+01   2.787278e+01   1.757123e+01   6.186744e+05   5.687498e+05   2.215038e+05   0.000000e+00   0.000000e+00   0.000000e+00   8.690790e+05   0.000000e+00   0.000000e+00   0.000000e+00
     1824000   1.823999e-05   1.138462e+01   2.791828e+01   1.758895e+01   6.186744e+05   5.687498e+05   2.215038e+05   0.000000e+00   0.000000e+00   0.000000e+00   8.690790e+05   0.000000e+00   0.000000e+00   0.000000e+00
     1832000   1.831999e-05   1.143411e+01   2.796378e+01   1.760667e+01   6.186744e+05   5.687498e+05   2.215038e+05   0.000000e+00   0.000000e+00   0.000000e+00   8.690790e+05   0.000000e+00   0.000000e+00   0.000000e+00
     1840000   1.839999e-05   1.148361e+01   2.800928e+01   1.762439e+01   6.186744e+05   5.687498e+05   2.215038e+05   0.000000e+00   0.000000e+00   0.000000e+00   8.690790e+05   0.000000e+00   0.000000e+00   0.000000e+00
     1848000   1.847999e-05   1.153310e+01   2.805478e+01   1.764211e+01   6.186744e+05   5.687498e+05   2.215038e+05   0.000000e+00   0.000000e+00   0.000000e+00   8.690790e+05   0.000000e+00   0.000000e+00   0.000000e+00
     1856000   1.855999e-05   1.158260e+01   2.810028e+01   1.765983e+01   6.186744e+05   5.687498e+05   2.215038e+05   0.000000e+00   0.000000e+00   0.000000e+00   8.690790e+05   0.000000e+00   0.000000e+00   0.000000e+00
     1864000   1.863999e-05   1.163209e+01   2.814578e+01   1.767755e+01   6.186744e+05   5.687498e+05   2.215038e+05   0.000000e+00   0.000000e+00   0.000000e+00   8.690790e+05   0.000000e+00   0.000000e+00   0.000000e+00
     1872000   1.871999e-05   1.168158e+01   2.819128e+01   1.769527e+01   6.186744e+05   5.687498e+05   2.215038e+05   0.000000e+00   0.000000e+00   0.000000e+00   8.690790e+05   0.000000e+00   0.000000e+00   0.000000e+00
     1880000   1.879999e-05   1.173108e+01   2.823678e+01   1.771299e+01   6.186744e+05   5.687498e+05   2.215038e+05   0.000000e+00   0.000000e+00   0.000000e+00   8.690790e+05   0.000000e+00   0.000000e+00   0.000000e+00
     1888000   1.887999e-05   1.178057e+01   2.828228e+01   1.773071e+01   6.186744e+05   5.687498e+05   2.215038e+05   0.000000e+00   0.000000e+00   0.000000e+00   8.690790e+05   0.000000e+00   0.000000e+00   0.000000e+00
     1896000   1.895999e-05   1.183007e+01   2.832778e+01   1.774843e+01   6.186744e+05   5.687498e+05   2.215038e+05   0.000000e+00   0.000000e+00   0.000000e+00   8.690790e+05   0.000000e+00   0.000000e+00   0.000000e+00
     1904000   1.903999e-05   1.187956e+01   2.837328e+01   1.776615e+01   6.186744e+05   5.687498e+05   2.215038e+05   0.000000e+00   0.000000e+00   0.000000e+00   8.690790e+05   0.000000e+00   0.000000e+00   0.000000e+00
     1912000   1.911999e-05   1.192905e+01   2.841878e+01   1.778387e+01   6.186744e+05   5.687498e+05   2.215038e+05   0.000000e+00   0.000000e+00   0.000000e+00   8.690790e+05   0.000000e+00   0.000000e+00   0.000000e+00
     1920000   1.919999e-05   1.197855e+01   2.846428e+01   1.780159e+01   6.186744e+05   5.687498e+05   2.215038e+05   0.000000e+00   0.000000e+00   0.000000e+00   8.690790e+05   0.000000e+00   0.000000e+00   0.000000e+00
     1928000   1.927999e-05   1.202804e+01   2.850978e+01   1.781931e+01   6.186744e+05   5.687498e+05   2.215038e+05   0.000000e+00   0.000000e+00   0.000000e+00   8.690790e+05   0.000000e+00   0.000000e+00   0.000000e+00
     1936000   1.935999e-05   1.207754e+01   2.855528e+01   1.783703e+01   6.186744e+05   5.687498e+05   2.215038e+05   0.000000e+00   0.000000e+00   0.000000e+00   8.690790e+05   0.000000e+00   0.000000e+00   0.000000e+00
     1944000   1.943999e-05   1.212703e+01   2.860078e+01   1.785475e+01   6.186744e+05   5.687498e+05   2.215038e+05   0.000000e+00   0.000000e+00   0.000000e+00   8.690790e+05   0.000000e+00   0.000000e+00   0.000000e+00
     1952000   1.951999e-05   1.217652e+01   2.864628e+01   1.787247e+01   6.186744e+05   5.687498e+05   2.215038e+05   0.000000e+00   0.000000e+00   0.000000e+00   8.690790e+05   0.000000e+00   0.000000e+00   0.000000e+00
     1960000   1.959999e-05   1.222602e+01   2.869178e+01   1.789019e+01   6.186744e+05   5.687498e+05   2.215038e+05   0.000000e+00   0.000000e+00   0.000000e+00   8.690790e+05   0.000000e+00   0.000000e+00   0.000000e+00
     1968000   1.967999e-05   1.227551e+01   2.873728e+01   1.790791e+01   6.186744e+05   5.687498e+05   2.215038e+05   0.000000e+00   0.000000e+00   0.000000e+00   8.690790e+05   0.000000e+00   0.000000e+00   0.000000e+00
     1976000   1.975999e-05   1.232501e+01   2.878278e+01   1.792563e+01   6.186744e+05   5.687498e+05   2.215038e+05   0.000000e+00   0.000000e+00   0.000000e+00   8.690790e+05   0.000000e+00   0.000000e+00   0.000000e+00
     1984000   1.983999e-05   1.237450e+01   2.882828e+01   1.794336e+01   6.186744e+05   5.687498e+05   2.215038e+05   0.000000e+00   0.000000e+00   0.000000e+00   8.690790e+05   0.000000e+00   0.000000e+00   0.000000e+00
     1992000   1.991999e-05   1.242399e+01   2.887378e+01   1.796108e+01   6.186744e+05   5.687498e+05   2.215038e+05   0.000000e+00   0.000000e+00   0.000000e+00   8.690790e+05   0.000000e+00   0.000000e+00   0.000000e+00
     2000000   1.999999e-05   1.247349e+01   2.891928e+01   1.797880e+01   6.186744e+05   5.687498e+05   2.215038e+05   0.000000e+00   0.000000e+00   0.000000e+00   8.690790e+05   0.000000e+00   0.000000e+00   0.000000e+00
     2008000   2.007999e-05   1.252298e+01   2.896478e+01   1.799652e+01   6.186744e+05   5.687498e+05   2.215038e+05   0.000000e+00   0.000000e+00   0.000000e+00   8.690790e+05   0.000000e+00   0.000000e+00   0.000000e+00
     2016000   2.015999e-05   1.257248e+01   2.901028e+01   1.801424e+01   6.186744e+05   5.687498e+05   2.215038e+05   0.000000e+00   0.000000e+00   0.000000e+00   8.690790e+05   0.000000e+00   0.000000e+00   0.000000e+00
     2024000   2.023999e-05   1.262197e+01   2.905578e+01   1.803196e+01   6.186744e+05   5.687498e+05   2.215038e+05   0.000000e+00   0.000000e+00   0.000000e+00   8.690790e+05   0.000000e+00   0.000000e+00   0.000000e+00
     2032000   2.031999e-05   1.267146e+01   2.910128e+01   1.804968e+01   6.186744e+05   5.687498e+05   2.215038e+05   0.000000e+00   0.000000e+00   0.000000e+00   8.690790e+05   0.000000e+00   0.000000e+00   0.000000e+00
     2040000   2.039999e-05   1.272096e+01   2.914678e+01   1.806740e+01   6.186744e+05   5.687498e+05   2.215038e+05   0.000000e+00   0.000000e+00   0.000000e+00   8.690790e+05   0.000000e+00   0.000000e+00   0.000000e+00
     2048000   2.047999e-05   1.277045e+01   2.919228e+01   1.808512e+01   6.186744e+05   5.687498e+05   2.215038e+05   0.000000e+00   0.000000e+00   0.000000e+00   8.690790e+05   0.000000e+00   0.000000e+00   0.000000e+00
     2056000   2.055999e-05   1.281995e+01   2.923778e+01   1.810284e+01   6.186744e+05   5.687498e+05   2.215038e+05   0.000000e+00   0.000000e+00   0.000000e+00   8.690790e+05   0.000000e+00   0.000000e+00   0.000000e+00
     2064000   2.063999e-05   1.286944e+01   2.928328e+01   1.812056e+01   6.186744e+05   5.687498e+05   2.215038e+05   0.000000e+00   0.000000e+00   0.000000e+00   8.690790e+05   0.000000e+00   0.000000e+00   0.000000e+00
     2072000   2.071999e-05   1.291893e+01   2.932878e+01   1.813828e+01   6.186744e+05   5.687498e+05   2.215038e+05   0.000000e+00   0.000000e+00   0.000000e+00   8.690790e+05   0.000000e+00   0.000000e+00   0.000000e+00
     2080000   2.079999e-05   1.296843e+01   2.937428e+01   1.815600e+01   6.186744e+05   5.687498e+05   2.215038e+05   0.000000e+00   0.000000e+00   0.000000e+00   8.690790e+05   0.000000e+00   0.000000e+00   0.000000e+00
     2088000   2.087999e-05   1.301792e+01   2.941978e+01   1.817372e+01   6.186744e+05   5.687498e+05   2.215038e+05   0.000000e+00   0.000000e+00   0.000000e+00   8.690790e+05   0.000000e+00   0.000000e+00   0.000000e+00
     2096000   2.095999e-05   1.306741e+01   2.946528e+01   1.819144e+01   6.186744e+05   5.687498e+05   2.215038e+05   0.000000e+00   0.000000e+00   0.000000e+00   8.690790e+05   0.000000e+00   0.000000e+00   0.000000e+00
     2104000   2.103999e-05   1.311691e+01   2.951078e+01   1.820916e+01   6.186744e+05   5.687498e+05   2.215038e+05   0.000000e+00   0.000000e+00   0.000000e+00   8.690790e+05   0.000000e+00   0.000000e+00   0.000000e+00
     2112000   2.111999e-05   1.316640e+01   2.955628e+01   1.822688e+01   6.186744e+05   5.687498e+05   2.215038e+05   0.000000e+00   0.000000e+00   0.000000e+00   8.690790e+05   0.000000e+00   0.000000e+00   0.000000e+00
     2120000   2.119999e-05   1.321590e+01   2.960178e+01   1.824460e+01   6.186744e+05   5.687498e+05   2.215038e+05   0.000000e+00   0.000000e+00   0.000000e+00   8.690790e+05   0.000000e+00   0.000000e+00   0.000000e+00
     2128000   2.127999e-05   1.326539e+01   2.964728e+01   1.826232e+01   6.186744e+05   5.687498e+05   2.215038e+05   0.000000e+00   0.000000e+00   0.000000e+00   8.690790e+05   0.000000e+00   0.000000e+00   0.000000e+00
     2136000   2.135999e-05   1.331488e+01   2.969278e+01   1.828004e+01   6.186744e+05   5.687498e+05   2.215038e+05   0.000000e+00   0.000000e+00   0.000000e+00   8.690790e+05   0.000000e+00   0.000000e+00   0.000000e+00
     2144000   2.143999e-05   1.336438e+01   2.973828e+01   1.829776e+01   6.186744e+05   5.687498e+05   2.215038e+05   0.000000e+00   0.000000e+00   0.000000e+00   8.690790e+05   0.000000e+00   0.000000e+00   0.000000e+00
     2152000   2.151999e-05   1.341387e+01   2.978378e+01   1.831548e+01   6.186744e+05   5.687498e+05   2.215038e+05   0.000000e+00   0.000000e+00   0.000000e+00   8.690790e+05   0.000000e+00   0.000000e+00   0.000000e+00
     2160000   2.159999e-05   1.346337e+01   2.982928e+01   1.833320e+01   6.186744e+05   5.687498e+05   2.215038e+05   0.000000e+00   0.000000e+00   0.000000e+00   8.690790e+05   0.000000e+00   0.000000e+00   0.000000e+00
     2168000   2.167999e-05   1.351286e+01   2.987478e+01   1.835092e+01   6.186744e+05   5.687498e+05   2.215038e+05   0.000000e+00   0.000000e+00   0.000000e+00   8.690790e+05   0.000000e+00   0.000000e+00   0.000000e+00
     2176000   2.175999e-05   1.356235e+01   2.992028e+01   1.836864e+01   6.186744e+05   5.687498e+05   2.215038e+05   0.000000e+00   0.000000e+00   0.000000e+00   8.690790e+05   0.000000e+00   0.000000e+00   0.000000e+00
     2184000   2.183999e-05   1.361185e+01   2.996578e+01   1.838636e+01   6.186744e+05   5.687498e+05   2.215038e+05   0.000000e+00   0.000000e+00   0.000000e+00   8.690790e+05   0.000000e+00   0.000000e+00   0.000000e+00
     2192000   2.191999e-05   1.366134e+01   3.001128e+01   1.840408e+01   6.186744e+05   5.687498e+05   2.215038e+05   0.000000e+00   0.000000e+00   0.000000e+00   8.690790e+05   0.000000e+00   0.000000e+00   0.000000e+00
     2200000   2.199999e-05   1.371084e+01   3.005678e+01   1.842180e+01   6.186744e+05   5.687498e+05   2.215038e+05   0.000000e+00   0.000000e+00   0.000000e+00   8.690790e+05   0.000000e+00   0.000000e+00   0.000000e+00
     2208000   2.207999e-05   1.376033e+01   3.010228e+01   1.843952e+01   6.186744e+05   5.687498e+05   2.215038e+05   0.000000e+00   0.000000e+00   0.000000e+00   8.690790e+05   0.000000e+00   0.000000e+00   0.000000e+00
     2216000   2.215999e-05   1.380982e+01   3.014778e+01   1.845724e+01   6.186744e+05   5.687498e+05   2.215038e+05   0.000000e+00   0.000000e+00   0.000000e+00   8.690790e+05   0.000000e+00   0.000000e+00   0.000000e+00
     2224000   2.223999e-05   1.385932e+01   3.019328e+01   1.847496e+01   6.186744e+05   5.687498e+05   2.215038e+05   0.000000e+00   0.000000e+00   0.000000e+00   8.690790e+05   0.000000e+00   0.000000e+00   0.000000e+00
     2232000   2.231999e-05   1.390881e+01   3.023878e+01   1.849268e+01   6.186744e+05   5.687498e+05   2.215038e+05   0.000000e+00   0.000000e+00   0.000000e+00   8.690790e+05   0.000000e+00   0.000000e+00   0.000000e+00
     2240000   2.239999e-05   1.395831e+01   3.028428e+01   1.851040e+01   6.186744e+05   5.687498e+05   2.215038e+05   0.000000e+00   0.000000e+00   0.000000e+00   8.690790e+05   0.000000e+00   0.000000e+00   0.000000e+00
     2248000   2.247999e-05   1.400780e+01   3.032978e+01   1.852813e+01   6.186744e+05   5.687498e+05   2.215038e+05   0.000000e+00   0.000000e+00   0.000000e+00   8.690790e+05   0.000000e+00   0.000000e+00   0.000000e+00
     2256000   2.255999e-05   1.405729e+01   3.037528e+01   1.854585e+01   6.186744e+05   5.687498e+05   2.215038e+05   0.000000e+00   0.000000e+00   0.000000e+00   8.690790e+05   0.000000e+00   0.000000e+00   0.000000e+00
     2264000   2.263999e-05   1.410679e+01   3.042078e+01   1.856357e+01   6.186744e+05   5.687498e+05   2.215038e+05   0.000000e+00   0.000000e+00   0.000000e+00   8.690790e+05   0.000000e+00   0.000000e+00   0.000000e+00
     2272000   2.271999e-05   1.415628e+01   3.046628e+01   1.858129e+01   6.186744e+05   5.687498e+05   2.215038e+05   0.000000e+00   0.000000e+00   0.000000e+00   8.690790e+05   0.000000e+00   0.000000e+00   0.000000e+00
     2280000   2.279999e-05   1.420578e+01   3.051178e+01   1.859901e+01   6.186744e+05   5.687498e+05   2.215038e+05   0.000000e+00   0.000000e+00   0.000000e+00   8.690790e+05   0.000000e+00   0.000000e+00   0.000000e+00
     2288000   2.287999e-05   1.425527e+01   3.055728e+01   1.861673e+01   6.186744e+05   5.687498e+05   2.215038e+05   0.000000e+00   0.000000e+00   0.000000e+00   8.690790e+05   0.000000e+00   0.000000e+00   0.000000e+00
     2296000   2.295999e-05   1.430476e+01   3.060278e+01   1.863445e+01   6.186744e+05   5.687498e+05   2.215038e+05   0.000000e+00   0.000000e+00   0.000000e+00   8.690790e+05   0.000000e+00   0.000000e+00   0.000000e+00
     2304000   2.303999e-05   1.435426e+01   3.064828e+01   1.865217e+01   6.186744e+05   5.687498e+05   2.215038e+05   0.000000e+00   0.000000e+00   0.000000e+00   8.690790e+05   0.000000e+00   0.000000e+00   0.000000e+00
     2312000   2.311999e-05   1.440375e+01   3.069378e+01   1.866989e+01   6.186744e+05   5.687498e+05   2.215038e+05   0.000000e+00   0.000000e+00   0.000000e+00   8.690790e+05   0.000000e+00   0.000000e+00   0.000000e+00
     2320000   2.319999e-05   1.445325e+01   3.073928e+01   1.868761e+01   6.186744e+05   5.687498e+05   2.215038e+05   0.000000e+00   0.000000e+00   0.000000e+00   8.690790e+05   0.000000e+00   0.000000e+00   0.000000e+00
     2328000   2.327999e-05   1.450274e+01   3.078478e+01   1.870533e+01   6.186744e+05   5.687498e+05   2.215038e+05   0.000000e+00   0.000000e+00   0.000000e+00   8.690790e+05   0.000000e+00   0.000000e+00   0.000000e+00
     2336000   2.335999e-05   1.455223e+01   3.083028e+01   1.872305e+01   6.186744e+05   5.687498e+05   2.215038e+05   0.000000e+00   0.000000e+00   0.000000e+00   8.690790e+05   0.000000e+00   0.000000e+00   0.000000e+00
     2344000   2.343999e-05   1.460173e+01   3.087578e+01   1.874077e+01   6.186744e+05   5.687498e+05   2.215038e+05   0.000000e+00   0.000000e+00   0.000000e+00   8.690790e+05   0.000000e+00   0.000000e+00   0.000000e+00
     2352000   2.351999e-05   1.465122e+01   3.092128e+01   1.875849e+01   6.186744e+05   5.687498e+05   2.215038e+05   0.000000e+00   0.000000e+00   0.000000e+00   8.690790e+05   0.000000e+00   0.000000e+00   0.000000e+00
     2360000   2.359999e-05   1.470072e+01   3.096678e+01   1.877621e+01   6.186744e+05   5.687498e+05   2.215038e+05   0.000000e+00   0.000000e+00   0.000000e+00   8.690790e+05   0.000000e+00   0.000000e+00   0.000000e+00
     2368000   2.367999e-05   1.475021e+01   3.101228e+01   1.879393e+01   6.186744e+05   5.687498e+05   2.215038e+05   0.000000e+00   0.000000e+00   0.000000e+00   8.690790e+05   0.000000e+00   0.000000e+00   0.000000e+00
     2376000   2.375999e-05   1.479970e+01   3.105778e+01   1.881165e+01   6.186744e+05   5.687498e+05   2.215038e+05   0.000000e+00   0.000000e+00   0.000000e+00   8.690790e+05   0.000000e+00   0.000000e+00   0.000000e+00
     2384000   2.383999e-05   1.484920e+01   3.110328e+01   1.882937e+01   6.186744e+05   5.687498e+05   2.215038e+05   0.000000e+00   0.000000e+00   0.000000e+00   8.690790e+05   0.000000e+00   0.000000e+00   0.000000e+00
     2392000   2.391999e-05   1.489869e+01   3.114878e+01   1.884709e+01   6.186744e+05   5.687498e+05   2.215038e+05   0.000000e+00   0.000000e+00   0.000000e+00   8.690790e+05   0.000000e+00   0.000000e+00   0.000000e+00
     2400000   2.399999e-05   1.494819e+01   3.119428e+01   1.886481e+01   6.186744e+05   5.687498e+05   2.215038e+05   0.000000e+00   0.000000e+00   0.000000e+00   8.690790e+05   0.000000e+00   0.000000e+00   0.000000e+00
     2408000   2.407999e-05   1.499768e+01   3.123978e+01   1.888253e+01   6.186744e+05   5.687498e+05   2.215038e+05   0.000000e+00   0.000000e+00   0.000000e+00   8.690790e+05   0.000000e+00   0.000000e+00   0.000000e+00
     2416000   2.415999e-05   1.504717e+01   3.128528e+01   1.890025e+01   6.186744e+05   5.687498e+05   2.215038e+05   0.000000e+00   0.000000e+00   0.000000e+00   8.690790e+05   0.000000e+00   0.000000e+00   0.000000e+00
     2424000   2.423999e-05   1.509667e+01   3.133078e+01   1.891797e+01   6.186744e+05   5.687498e+05   2.215038e+05   0.000000e+00   0.000000e+00   0.000000e+00   8.690790e+05   0.000000e+00   0.000000e+00   0.000000e+00
     2432000   2.431999e-05   1.514616e+01   3.137628e+01   1.893569e+01   6.186744e+05   5.687498e+05   2.215038e+05   0.000000e+00   0.000000e+00   0.000000e+00   8.690790e+05   0.000000e+00   0.000000e+00   0.000000e+00
     2440000   2.439999e-05   1.519565e+01   3.142178e+01   1.895341e+01   6.186744e+05   5.687498e+05   2.215038e+05   0.000000e+00   0.000000e+00   0.000000e+00   8.690790e+05   0.000000e+00   0.000000e+00   0.000000e+00
     2448000   2.447999e-05   1.524515e+01   3.146728e+01   1.897113e+01   6.186744e+05   5.687498e+05   2.215038e+05   0.000000e+00   0.000000e+00   0.000000e+00   8.690790e+05   0.000000e+00   0.000000e+00   0.000000e+00
     2456000   2.455999e-05   1.529464e+01   3.151278e+01   1.898885e+01   6.186744e+05   5.687498e+05   2.215038e+05   0.000000e+00   0.000000e+00   0.000000e+00   8.690790e+05   0.000000e+00   0.000000e+00   0.000000e+00
     2464000   2.463999e-05   1.534414e+01   3.155828e+01   1.900657e+01   6.186744e+05   5.687498e+05   2.215038e+05   0.000000e+00   0.000000e+00   0.000000e+00   8.690790e+05   0.000000e+00   0.000000e+00   0.000000e+00
     2472000   2.471999e-05   1.539363e+01   3.160378e+01   1.902429e+01   6.186744e+05   5.687498e+05   2.215038e+05   0.000000e+00   0.000000e+00   0.000000e+00   8.690790e+05   0.000000e+00   0.000000e+00   0.000000e+00
     2480000   2.479999e-05   1.544312e+01   3.164928e+01   1.904201e+01   6.186744e+05   5.687498e+05   2.215038e+05   0.000000e+00   0.000000e+00   0.000000e+00   8.690790e+05   0.000000e+00   0.000000e+00   0.000000e+00
     2488000   2.487999e-05   1.549262e+01   3.169478e+01   1.905973e+01   6.186744e+05   5.687498e+05   2.215038e+05   0.000000e+00   0.000000e+00   0.000000e+00   8.690790e+05   0.000000e+00   0.000000e+00   0.000000e+00
     2496000   2.495999e-05   1.554211e+01   3.174028e+01   1.907745e+01   6.186744e+05   5.687498e+05   2.215038e+05   0.000000e+00   0.000000e+00   0.000000e+00   8.690790e+05   0.000000e+00   0.000000e+00   0.000000e+00
     2504000   2.503999e-05   1.559161e+01   3.178578e+01   1.909518e+01   6.186744e+05   5.687498e+05   2.215038e+05   0.000000e+00   0.000000e+00   0.000000e+00   8.690790e+05   0.000000e+00   0.000000e+00   0.000000e+00
     2512000   2.511999e-05   1.564110e+01   3.183128e+01   1.911290e+01   6.186744e+05   5.687498e+05   2.215038e+05   0.000000e+00   0.000000e+00   0.000000e+00   8.690790e+05   0.000000e+00   0.000000e+00   0.000000e+00
     2520000   2.519999e-05   1.569059e+01   3.187678e+01   1.913062e+01   6.186744e+05   5.687498e+05   2.215038e+05   0.000000e+00   0.000000e+00   0.000000e+00   8.690790e+05   0.000000e+00   0.000000e+00   0.000000e+00
     2528000   2.527999e-05   1.574009e+01   3.192228e+01   1.914834e+01   6.186744e+05   5.687498e+05   2.215038e+05   0.000000e+00   0.000000e+00   0.000000e+00   8.690790e+05   0.000000e+00   0.000000e+00   0.000000e+00
     2536000   2.535999e-05   1.578958e+01   3.196778e+01   1.916606e+01   6.186744e+05   5.687498e+05   2.215038e+05   0.000000e+00   0.000000e+00   0.000000e+00   8.690790e+05   0.000000e+00   0.000000e+00   0.000000e+00
     2544000   2.543999e-05   1.583908e+01   3.201328e+01   1.918378e+01   6.186744e+05   5.687498e+05   2.215038e+05   0.000000e+00   0.000000e+00   0.000000e+00   8.690790e+05   0.000000e+00   0.000000e+00   0.000000e+00
     2552000   2.551999e-05   1.588857e+01   3.205878e+01   1.920150e+01   6.186744e+05   5.687498e+05   2.215038e+05   0.000000e+00   0.000000e+00   0.000000e+00   8.690790e+05   0.000000e+00   0.000000e+00   0.000000e+00
     2560000   2.559999e-05   1.593806e+01   3.210428e+01   1.921922e+01   6.186744e+05   5.687498e+05   2.215038e+05   0.000000e+00   0.000000e+00   0.000000e+00   8.690790e+05   0.000000e+00   0.000000e+00   0.000000e+00
     2568000   2.567999e-05   1.598756e+01   3.214978e+01   1.923694e+01   6.186744e+05   5.687498e+05   2.215038e+05   0.000000e+00   0.000000e+00   0.000000e+00   8.690790e+05   0.000000e+00   0.000000e+00   0.000000e+00
     2576000   2.575999e-05   1.603705e+01   3.219528e+01   1.925466e+01   6.186744e+05   5.687498e+05   2.215038e+05   0.000000e+00   0.000000e+00   0.000000e+00   8.690790e+05   0.000000e+00   0.000000e+00   0.000000e+00
     2584000   2.583999e-05   1.608655e+01   3.224078e+01   1.927238e+01   6.186744e+05   5.687498e+05   2.215038e+05   0.000000e+00   0.000000e+00   0.000000e+00   8.690790e+05   0.000000e+00   0.000000e+00   0.000000e+00
     2592000   2.591999e-05   1.613604e+01   3.228628e+01   1.929010e+01   6.186744e+05   5.687498e+05   2.215038e+05   0.000000e+00   0.000000e+00   0.000000e+00   8.690790e+05   0.000000e+00   0.000000e+00   0.000000e+00
     2600000   2.599999e-05   1.618553e+01   3.233178e+01   1.930782e+01   6.186744e+05   5.687498e+05   2.215038e+05   0.000000e+00   0.000000e+00   0.000000e+00   8.690790e+05   0.000000e+00   0.000000e+00   0.000000e+00
     2608000   2.607999e-05   1.623503e+01   3.237728e+01   1.932554e+01   6.186744e+05   5.687498e+05   2.215038e+05   0.000000e+00   0.000000e+00   0.000000e+00   8.690790e+05   0.000000e+00   0.000000e+00   0.000000e+00
     2616000   2.615999e-05   1.628452e+01   3.242278e+01   1.934326e+01   6.186744e+05   5.687498e+05   2.215038e+05   0.000000e+00   0.000000e+00   0.000000e+00   8.690790e+05   0.000000e+00   0.000000e+00   0.000000e+00
     2624000   2.623999e-05   1.633402e+01   3.246828e+01   1.936098e+01   6.186744e+05   5.687498e+05   2.215038e+05   0.000000e+00   0.000000e+00   0.000000e+00   8.690790e+05   0.000000e+00   0.000000e+00   0.000000e+00
     2632000   2.631999e-05   1.638351e+01   3.251378e+01   1.937870e+01   6.186744e+05   5.687498e+05   2.215038e+05   0.000000e+00   0.000000e+00   0.000000e+00   8.690790e+05   0.000000e+00   0.000000e+00   0.000000e+00
     2640000   2.639999e-05   1.643300e+01   3.255928e+01   1.939642e+01   6.186744e+05   5.687498e+05   2.215038e+05   0.000000e+00   0.000000e+00   0.000000e+00   8.690790e+05   0.000000e+00   0.000000e+00   0.000000e+00
     2648000   2.647999e-05   1.648250e+01   3.260478e+01   1.941414e+01   6.186744e+05   5.687498e+05   2.215038e+05   0.000000e+00   0.000000e+00   0.000000e+00   8.690790e+05   0.000000e+00   0.000000e+00   0.000000e+00
     2656000   2.655999e-05   1.653199e+01   3.265028e+01   1.943186e+01   6.186744e+05   5.687498e+05   2.215038e+05   0.000000e+00   0.000000e+00   0.000000e+00   8.690790e+05   0.000000e+00   0.000000e+00   0.000000e+00
     2664000   2.663999e-05   1.658149e+01   3.269578e+01   1.944958e+01   6.186744e+05   5.687498e+05   2.215038e+05   0.000000e+00   0.000000e+00   0.000000e+00   8.690790e+05   0.000000e+00   0.000000e+00   0.000000e+00
     2672000   2.671999e-05   1.663098e+01   3.274128e+01   1.946730e+01   6.186744e+05   5.687498e+05   2.215038e+05   0.000000e+00   0.000000e+00   0.000000e+00   8.690790e+05   0.000000e+00   0.000000e+00   0.000000e+00
     2680000   2.679999e-05   1.668047e+01   3.278678e+01   1.948502e+01   6.186744e+05   5.687498e+05   2.215038e+05   0.000000e+00   0.000000e+00   0.000000e+00   8.690790e+05   0.000000e+00   0.000000e+00   0.000000e+00
     2688000   2.687999e-05   1.672997e+01   3.283228e+01   1.950274e+01   6.186744e+05   5.687498e+05   2.215038e+05   2.261651e+05   2.347536e+05  -1.234464e+06   8.690790e+05   2.960967e-30   0.000000e+00   0.000000e+00
     2696000   2.695999e-05   1.677946e+01   3.287778e+01   1.952046e+01   6.186745e+05   5.687499e+05   2.215034e+05   1.688843e+06   1.752976e+06  -9.218136e+06   8.690790e+05   1.653373e-28   0.000000e+00   0.000000e+00
     2704000   2.703999e-05   1.682896e+01   3.292328e+01   1.953818e+01   6.186746e+05   5.687501e+05   2.215024e+05   3.192379e+06   3.232284e+06  -1.721609e+07   8.690790e+05   5.767118e-28   0.000000e+00   0.000000e+00
     2712000   2.711999e-05   1.687845e+01   3.296878e+01   1.955590e+01   6.186750e+05   5.687504e+05   2.215007e+05   4.673973e+06   4.732398e+06  -2.520634e+07   8.690790e+05   1.236303e-27   0.000000e+00   0.000000e+00
     2720000   2.719999e-05   1.692794e+01   3.301428e+01   1.957362e+01   6.186753e+05   5.687507e+05   2.214990e+05   6.232476e+06   6.155532e+06  -3.321388e+07   8.690790e+05   2.146460e-27   0.000000e+00   0.000000e+00
     2728000   2.727999e-05   1.697744e+01   3.305978e+01   1.959134e+01   6.186758e+05   5.687513e+05   2.214960e+05   7.732471e+06   7.637008e+06  -4.120820e+07   8.690790e+05   3.304114e-27   0.000000e+00   0.000000e+00
     2736000   2.735999e-05   1.702693e+01   3.310528e+01   1.960906e+01   6.186765e+05   5.687520e+05   2.214923e+05   7.376051e+06   7.106195e+06  -3.885035e+07   8.690790e+05   2.937323e-27   0.000000e+00   0.000000e+00
     2744000   2.743999e-05   1.707643e+01   3.315078e+01   1.962678e+01   6.186769e+05   5.687523e+05   2.214902e+05   2.302579e+06   2.218338e+06  -1.212802e+07   8.690790e+05   2.863554e-28   0.000000e+00   0.000000e+00
     2752000   2.751999e-05   1.712592e+01   3.319628e+01   1.964450e+01   6.186783e+05   5.687537e+05   2.214828e+05   3.770308e+07   3.574047e+07  -1.970970e+08   8.690790e+05   7.557545e-26   0.000000e+00   0.000000e+00
     2760000   2.759999e-05   1.717541e+01   3.324178e+01   1.966222e+01   6.186795e+05   5.687547e+05   2.214770e+05   9.396858e+06   8.830783e+06  -4.892694e+07   8.690790e+05   4.658287e-27   0.000000e+00   0.000000e+00
     2768000   2.767999e-05   1.722491e+01   3.328728e+01   1.967994e+01   6.186820e+05   5.687570e+05   2.214641e+05   5.906239e+07   5.468160e+07  -3.054283e+08   8.690790e+05   1.814878e-25   0.000000e+00   0.000000e+00
     2776000   2.775999e-05   1.727440e+01   3.333278e+01   1.969765e+01   6.186844e+05   5.687593e+05   2.214514e+05   1.664503e+07   1.525794e+07  -8.568975e+07   8.690790e+05   1.428737e-26   0.000000e+00   0.000000e+00
     2784000   2.783999e-05   1.732390e+01   3.337828e+01   1.971537e+01   6.186884e+05   5.687629e+05   2.214313e+05   2.889904e+07   2.584698e+07  -1.471350e+08   8.690790e+05   4.213154e-26   0.000000e+00   0.000000e+00
     2792000   2.791999e-05   1.737339e+01   3.342378e+01   1.973308e+01   6.186919e+05   5.687660e+05   2.214132e+05   7.657222e+07   6.776785e+07  -3.880468e+08   8.690790e+05   2.929335e-25   0.000000e+00   0.000000e+00
     2800000   2.799999e-05   1.742289e+01   3.346928e+01   1.975079e+01   6.186974e+05   5.687709e+05   2.213853e+05   3.942244e+07   3.451879e+07  -1.988562e+08   8.690790e+05   7.695238e-26   0.000000e+00   0.000000e+00
     2808000   2.807999e-05   1.747238e+01   3.351478e+01   1.976850e+01   6.187012e+05   5.687741e+05   2.213666e+05   8.988779e+07   7.776249e+07  -4.510299e+08   8.690790e+05   3.957518e-25   0.000000e+00   0.000000e+00
     2816000   2.815999e-05   1.752188e+01   3.356029e+01   1.978621e+01   6.187077e+05   5.687798e+05   2.213338e+05   5.013446e+07   4.290590e+07  -2.504028e+08   8.690790e+05   1.220140e-25   0.000000e+00   0.000000e+00
     2824000   2.823999e-05   1.757138e+01   3.360579e+01   1.980392e+01   6.187114e+05   5.687829e+05   2.213154e+05   8.015776e+07   6.745101e+07  -3.974396e+08   8.690790e+05   3.073355e-25   0.000000e+00   0.000000e+00
     2832000   2.831999e-05   1.762087e+01   3.365129e+01   1.982162e+01   6.187174e+05   5.687880e+05   2.212855e+05   6.285916e+07   5.220162e+07  -3.099332e+08   8.690790e+05   1.869208e-25   0.000000e+00   0.000000e+00
     2840000   2.839999e-05   1.767037e+01   3.369679e+01   1.983932e+01   6.187217e+05   5.687914e+05   2.212647e+05   4.318937e+07   3.494954e+07  -2.106129e+08   8.690790e+05   8.632629e-26   0.000000e+00   0.000000e+00
     2848000   2.847999e-05   1.771987e+01   3.374230e+01   1.985702e+01   6.187266e+05   5.687954e+05   2.212408e+05   4.145111e+07   3.345274e+07  -2.019279e+08   8.690790e+05   7.935345e-26   0.000000e+00   0.000000e+00
     2856000   2.855999e-05   1.776937e+01   3.378780e+01   1.987472e+01   6.187291e+05   5.687974e+05   2.212286e+05   2.159494e+07   1.646918e+07  -1.027401e+08   8.690790e+05   2.055054e-26   0.000000e+00   0.000000e+00
     2864000   2.863999e-05   1.781887e+01   3.383331e+01   1.989242e+01   6.187322e+05   5.687998e+05   2.212138e+05   1.965555e+07   1.529533e+07  -9.430471e+07   8.690790e+05   1.731279e-26   0.000000e+00   0.000000e+00
     2872000   2.871999e-05   1.786837e+01   3.387881e+01   1.991012e+01   6.187356e+05   5.688025e+05   2.211973e+05   7.248394e+07   5.698888e+07  -3.492981e+08   8.690790e+05   2.374125e-25   0.000000e+00   0.000000e+00
     2880000   2.879999e-05   1.791786e+01   3.392431e+01   1.992781e+01   6.187394e+05   5.688055e+05   2.211791e+05   3.003290e+07   2.312492e+07  -1.434861e+08   8.690790e+05   4.005940e-26   0.000000e+00   0.000000e+00
     2888000   2.887999e-05   1.796736e+01   3.396982e+01   1.994551e+01   6.187431e+05   5.688083e+05   2.211615e+05   6.237594e+07   4.774204e+07  -2.972975e+08   8.690790e+05   1.720036e-25   0.000000e+00   0.000000e+00
     2896000   2.895999e-05   1.801686e+01   3.401532e+01   1.996320e+01   6.187473e+05   5.688115e+05   2.211413e+05   1.949956e+07   1.460410e+07  -9.212334e+07   8.690790e+05   1.651280e-26   0.000000e+00   0.000000e+00
     2904000   2.903999e-05   1.806636e+01   3.406083e+01   1.998089e+01   6.187502e+05   5.688137e+05   2.211278e+05   5.208253e+07   3.877863e+07  -2.454865e+08   8.690790e+05   1.172903e-25   0.000000e+00   0.000000e+00
     2912000   2.911999e-05   1.811586e+01   3.410633e+01   1.999858e+01   6.187532e+05   5.688159e+05   2.211137e+05   8.803736e+06   6.376024e+06  -4.103827e+07   8.690790e+05   3.275875e-27   0.000000e+00   0.000000e+00
     2920000   2.919999e-05   1.816536e+01   3.415184e+01   2.001627e+01   6.187532e+05   5.688160e+05   2.211134e+05   5.958582e+02  -6.516172e+02   8.869002e+00   8.690790e+05   1.418578e-36   0.000000e+00   0.000000e+00
     2928000   2.927999e-05   1.821486e+01   3.419734e+01   2.003396e+01   6.187532e+05   5.688160e+05   2.211134e+05   5.868305e+02  -6.422782e+02   1.010731e+01   8.690790e+05   1.377206e-36   0.000000e+00   0.000000e+00
     2936000   2.935999e-05   1.826436e+01   3.424285e+01   2.005165e+01   6.187532e+05   5.688160e+05   2.211134e+05   5.751030e+02  -6.203736e+02  -1.342497e+01   8.690790e+05   1.302240e-36   0.000000e+00   0.000000e+00
     2944000   2.943999e-05   1.831386e+01   3.428836e+01   2.006933e+01   6.187532e+05   5.688160e+05   2.211134e+05   5.762633e+02  -6.217905e+02  -1.302699e+01   8.690790e+05   1.307846e-36   0.000000e+00   0.000000e+00
     2952000   2.951999e-05   1.836337e+01   3.433386e+01   2.008702e+01   6.187532e+05   5.688160e+05   2.211134e+05   5.528566e+02  -6.105622e+02   2.358834e+01   8.690790e+05   1.235306e-36   0.000000e+00   0.000000e+00
     2960000   2.959999e-05   1.841287e+01   3.437937e+01   2.010471e+01   6.187532e+05   5.688160e+05   2.211134e+05   5.226129e+02  -5.695414e+02   2.694656e+00   8.690790e+05   1.087051e-36   0.000000e+00   0.000000e+00
     2968000   2.967999e-05   1.846237e+01   3.442487e+01   2.012240e+01   6.187532e+05   5.688160e+05   2.211134e+05   5.282980e+02  -5.745881e+02  -2.315895e-01   8.690790e+05   1.108404e-36   0.000000e+00   0.000000e+00
     2976000   2.975999e-05   1.851187e+01   3.447038e+01   2.014009e+01   6.187532e+05   5.688160e+05   2.211134e+05   5.017792e+02  -5.486587e+02   7.273537e+00   8.690790e+05   1.005832e-36   0.000000e+00   0.000000e+00
     2984000   2.983999e-05   1.856137e+01   3.451588e+01   2.015778e+01   6.187532e+05   5.688160e+05   2.211134e+05   5.070203e+02  -5.503231e+02  -3.111023e+00   8.690790e+05   1.018688e-36   0.000000e+00   0.000000e+00
     2992000   2.991999e-05   1.861087e+01   3.456139e+01   2.017547e+01   6.187532e+05   5.688160e+05   2.211134e+05   4.947490e+02  -5.363503e+02  -4.716613e+00   8.690790e+05   9.687353e-37   0.000000e+00   0.000000e+00
     3000000   2.999999e-05   1.866037e+01   3.460689e+01   2.019316e+01   6.187532e+05   5.688160e+05   2.211134e+05   4.773033e+02  -5.211053e+02   4.884782e+00   8.690790e+05   9.085495e-37   0.000000e+00   0.000000e+00
     3008000   3.007999e-05   1.870987e+01   3.465240e+01   2.021085e+01   6.187532e+05   5.688159e+05   2.211134e+05   4.588201e+02  -4.991007e+02   3.552091e-19   8.690790e+05   8.362019e-37   0.000000e+00   0.000000e+00
     3016000   3.015999e-05   1.875937e+01   3.469790e+01   2.022854e+01   6.187532e+05   5.688159e+05   2.211134e+05   4.181629e+02  -4.548741e+02  -8.359170e-21   8.690790e+05   6.945736e-37   0.000000e+00   0.000000e+00
     3024000   3.023999e-05   1.880887e+01   3.474341e+01   2.024623e+01   6.187532e+05   5.688159e+05   2.211134e+05   4.265627e+02  -4.640113e+02  -9.414784e-20   8.690790e+05   7.227512e-37   0.000000e+00   0.000000e+00
     3032000   3.031999e-05   1.885837e+01   3.478891e+01   2.026391e+01   6.187532e+05   5.688159e+05   2.211134e+05   4.012086e+02  -4.364313e+02   5.372332e-20   8.690790e+05   6.393871e-37   0.000000e+00   0.000000e+00
     3040000   3.039999e-05   1.890787e+01   3.483442e+01   2.028160e+01   6.187532e+05   5.688159e+05   2.211134e+05   3.937147e+02  -4.282796e+02  -1.820898e-20   8.690790e+05   6.157260e-37   0.000000e+00   0.000000e+00
     3048000   3.047999e-05   1.895737e+01   3.487992e+01   2.029929e+01   6.187532e+05   5.688159e+05   2.211134e+05   3.663750e+02  -3.985397e+02  -8.418726e-20   8.690790e+05   5.331831e-37   0.000000e+00   0.000000e+00
     3056000   3.055999e-05   1.900687e+01   3.492543e+01   2.031698e+01   6.187532e+05   5.688159e+05   2.211134e+05   3.684241e+02  -4.007687e+02  -1.086590e-19   8.690790e+05   5.391548e-37   0.000000e+00   0.000000e+00
     3064000   3.063999e-05   1.905637e+01   3.497093e+01   2.033467e+01   6.187532e+05   5.688159e+05   2.211134e+05   3.662287e+02  -3.983805e+02  -9.056583e-20   8.690790e+05   5.327483e-37   0.000000e+00   0.000000e+00
     3072000   3.071999e-05   1.910587e+01   3.501644e+01   2.035236e+01   6.187532e+05   5.688159e+05   2.211134e+05   3.317726e+02  -3.608995e+02  -9.056330e-20   8.690790e+05   4.372231e-37   0.000000e+00   0.000000e+00
     3080000   3.079999e-05   1.915537e+01   3.506194e+01   2.037005e+01   6.187532e+05   5.688159e+05   2.211134e+05   3.153272e+02  -3.430103e+02  -1.078208e-19   8.690790e+05   3.949527e-37   0.000000e+00   0.000000e+00
     3088000   3.087999e-05   1.920487e+01   3.510745e+01   2.038774e+01   6.187532e+05   5.688159e+05   2.211134e+05   3.026576e+02  -3.292284e+02   5.687379e-20   8.690790e+05   3.638514e-37   0.000000e+00   0.000000e+00
     3096000   3.095999e-05   1.925437e+01   3.515296e+01   2.040543e+01   6.187532e+05   5.688159e+05   2.211134e+05   2.864483e+02  -3.115960e+02  -9.857247e-20   8.690790e+05   3.259229e-37   0.000000e+00   0.000000e+00
     3104000   3.103999e-05   1.930387e+01   3.519846e+01   2.042312e+01   6.187532e+05   5.688159e+05   2.211134e+05   2.910049e+02  -3.165527e+02   2.957354e-20   8.690790e+05   3.363780e-37   0.000000e+00   0.000000e+00
     3112000   3.111999e-05   1.935337e+01   3.524397e+01   2.044081e+01   6.187532e+05   5.688159e+05   2.211134e+05   2.447047e+02  -2.661877e+02  -6.754048e-20   8.690790e+05   2.378588e-37   0.000000e+00   0.000000e+00
     3120000   3.119999e-05   1.940287e+01   3.528947e+01   2.045849e+01   6.187532e+05   5.688159e+05   2.211134e+05   2.780467e+02  -3.024568e+02   7.168497e-20   8.690790e+05   3.070834e-37   0.000000e+00   0.000000e+00
     3128000   3.127999e-05   1.945237e+01   3.533498e+01   2.047618e+01   6.187532e+05   5.688159e+05   2.211134e+05   2.083150e+02  -2.266033e+02   1.423548e-20   8.690790e+05   1.723804e-37   0.000000e+00   0.000000e+00
     3136000   3.135999e-05   1.950187e+01   3.538048e+01   2.049387e+01   6.187532e+05   5.688159e+05   2.211134e+05   2.318726e+02  -2.522291e+02  -1.129798e-21   8.690790e+05   2.135596e-37   0.000000e+00   0.000000e+00
     3144000   3.143999e-05   1.955137e+01   3.542599e+01   2.051156e+01   6.187532e+05   5.688159e+05   2.211134e+05   2.018540e+02  -2.195751e+02  -7.055857e-20   8.690790e+05   1.618460e-37   0.000000e+00   0.000000e+00
     3152000   3.151999e-05   1.960087e+01   3.547149e+01   2.052925e+01   6.187532e+05   5.688159e+05   2.211134e+05   1.847051e+02  -2.009207e+02  -1.271257e-20   8.690790e+05   1.355141e-37   0.000000e+00   0.000000e+00
     3160000   3.159999e-05   1.965037e+01   3.551700e+01   2.054694e+01   6.187532e+05   5.688159e+05   2.211134e+05   1.828678e+02  -1.989221e+02  -5.277472e-20   8.690790e+05   1.328295e-37   0.000000e+00   0.000000e+00
     3168000   3.167999e-05   1.969987e+01   3.556250e+01   2.056463e+01   6.187532e+05   5.688159e+05   2.211134e+05   1.773728e+02  -1.929447e+02  -1.429676e-20   8.690790e+05   1.249667e-37   0.000000e+00   0.000000e+00
     3176000   3.175999e-05   1.974937e+01   3.560801e+01   2.058232e+01   6.187532e+05   5.688159e+05   2.211134e+05   1.329960e+02  -1.446719e+02  -6.336374e-21   8.690790e+05   7.026011e-38   0.000000e+00   0.000000e+00
     3184000   3.183999e-05   1.979887e+01   3.565351e+01   2.060001e+01   6.187532e+05   5.688159e+05   2.211134e+05   1.374840e+02  -1.495540e+02   2.003865e-20   8.690790e+05   7.507920e-38   0.000000e+00   0.000000e+00
     3192000   3.191999e-05   1.984837e+01   3.569902e+01   2.061770e+01   6.187532e+05   5.688159e+05   2.211134e+05   9.571028e+01  -1.041128e+02   1.415536e-20   8.690790e+05   3.638809e-38   0.000000e+00   0.000000e+00
     3200000   3.199999e-05   1.989787e+01   3.574452e+01   2.063538e+01   6.187532e+05   5.688159e+05   2.211134e+05   9.951208e+01  -1.082484e+02  -2.975835e-20   8.690790e+05   3.933388e-38   0.000000e+00   0.000000e+00
     3208000   3.207999e-05   1.994737e+01   3.579003e+01   2.065307e+01   6.187532e+05   5.688159e+05   2.211134e+05   9.171131e+01  -9.976279e+01   1.559640e-20   8.690790e+05   3.340822e-38   0.000000e+00   0.000000e+00
     3216000   3.215999e-05   1.999687e+01   3.583553e+01   2.067076e+01   6.187532e+05   5.688159e+05   2.211134e+05   7.099710e+01  -7.723006e+01  -1.050851e-20   8.690790e+05   2.002252e-38   0.000000e+00   0.000000e+00
     3224000   3.223999e-05   2.004637e+01   3.588104e+01   2.068845e+01   6.187532e+05   5.688159e+05   2.211134e+05   4.597750e+01  -5.001394e+01  -1.603238e-20   8.690790e+05   8.397637e-39   0.000000e+00   0.000000e+00
     3232000   3.231999e-05   2.009587e+01   3.592655e+01   2.070614e+01   6.187532e+05   5.688159e+05   2.211134e+05   2.724500e+01  -2.963689e+01   1.571088e-21   8.690790e+05   2.949305e-39   0.000000e+00   0.000000e+00
     3240000   3.239999e-05   2.014537e+01   3.597205e+01   2.072383e+01   6.187532e+05   5.688159e+05   2.211134e+05   4.453555e+01  -4.844540e+01  -2.990964e-21   8.690790e+05   7.878036e-39   0.000000e+00   0.000000e+00
     3248000   3.247999e-05   2.019487e+01   3.601756e+01   2.074152e+01   6.187532e+05   5.688159e+05   2.211134e+05   2.948839e+01  -3.207722e+01   1.475853e-21   8.690790e+05   3.454754e-39   0.000000e+00   0.000000e+00
     3256000   3.255999e-05   2.024437e+01   3.606306e+01   2.075921e+01   6.187532e+05   5.688159e+05   2.211134e+05  -3.627547e+00   3.946016e+00  -8.491061e-22   8.690790e+05   5.215828e-41   0.000000e+00   0.000000e+00
     3264000   3.263999e-05   2.029388e+01   3.610857e+01   2.077690e+01   6.187532e+05   5.688159e+05   2.211134e+05  -2.267925e+01   2.467030e+01   8.944376e-21   8.690790e+05   2.042673e-39   0.000000e+00   0.000000e+00
     3272000   3.271999e-05   2.034338e+01   3.615407e+01   2.079459e+01   6.187532e+05   5.688159e+05   2.211134e+05  -2.465639e+01   2.682101e+01   1.697904e-22   8.690790e+05   2.414401e-39   0.000000e+00   0.000000e+00
     3280000   3.279999e-05   2.039288e+01   3.619958e+01   2.081228e+01   6.187532e+05   5.688159e+05   2.211134e+05  -2.216127e+01   2.410685e+01   5.355150e-21   8.690790e+05   1.950627e-39   0.000000e+00   0.000000e+00
     3288000   3.287999e-05   2.044238e+01   3.624508e+01   2.082996e+01   6.187532e+05   5.688159e+05   2.211134e+05  -3.068539e+01   3.337931e+01  -1.428954e-21   8.690790e+05   3.740559e-39   0.000000e+00   0.000000e+00
     3296000   3.295999e-05   2.049188e+01   3.629059e+01   2.084765e+01   6.187532e+05   5.688159e+05   2.211134e+05  -1.468131e+01   1.597021e+01  -2.022081e-21   8.690790e+05   8.563766e-40   0.000000e+00   0.000000e+00
     3304000   3.303999e-05   2.054138e+01   3.633609e+01   2.086534e+01   6.187532e+05   5.688159e+05   2.211134e+05  -5.570502e+01   6.059545e+01  -1.300734e-20   8.690790e+05   1.232545e-38   0.000000e+00   0.000000e+00
     3312000   3.311999e-05   2.059088e+01   3.638160e+01   2.088303e+01   6.187532e+05   5.688159e+05   2.211134e+05  -5.690988e+01   6.190609e+01   9.775218e-22   8.690790e+05   1.286440e-38   0.000000e+00   0.000000e+00
     3320000   3.319999e-05   2.064038e+01   3.642710e+01   2.090072e+01   6.187532e+05   5.688159e+05   2.211134e+05  -8.829508e+01   9.604665e+01  -8.432044e-21   8.690790e+05   3.096596e-38   0.000000e+00   0.000000e+00
     3328000   3.327999e-05   2.068988e+01   3.647261e+01   2.091841e+01   6.187532e+05   5.688159e+05   2.211134e+05  -9.239613e+01   1.005077e+02   1.000741e-20   8.690790e+05   3.390934e-38   0.000000e+00   0.000000e+00
     3336000   3.335999e-05   2.073938e+01   3.651811e+01   2.093610e+01   6.187532e+05   5.688159e+05   2.211134e+05  -1.049765e+02   1.141926e+02   1.147495e-20   8.690790e+05   4.377147e-38   0.000000e+00   0.000000e+00
     3344000   3.343999e-05   2.078888e+01   3.656362e+01   2.095379e+01   6.187532e+05   5.688159e+05   2.211134e+05  -1.146399e+02   1.247044e+02  -2.214456e-20   8.690790e+05   5.220108e-38   0.000000e+00   0.000000e+00
     3352000   3.351999e-05   2.083838e+01   3.660912e+01   2.097148e+01   6.187532e+05   5.688159e+05   2.211134e+05  -1.284691e+02   1.397476e+02   3.221085e-20   8.690790e+05   6.555348e-38   0.000000e+00   0.000000e+00
     3360000   3.359999e-05   2.088788e+01   3.665463e+01   2.098917e+01   6.187532e+05   5.688159e+05   2.211134e+05  -1.502447e+02   1.634349e+02   4.570786e-20   8.690790e+05   8.966012e-38   0.000000e+00   0.000000e+00
     3368000   3.367999e-05   2.093738e+01   3.670013e+01   2.100686e+01   6.187532e+05   5.688159e+05   2.211134e+05  -1.394317e+02   1.516726e+02   8.522893e-21   8.690790e+05   7.722046e-38   0.000000e+00   0.000000e+00
     3376000   3.375999e-05   2.098688e+01   3.674564e+01   2.102454e+01   6.187532e+05   5.688159e+05   2.211134e+05  -1.485332e+02   1.615731e+02   3.216009e-20   8.690790e+05   8.763081e-38   0.000000e+00   0.000000e+00
     3384000   3.383999e-05   2.103638e+01   3.679115e+01   2.104223e+01   6.187532e+05   5.688159e+05   2.211134e+05  -1.684887e+02   1.832806e+02  -7.993341e-21   8.690790e+05   1.127582e-37   0.000000e+00   0.000000e+00
     3392000   3.391999e-05   2.108588e+01   3.683665e+01   2.105992e+01   6.187532e+05   5.688159e+05   2.211134e+05  -1.507016e+02   1.639320e+02   3.925961e-20   8.690790e+05   9.020945e-38   0.000000e+00   0.000000e+00
     3400000   3.399999e-05   2.113538e+01   3.688216e+01   2.107761e+01   6.187532e+05   5.688159e+05   2.211134e+05  -1.901482e+02   2.068416e+02  -4.668196e-21   8.690790e+05   1.436075e-37   0.000000e+00   0.000000e+00
     3408000   3.407999e-05   2.118488e+01   3.692766e+01   2.109530e+01   6.187532e+05   5.688159e+05   2.211134e+05  -1.925058e+02   2.094062e+02  -1.762822e-20   8.690790e+05   1.471949e-37   0.000000e+00   0.000000e+00
     3416000   3.415999e-05   2.123438e+01   3.697317e+01   2.111299e+01   6.187532e+05   5.688159e+05   2.211134e+05  -1.819022e+02   1.978717e+02   1.154182e-20   8.690790e+05   1.314237e-37   0.000000e+00   0.000000e+00
     3424000   3.423999e-05   2.128388e+01   3.701867e+01   2.113068e+01   6.187532e+05   5.688159e+05   2.211134e+05  -1.824236e+02   1.984389e+02   4.219862e-20   8.690790e+05   1.321789e-37   0.000000e+00   0.000000e+00
     3432000   3.431999e-05   2.133338e+01   3.706418e+01   2.114837e+01   6.187532e+05   5.688159e+05   2.211134e+05  -1.995381e+02   2.170559e+02  -7.738384e-20   8.690790e+05   1.581449e-37   0.000000e+00   0.000000e+00
     3440000   3.439999e-05   2.138288e+01   3.710968e+01   2.116606e+01   6.187532e+05   5.688159e+05   2.211134e+05  -1.987317e+02   2.161787e+02   1.202896e-22   8.690790e+05   1.568745e-37   0.000000e+00   0.000000e+00
     3448000   3.447999e-05   2.143238e+01   3.715519e+01   2.118375e+01   6.187532e+05   5.688159e+05   2.211134e+05  -2.408205e+02   2.619626e+02  -1.012744e-20   8.690790e+05   2.303504e-37   0.000000e+00   0.000000e+00
     3456000   3.455999e-05   2.148188e+01   3.720069e+01   2.120144e+01   6.187532e+05   5.688159e+05   2.211134e+05  -2.325433e+02   2.529586e+02   7.340194e-20   8.690790e+05   2.147981e-37   0.000000e+00   0.000000e+00
     3464000   3.463999e-05   2.153138e+01   3.724620e+01   2.121912e+01   6.187532e+05   5.688159e+05   2.211134e+05  -2.258295e+02   2.456554e+02   4.012272e-20   8.690790e+05   2.025726e-37   0.000000e+00   0.000000e+00
     3472000   3.471999e-05   2.158088e+01   3.729170e+01   2.123681e+01   6.187532e+05   5.688159e+05   2.211134e+05  -2.201047e+02   2.394280e+02  -6.660053e-20   8.690790e+05   1.924323e-37   0.000000e+00   0.000000e+00
     3480000   3.479999e-05   2.163038e+01   3.733721e+01   2.125450e+01   6.187532e+05   5.688159e+05   2.211134e+05  -2.351187e+02   2.557602e+02  -1.920723e-20   8.690790e+05   2.195779e-37   0.000000e+00   0.000000e+00
     3488000   3.487999e-05   2.167988e+01   3.738271e+01   2.127219e+01   6.187532e+05   5.688159e+05   2.211134e+05  -2.403185e+02   2.614165e+02  -4.758259e-20   8.690790e+05   2.293975e-37   0.000000e+00   0.000000e+00
     3496000   3.495999e-05   2.172938e+01   3.742822e+01   2.128988e+01   6.187532e+05   5.688159e+05   2.211134e+05  -2.405412e+02   2.616587e+02  -1.498028e-20   8.690790e+05   2.298255e-37   0.000000e+00   0.000000e+00
     3504000   3.503999e-05   2.177888e+01   3.747372e+01   2.130757e+01   6.187532e+05   5.688159e+05   2.211134e+05  -2.658930e+02   2.892362e+02  -2.317565e-20   8.690790e+05   2.808177e-37   0.000000e+00   0.000000e+00
     3512000   3.511999e-05   2.182838e+01   3.751923e+01   2.132526e+01   6.187532e+05   5.688159e+05   2.211134e+05  -2.540910e+02   2.763980e+02   2.463350e-20   8.690790e+05   2.564493e-37   0.000000e+00   0.000000e+00
     3520000   3.519999e-05   2.187788e+01   3.756473e+01   2.134295e+01   6.187532e+05   5.688159e+05   2.211134e+05  -2.390101e+02   2.599932e+02   5.779131e-20   8.690790e+05   2.269113e-37   0.000000e+00   0.000000e+00
     3528000   3.527999e-05   2.192738e+01   3.761024e+01   2.136064e+01   6.187532e+05   5.688159e+05   2.211134e+05  -2.594500e+02   2.822275e+02   1.938768e-21   8.690790e+05   2.673878e-37   0.000000e+00   0.000000e+00
     3536000   3.535999e-05   2.197688e+01   3.765575e+01   2.137833e+01   6.187532e+05   5.688159e+05   2.211134e+05  -2.174836e+02   2.365768e+02   5.468853e-20   8.690790e+05   1.878843e-37   0.000000e+00   0.000000e+00
     3544000   3.543999e-05   2.202638e+01   3.770125e+01   2.139601e+01   6.187532e+05   5.688159e+05   2.211134e+05  -2.806225e+02   3.052588e+02  -2.234058e-20   8.690790e+05   3.127961e-37   0.000000e+00   0.000000e+00
     3552000   3.551999e-05   2.207588e+01   3.774676e+01   2.141370e+01   6.187532e+05   5.688159e+05   2.211134e+05  -2.780027e+02   3.024090e+02   8.600906e-20   8.690790e+05   3.069833e-37   0.000000e+00   0.000000e+00
     3560000   3.559999e-05   2.212538e+01   3.779226e+01   2.143139e+01   6.187532e+05   5.688159e+05   2.211134e+05  -3.011704e+02   3.276106e+02   9.535721e-20   8.690790e+05   3.602776e-37   0.000000e+00   0.000000e+00
     3568000   3.567999e-05   2.217489e+01   3.783777e+01   2.144908e+01   6.187532e+05   5.688159e+05   2.211134e+05  -2.635995e+02   2.867413e+02  -1.167616e-20   8.690790e+05   2.760050e-37   0.000000e+00   0.000000e+00
     3576000   3.575999e-05   2.222439e+01   3.788327e+01   2.146677e+01   6.187532e+05   5.688159e+05   2.211134e+05  -3.114686e+02   3.388129e+02   6.344136e-20   8.690790e+05   3.853333e-37   0.000000e+00   0.000000e+00
     3584000   3.583999e-05   2.227389e+01   3.792878e+01   2.148446e+01   6.187532e+05   5.688160e+05   2.211134e+05  -2.670576e+02   2.905030e+02   6.518273e-20   8.690790e+05   2.832943e-37   0.000000e+00   0.000000e+00
     3592000   3.591999e-05   2.232339e+01   3.797428e+01   2.150215e+01   6.187532e+05   5.688160e+05   2.211134e+05  -2.952026e+02   3.211189e+02  -3.211777e-20   8.690790e+05   3.461388e-37   0.000000e+00   0.000000e+00
     3600000   3.599999e-05   2.237289e+01   3.801979e+01   2.151984e+01   6.187532e+05   5.688160e+05   2.211134e+05  -2.674804e+02   2.909630e+02  -9.216670e-20   8.690790e+05   2.841896e-37   0.000000e+00   0.000000e+00
     3608000   3.607999e-05   2.242239e+01   3.806529e+01   2.153753e+01   6.187532e+05   5.688160e+05   2.211134e+05  -3.182605e+02   3.462011e+02  -8.925773e-22   8.690790e+05   4.023108e-37   0.000000e+00   0.000000e+00
     3616000   3.615999e-05   2.247189e+01   3.811080e+01   2.155522e+01   6.187532e+05   5.688160e+05   2.211134e+05  -2.973405e+02   3.234445e+02   1.892315e-20   8.690790e+05   3.511845e-37   0.000000e+00   0.000000e+00
     3624000   3.623999e-05   2.252139e+01   3.815630e+01   2.157291e+01   6.187532e+05   5.688160e+05   2.211134e+05  -3.048563e+02   3.316201e+02   4.587831e-21   8.690790e+05   3.691507e-37   0.000000e+00   0.000000e+00
     3632000   3.631999e-05   2.257089e+01   3.820181e+01   2.159059e+01   6.187532e+05   5.688160e+05   2.211134e+05  -2.944618e+02   3.203131e+02  -3.427920e-20   8.690790e+05   3.444145e-37   0.000000e+00   0.000000e+00
     3640000   3.639999e-05   2.262039e+01   3.824731e+01   2.160828e+01   6.187532e+05   5.688160e+05   2.211134e+05  -2.917508e+02   3.173640e+02   1.376672e-19   8.690790e+05   3.381082e-37   0.000000e+00   0.000000e+00
     3648000   3.647999e-05   2.266989e+01   3.829282e+01   2.162597e+01   6.187532e+05   5.688160e+05   2.211134e+05  -2.512908e+02   2.733520e+02   5.629855e-21   8.690790e+05   2.508346e-37   0.000000e+00   0.000000e+00
     3656000   3.655999e-05   2.271939e+01   3.833832e+01   2.164366e+01   6.187532e+05   5.688160e+05   2.211134e+05  -2.827987e+02   3.076260e+02   1.026816e-19   8.690790e+05   3.176623e-37   0.000000e+00   0.000000e+00
     3664000   3.663999e-05   2.276889e+01   3.838383e+01   2.166135e+01   6.187532e+05   5.688160e+05   2.211134e+05  -2.975599e+02   3.236832e+02  -8.440064e-20   8.690790e+05   3.516901e-37   0.000000e+00   0.000000e+00
     3672000   3.671999e-05   2.281839e+01   3.842934e+01   2.167904e+01   6.187532e+05   5.688160e+05   2.211134e+05  -3.018491e+02   3.283489e+02  -4.867649e-20   8.690790e+05   3.619091e-37   0.000000e+00   0.000000e+00
     3680000   3.679999e-05   2.286789e+01   3.847484e+01   2.169673e+01   6.187532e+05   5.688160e+05   2.211134e+05  -2.932562e+02   3.190016e+02  -9.671810e-20   8.690790e+05   3.415970e-37   0.000000e+00   0.000000e+00
     3688000   3.687999e-05   2.291739e+01   3.852035e+01   2.171442e+01   6.187532e+05   5.688160e+05   2.211134e+05  -2.790130e+02   3.035080e+02  -2.627927e-20   8.690790e+05   3.092019e-37   0.000000e+00   0.000000e+00
     3696000   3.695999e-05   2.296689e+01   3.856585e+01   2.173211e+01   6.187532e+05   5.688160e+05   2.211134e+05  -3.388496e+02   3.685977e+02  -1.979051e-20   8.690790e+05   4.560489e-37   0.000000e+00   0.000000e+00
     3704000   3.703999e-05   2.301639e+01   3.861136e+01   2.174980e+01   6.187532e+05   5.688160e+05   2.211134e+05  -2.922983e+02   3.179596e+02   8.022902e-21   8.690790e+05   3.393569e-37   0.000000e+00   0.000000e+00
     3712000   3.711999e-05   2.306589e+01   3.865686e+01   2.176749e+01   6.187532e+05   5.688160e+05   2.211134e+05  -3.258652e+02   3.544735e+02  -9.874465e-20   8.690790e+05   4.217756e-37   0.000000e+00   0.000000e+00
     3720000   3.719999e-05   2.311539e+01   3.870237e+01   2.178517e+01   6.187532e+05   5.688160e+05   2.211134e+05  -2.966309e+02   3.226726e+02   2.519500e-21   8.690790e+05   3.495003e-37   0.000000e+00   0.000000e+00
     3728000   3.727999e-05   2.316489e+01   3.874787e+01   2.180286e+01   6.187532e+05   5.688160e+05   2.211134e+05  -2.899948e+02   3.154540e+02   3.888356e-20   8.690790e+05   3.340410e-37   0.000000e+00   0.000000e+00
     3736000   3.735999e-05   2.321439e+01   3.879338e+01   2.182055e+01   6.187532e+05   5.688160e+05   2.211134e+05  -2.715999e+02   2.954441e+02   3.175573e-20   8.690790e+05   2.930178e-37   0.000000e+00   0.000000e+00
     3744000   3.743999e-05   2.326389e+01   3.883888e+01   2.183824e+01   6.187532e+05   5.688160e+05   2.211134e+05  -2.812723e+02   3.059656e+02   9.065201e-21   8.690790e+05   3.142442e-37   0.000000e+00   0.000000e+00
     3752000   3.751999e-05   2.331339e+01   3.888439e+01   2.185593e+01   6.187532e+05   5.688160e+05   2.211134e+05  -2.959388e+02   3.219198e+02  -2.230301e-20   8.690790e+05   3.478746e-37   0.000000e+00   0.000000e+00
     3760000   3.759999e-05   2.336289e+01   3.892989e+01   2.187362e+01   6.187532e+05   5.688160e+05   2.211134e+05  -3.156319e+02   3.433417e+02  -7.542600e-20   8.690790e+05   3.957068e-37   0.000000e+00   0.000000e+00
     3768000   3.767999e-05   2.341239e+01   3.897540e+01   2.189131e+01   6.187532e+05   5.688160e+05   2.211134e+05  -2.819520e+02   3.067050e+02  -7.492815e-22   8.690790e+05   3.157665e-37   0.000000e+00   0.000000e+00
     3776000   3.775999e-05   2.346189e+01   3.902090e+01   2.190900e+01   6.187532e+05   5.688160e+05   2.211134e+05  -2.761874e+02   3.004343e+02   1.533750e-20   8.690790e+05   3.029956e-37   0.000000e+00   0.000000e+00
     3784000   3.783999e-05   2.351139e+01   3.906641e+01   2.192669e+01   6.187532e+05   5.688160e+05   2.211134e+05  -2.667134e+02   2.901286e+02   1.182896e-20   8.690790e+05   2.825533e-37   0.000000e+00   0.000000e+00
     3792000   3.791999e-05   2.356089e+01   3.911191e+01   2.194438e+01   6.187532e+05   5.688160e+05   2.211134e+05  -2.922424e+02   3.178988e+02  -1.775962e-19   8.690790e+05   3.392267e-37   0.000000e+00   0.000000e+00
     3800000   3.799999e-05   2.361039e+01   3.915742e+01   2.196207e+01   6.187532e+05   5.688160e+05   2.211134e+05  -2.743387e+02   2.984233e+02  -5.472052e-20   8.690790e+05   2.989460e-37   0.000000e+00   0.000000e+00
     3808000   3.807999e-05   2.365989e+01   3.920292e+01   2.197975e+01   6.187532e+05   5.688160e+05   2.211134e+05  -2.814903e+02   3.062028e+02   4.261026e-20   8.690790e+05   3.147297e-37   0.000000e+00   0.000000e+00
     3816000   3.815999e-05   2.370939e+01   3.924843e+01   2.199744e+01   6.187532e+05   5.688160e+05   2.211134e+05  -2.756597e+02   2.998603e+02   9.118662e-20   8.690790e+05   3.018309e-37   0.000000e+00   0.000000e+00
     3824000   3.823999e-05   2.375889e+01   3.929394e+01   2.201513e+01   6.187532e+05   5.688160e+05   2.211134e+05  -2.868970e+02   3.120842e+02  -6.872243e-20   8.690790e+05   3.269380e-37   0.000000e+00   0.000000e+00
     3832000   3.831999e-05   2.380839e+01   3.933944e+01   2.203282e+01   6.187532e+05   5.688160e+05   2.211134e+05  -2.826643e+02   3.074799e+02  -2.731821e-20   8.690790e+05   3.173696e-37   0.000000e+00   0.000000e+00
     3840000   3.839999e-05   2.385789e+01   3.938495e+01   2.205051e+01   6.187532e+05   5.688160e+05   2.211134e+05  -2.652304e+02   2.885154e+02   6.803594e-20   8.690790e+05   2.794283e-37   0.000000e+00   0.000000e+00
     3848000   3.847999e-05   2.390739e+01   3.943045e+01   2.206820e+01   6.187532e+05   5.688160e+05   2.211134e+05  -2.667699e+02   2.901900e+02   5.760399e-20   8.690790e+05   2.826689e-37   0.000000e+00   0.000000e+00
     3856000   3.855999e-05   2.395689e+01   3.947596e+01   2.208589e+01   6.187532e+05   5.688160e+05   2.211134e+05  -2.965696e+02   3.226059e+02  -4.439793e-20   8.690790e+05   3.493485e-37   0.000000e+00   0.000000e+00
     3864000   3.863999e-05   2.400639e+01   3.952146e+01   2.210358e+01   6.187532e+05   5.688160e+05   2.211134e+05  -2.552366e+02   2.776442e+02  -5.267586e-21   8.690790e+05   2.587630e-37   0.000000e+00   0.000000e+00
     3872000   3.871999e-05   2.405589e+01   3.956697e+01   2.212127e+01   6.187532e+05   5.688160e+05   2.211134e+05  -2.561855e+02   2.786764e+02   6.471669e-20   8.690790e+05   2.606905e-37   0.000000e+00   0.000000e+00
     3880000   3.879999e-05   2.410540e+01   3.961247e+01   2.213896e+01   6.187532e+05   5.688160e+05   2.211134e+05  -2.548349e+02   2.772072e+02  -4.450168e-20   8.690790e+05   2.579517e-37   0.000000e+00   0.000000e+00
     3888000   3.887999e-05   2.415490e+01   3.965798e+01   2.215665e+01   6.187532e+05   5.688160e+05   2.211134e+05  -2.450962e+02   2.666136e+02   2.530509e-20   8.690790e+05   2.386130e-37   0.000000e+00   0.000000e+00
     3896000   3.895999e-05   2.420440e+01   3.970348e+01   2.217433e+01   6.187532e+05   5.688160e+05   2.211134e+05  -2.521026e+02   2.742351e+02   2.502299e-20   8.690790e+05   2.524487e-37   0.000000e+00   0.000000e+00
     3904000   3.903999e-05   2.425390e+01   3.974899e+01   2.219202e+01   6.187532e+05   5.688160e+05   2.211134e+05  -2.474000e+02   2.691196e+02  -4.808565e-20   8.690790e+05   2.431185e-37   0.000000e+00   0.000000e+00
     3912000   3.911999e-05   2.430340e+01   3.979449e+01   2.220971e+01   6.187532e+05   5.688160e+05   2.211134e+05  -2.535834e+02   2.758459e+02   1.112568e-20   8.690790e+05   2.554196e-37   0.000000e+00   0.000000e+00
     3920000   3.919999e-05   2.435290e+01   3.984000e+01   2.222740e+01   6.187532e+05   5.688160e+05   2.211134e+05  -2.659590e+02   2.893080e+02   6.956223e-20   8.690790e+05   2.809573e-37   0.000000e+00   0.000000e+00
     3928000   3.927999e-05   2.440240e+01   3.988550e+01   2.224509e+01   6.187532e+05   5.688160e+05   2.211134e+05  -2.352266e+02   2.558775e+02   3.010269e-20   8.690790e+05   2.197866e-37   0.000000e+00   0.000000e+00
     3936000   3.935999e-05   2.445190e+01   3.993101e+01   2.226278e+01   6.187532e+05   5.688160e+05   2.211134e+05  -2.496924e+02   2.716133e+02   2.069722e-21   8.690790e+05   2.476374e-37   0.000000e+00   0.000000e+00
     3944000   3.943999e-05   2.450140e+01   3.997651e+01   2.228047e+01   6.187532e+05   5.688160e+05   2.211134e+05  -2.486351e+02   2.704632e+02  -9.597163e-20   8.690790e+05   2.455570e-37   0.000000e+00   0.000000e+00
     3952000   3.951999e-05   2.455090e+01   4.002202e+01   2.229816e+01   6.187532e+05   5.688160e+05   2.211134e+05  -2.280220e+02   2.480404e+02   2.559046e-21   8.690790e+05   2.065265e-37   0.000000e+00   0.000000e+00
     3960000   3.959999e-05   2.460040e+01   4.006753e+01   2.231585e+01   6.187532e+05   5.688160e+05   2.211134e+05  -2.503755e+02   2.723563e+02  -3.977895e-20   8.690790e+05   2.489983e-37   0.000000e+00   0.000000e+00
     3968000   3.967999e-05   2.464990e+01   4.011303e+01   2.233354e+01   6.187532e+05   5.688160e+05   2.211134e+05  -2.371781e+02   2.580003e+02   5.289332e-20   8.690790e+05   2.234487e-37   0.000000e+00   0.000000e+00
     3976000   3.975999e-05   2.469940e+01   4.015854e+01   2.235122e+01   6.187532e+05   5.688160e+05   2.211134e+05  -2.107053e+02   2.292035e+02   6.849751e-20   8.690790e+05   1.763524e-37   0.000000e+00   0.000000e+00
     3984000   3.983999e-05   2.474890e+01   4.020404e+01   2.236891e+01   6.187532e+05   5.688160e+05   2.211134e+05  -2.248629e+02   2.446040e+02  -8.793441e-20   8.690790e+05   2.008431e-37   0.000000e+00   0.000000e+00
     3992000   3.991999e-05   2.479840e+01   4.024955e+01   2.238660e+01   6.187532e+05   5.688160e+05   2.211134e+05  -2.149768e+02   2.338500e+02   7.576415e-20   8.690790e+05   1.835714e-37   0.000000e+00   0.000000e+00
     4000000   3.999999e-05   2.484790e+01   4.029505e+01   2.240429e+01   6.187532e+05   5.688160e+05   2.211134e+05  -2.244357e+02   2.441393e+02  -1.418895e-20   8.690790e+05   2.000797e-37   0.000000e+00   0.000000e+00
     4008000   4.007999e-05   2.489740e+01   4.034056e+01   2.242198e+01   6.187532e+05   5.688160e+05   2.211134e+05  -2.155787e+02   2.345047e+02   8.028274e-20   8.690790e+05   1.846001e-37   0.000000e+00   0.000000e+00
     4016000   4.015999e-05   2.494690e+01   4.038606e+01   2.243967e+01   6.187532e+05   5.688160e+05   2.211134e+05  -2.313341e+02   2.516432e+02   6.665996e-20   8.690790e+05   2.125647e-37   0.000000e+00   0.000000e+00
     4024000   4.023999e-05   2.499640e+01   4.043157e+01   2.245736e+01   6.187532e+05   5.688160e+05   2.211134e+05  -2.144835e+02   2.333133e+02   8.928646e-21   8.690790e+05   1.827290e-37   0.000000e+00   0.000000e+00
     4032000   4.031999e-05   2.504590e+01   4.047707e+01   2.247505e+01   6.187532e+05   5.688160e+05   2.211134e+05  -2.033829e+02   2.212382e+02   1.099389e-20   8.690790e+05   1.643056e-37   0.000000e+00   0.000000e+00
     4040000   4.039999e-05   2.509540e+01   4.052258e+01   2.249274e+01   6.187532e+05   5.688160e+05   2.211134e+05  -2.420036e+02   2.632494e+02  -8.585206e-20   8.690790e+05   2.326177e-37   0.000000e+00   0.000000e+00
     4048000   4.047999e-05   2.514490e+01   4.056808e+01   2.251043e+01   6.187532e+05   5.688160e+05   2.211134e+05  -1.923932e+02   2.092837e+02   9.987119e-20   8.690790e+05   1.470291e-37   0.000000e+00   0.000000e+00
     4056000   4.055999e-05   2.519440e+01   4.061359e+01   2.252812e+01   6.187532e+05   5.688160e+05   2.211134e+05  -2.194153e+02   2.386781e+02  -2.032356e-20   8.690790e+05   1.912208e-37   0.000000e+00   0.000000e+00
     4064000   4.063999e-05   2.524390e+01   4.065909e+01   2.254580e+01   6.187532e+05   5.688160e+05   2.211134e+05  -2.107858e+02   2.292910e+02  -2.273652e-20   8.690790e+05   1.764831e-37   0.000000e+00   0.000000e+00
     4072000   4.071999e-05   2.529340e+01   4.070460e+01   2.256349e+01   6.187532e+05   5.688160e+05   2.211134e+05  -1.981242e+02   2.155179e+02  -2.121619e-21   8.690790e+05   1.559170e-37   0.000000e+00   0.000000e+00
     4080000   4.079999e-05   2.534290e+01   4.075010e+01   2.258118e+01   6.187532e+05   5.688160e+05   2.211134e+05  -2.089710e+02   2.273169e+02   8.101798e-20   8.690790e+05   1.734552e-37   0.000000e+00   0.000000e+00
     4088000   4.087999e-05   2.539240e+01   4.079561e+01   2.259887e+01   6.187532e+05   5.688160e+05   2.211134e+05  -2.116960e+02   2.302811e+02  -6.073483e-20   8.690790e+05   1.780083e-37   0.000000e+00   0.000000e+00
     4096000   4.095999e-05   2.544190e+01   4.084111e+01   2.261656e+01   6.187532e+05   5.688160e+05   2.211134e+05  -1.812768e+02   1.971914e+02  -8.089265e-20   8.690790e+05   1.305286e-37   0.000000e+00   0.000000e+00
     4104000   4.103999e-05   2.549140e+01   4.088662e+01   2.263425e+01   6.187532e+05   5.688160e+05   2.211134e+05  -1.739113e+02   1.891793e+02  -3.812058e-20   8.690790e+05   1.201371e-37   0.000000e+00   0.000000e+00
     4112000   4.111999e-05   2.554090e+01   4.093213e+01   2.265194e+01   6.187532e+05   5.688160e+05   2.211134e+05  -2.136059e+02   2.323587e+02  -3.021824e-20   8.690790e+05   1.812351e-37   0.000000e+00   0.000000e+00
     4120000   4.119999e-05   2.559040e+01   4.097763e+01   2.266963e+01   6.187532e+05   5.688160e+05   2.211134e+05  -2.150014e+02   2.338768e+02  -2.049917e-22   8.690790e+05   1.836110e-37   0.000000e+00   0.000000e+00
     4128000   4.127999e-05   2.563990e+01   4.102314e+01   2.268732e+01   6.187532e+05   5.688160e+05   2.211134e+05  -1.666591e+02   1.812904e+02   1.206037e-19   8.690790e+05   1.103270e-37   0.000000e+00   0.000000e+00
     4136000   4.135999e-05   2.568940e+01   4.106864e+01   2.270501e+01   6.187532e+05   5.688160e+05   2.211134e+05  -1.937842e+02   2.107968e+02  -7.474024e-20   8.690790e+05   1.491570e-37   0.000000e+00   0.000000e+00
     4144000   4.143999e-05   2.573890e+01   4.111415e+01   2.272270e+01   6.187532e+05   5.688160e+05   2.211134e+05  -1.880021e+02   2.045071e+02   7.110956e-20   8.690790e+05   1.403950e-37   0.000000e+00   0.000000e+00
     4152000   4.151999e-05   2.578840e+01   4.115965e+01   2.274038e+01   6.187532e+05   5.688160e+05   2.211134e+05  -1.711160e+02   1.861385e+02   9.624319e-20   8.690790e+05   1.163077e-37   0.000000e+00   0.000000e+00
     4160000   4.159999e-05   2.583790e+01   4.120516e+01   2.275807e+01   6.187532e+05   5.688160e+05   2.211134e+05  -1.717503e+02   1.868286e+02  -2.043586e-20   8.690790e+05   1.171641e-37   0.000000e+00   0.000000e+00
     4168000   4.167999e-05   2.588740e+01   4.125066e+01   2.277576e+01   6.187532e+05   5.688160e+05   2.211134e+05  -1.991912e+02   2.166785e+02   8.393597e-20   8.690790e+05   1.575948e-37   0.000000e+00   0.000000e+00
     4176000   4.175999e-05   2.593690e+01   4.129617e+01   2.279345e+01   6.187532e+05   5.688160e+05   2.211134e+05  -1.701525e+02   1.850905e+02  -3.484731e-20   8.690790e+05   1.149982e-37   0.000000e+00   0.000000e+00
     4184000   4.183999e-05   2.598640e+01   4.134167e+01   2.281114e+01   6.187532e+05   5.688160e+05   2.211134e+05  -1.770524e+02   1.925961e+02  -8.267306e-21   8.690790e+05   1.245133e-37   0.000000e+00   0.000000e+00
     4192000   4.191999e-05   2.603591e+01   4.138718e+01   2.282883e+01   6.187532e+05   5.688160e+05   2.211134e+05  -1.433901e+02   1.559786e+02  -2.909251e-20   8.690790e+05   8.167236e-38   0.000000e+00   0.000000e+00
     4200000   4.199999e-05   2.608541e+01   4.143268e+01   2.284652e+01   6.187532e+05   5.688160e+05   2.211134e+05  -1.614559e+02   1.756304e+02  -2.003837e-20   8.690790e+05   1.035417e-37   0.000000e+00   0.000000e+00
     4208000   4.207999e-05   2.613491e+01   4.147819e+01   2.286421e+01   6.187532e+05   5.688160e+05   2.211134e+05  -1.647986e+02   1.792665e+02  -2.164849e-22   8.690790e+05   1.078746e-37   0.000000e+00   0.000000e+00
     4216000   4.215999e-05   2.618441e+01   4.152369e+01   2.288190e+01   6.187532e+05   5.688160e+05   2.211134e+05  -1.711842e+02   1.862128e+02   6.972642e-20   8.690790e+05   1.163970e-37   0.000000e+00   0.000000e+00
     4224000   4.223999e-05   2.623391e+01   4.156920e+01   2.289959e+01   6.187532e+05   5.688160e+05   2.211134e+05  -1.581958e+02   1.720840e+02  -3.941469e-20   8.690790e+05   9.940482e-38   0.000000e+00   0.000000e+00
     4232000   4.231999e-05   2.628341e+01   4.161470e+01   2.291728e+01   6.187532e+05   5.688160e+05   2.211134e+05  -1.611257e+02   1.752712e+02  -2.899101e-20   8.690790e+05   1.031188e-37   0.000000e+00   0.000000e+00
     4240000   4.239999e-05   2.633291e+01   4.166021e+01   2.293496e+01   6.187532e+05   5.688160e+05   2.211134e+05  -1.393890e+02   1.516262e+02  -8.677549e-21   8.690790e+05   7.717740e-38   0.000000e+00   0.000000e+00
     4248000   4.247999e-05   2.638241e+01   4.170572e+01   2.295265e+01   6.187532e+05   5.688160e+05   2.211134e+05  -1.614419e+02   1.756152e+02  -4.154149e-20   8.690790e+05   1.035272e-37   0.000000e+00   0.000000e+00
     4256000   4.255999e-05   2.643191e+01   4.175122e+01   2.297034e+01   6.187532e+05   5.688160e+05   2.211134e+05  -1.620666e+02   1.762947e+02  -4.460332e-20   8.690790e+05   1.043301e-37   0.000000e+00   0.000000e+00
     4264000   4.263999e-05   2.648141e+01   4.179673e+01   2.298803e+01   6.187532e+05   5.688160e+05   2.211134e+05  -1.534908e+02   1.669660e+02  -1.913600e-20   8.690790e+05   9.358093e-38   0.000000e+00   0.000000e+00
     4272000   4.271999e-05   2.653091e+01   4.184223e+01   2.300572e+01   6.187532e+05   5.688160e+05   2.211134e+05  -1.455951e+02   1.583771e+02  -6.858866e-20   8.690790e+05   8.419746e-38   0.000000e+00   0.000000e+00
     4280000   4.279999e-05   2.658041e+01   4.188774e+01   2.302341e+01   6.187532e+05   5.688160e+05   2.211134e+05  -1.606377e+02   1.747404e+02  -4.587836e-20   8.690790e+05   1.024947e-37   0.000000e+00   0.000000e+00
     4288000   4.287999e-05   2.662991e+01   4.193324e+01   2.304110e+01   6.187532e+05   5.688160e+05   2.211134e+05  -1.327770e+02   1.444337e+02  -2.632343e-20   8.690790e+05   7.002594e-38   0.000000e+00   0.000000e+00
