     timestep     time              x             y              z              vx             vy             vz             ax             ay             az         v_magnitude      ELoss        Electronic      Nuclear
           0   0.000000e+00   1.000000e-01   8.345700e+00   2.055099e+01   1.144151e+05  -2.306796e+05   8.300569e+05   0.000000e+00   0.000000e+00   0.000000e+00   8.690790e+05   0.000000e+00   0.000000e+00   0.000000e+00
        8000   7.999000e-08   1.091532e-01   8.327246e+00   2.061740e+01   1.144160e+05  -2.306792e+05   8.300569e+05   1.812557e+07   8.990211e+06  -9.407300e-17   8.690790e+05   7.446807e-28   0.000000e+00   0.000000e+00
       16000   1.599900e-07   1.183066e-01   8.308791e+00   2.068380e+01   1.144177e+05  -2.306783e+05   8.300569e+05   2.490035e+07   1.235071e+07   7.720807e-15   8.690790e+05   1.405439e-27   0.000000e+00   0.000000e+00
       24000   2.399900e-07   1.274601e-01   8.290337e+00   2.075021e+01   1.144198e+05  -2.306773e+05   8.300569e+05   3.165959e+07   1.570369e+07   2.024219e-15   8.690790e+05   2.272071e-27   0.000000e+00   0.000000e+00
       32000   3.199900e-07   1.366138e-01   8.271883e+00   2.081661e+01   1.144220e+05  -2.306762e+05   8.300569e+05   3.577412e+06   1.774498e+06   7.552168e-16   8.690790e+05   2.903221e-29   0.000000e+00   0.000000e+00
       40000   3.999900e-07   1.457675e-01   8.253429e+00   2.088302e+01   1.144218e+05  -2.306763e+05   8.300569e+05  -6.428221e+06  -3.188577e+06  -9.175249e-16   8.690790e+05   9.363774e-29   0.000000e+00   0.000000e+00
       48000   4.799900e-07   1.549213e-01   8.234975e+00   2.094942e+01   1.144228e+05  -2.306758e+05   8.300569e+05   2.066981e+07   1.025290e+07  -2.230194e-15   8.690790e+05   9.684506e-28   0.000000e+00   0.000000e+00
       56000   5.599900e-07   1.640752e-01   8.216521e+00   2.101583e+01   1.144243e+05  -2.306750e+05   8.300569e+05   4.799148e+06   2.380575e+06  -6.994946e-16   8.690790e+05   5.223932e-29   0.000000e+00   0.000000e+00
       64000   6.399900e-07   1.732291e-01   8.198067e+00   2.108223e+01   1.144246e+05  -2.306749e+05   8.300569e+05   3.414393e+07   1.693685e+07  -5.088418e-15   8.690790e+05   2.642708e-27   0.000000e+00   0.000000e+00
       72000   7.199900e-07   1.823831e-01   8.179613e+00   2.114863e+01   1.144247e+05  -2.306748e+05   8.300569e+05  -1.511234e+07  -7.496371e+06   3.538212e-15   8.690790e+05   5.176488e-28   0.000000e+00   0.000000e+00
       80000   7.999900e-07   1.915371e-01   8.161159e+00   2.121504e+01   1.144238e+05  -2.306753e+05   8.300569e+05   1.647035e+07   8.169924e+06   1.900642e-15   8.690790e+05   6.148981e-28   0.000000e+00   0.000000e+00
       88000   8.799900e-07   2.006910e-01   8.142705e+00   2.128144e+01   1.144252e+05  -2.306746e+05   8.300569e+05  -9.653509e+05  -4.788586e+05  -1.554405e-16   8.690790e+05   2.111375e-30   0.000000e+00   0.000000e+00
       96000   9.599900e-07   2.098450e-01   8.124251e+00   2.134785e+01   1.144253e+05  -2.306745e+05   8.300569e+05   2.806056e+06   1.391935e+06   6.704490e-17   8.690790e+05   1.784701e-29   0.000000e+00   0.000000e+00
      104000   1.039990e-06   2.189991e-01   8.105797e+00   2.141425e+01   1.144256e+05  -2.306744e+05   8.300569e+05   2.369686e+06   1.175478e+06   4.292860e-17   8.690790e+05   1.273294e-29   0.000000e+00   0.000000e+00
      112000   1.119990e-06   2.281531e-01   8.087343e+00   2.148066e+01   1.144260e+05  -2.306742e+05   8.300569e+05   6.519028e+06   3.233765e+06  -5.016038e-16   8.690790e+05   9.633429e-29   0.000000e+00   0.000000e+00
      120000   1.199990e-06   2.373072e-01   8.068889e+00   2.154706e+01   1.144261e+05  -2.306742e+05   8.300569e+05  -2.062435e+06  -1.023072e+06  -1.752432e-16   8.690790e+05   9.640293e-30   0.000000e+00   0.000000e+00
      128000   1.279990e-06   2.464613e-01   8.050435e+00   2.161347e+01   1.144259e+05  -2.306742e+05   8.300569e+05   2.481953e+06   1.231172e+06   4.292683e-16   8.690790e+05   1.396214e-29   0.000000e+00   0.000000e+00
      136000   1.359990e-06   2.556154e-01   8.031981e+00   2.167987e+01   1.144262e+05  -2.306741e+05   8.300569e+05   4.336433e+06   2.151093e+06  -1.627939e-15   8.690790e+05   4.262508e-29   0.000000e+00   0.000000e+00
      144000   1.439990e-06   2.647695e-01   8.013527e+00   2.174628e+01   1.144263e+05  -2.306741e+05   8.300569e+05  -9.514262e+05  -4.719567e+05  -5.354633e-16   8.690790e+05   2.050900e-30   0.000000e+00   0.000000e+00
      152000   1.519990e-06   2.739236e-01   7.995073e+00   2.181268e+01   1.144262e+05  -2.306741e+05   8.300569e+05  -3.151370e+06  -1.563241e+06   2.629143e-16   8.690790e+05   2.250968e-29   0.000000e+00   0.000000e+00
      160000   1.599990e-06   2.830777e-01   7.976619e+00   2.187908e+01   1.144258e+05  -2.306743e+05   8.300569e+05  -5.354844e+06  -2.656267e+06   2.590960e-15   8.690790e+05   6.499721e-29   0.000000e+00   0.000000e+00
      168000   1.679990e-06   2.922317e-01   7.958165e+00   2.194549e+01   1.144259e+05  -2.306743e+05   8.300569e+05   4.007802e+06   1.988069e+06  -7.730181e-16   8.690790e+05   3.640896e-29   0.000000e+00   0.000000e+00
      176000   1.759990e-06   3.013858e-01   7.939711e+00   2.201189e+01   1.144262e+05  -2.306741e+05   8.300569e+05  -3.828268e+00  -1.899018e+00   3.431182e-22   8.690790e+05   3.322050e-41   0.000000e+00   0.000000e+00
      184000   1.839990e-06   3.105399e-01   7.921258e+00   2.207830e+01   1.144262e+05  -2.306741e+05   8.300569e+05  -5.418342e+00  -2.687776e+00  -2.250245e-21   8.690790e+05   6.654990e-41   0.000000e+00   0.000000e+00
      192000   1.919990e-06   3.196940e-01   7.902804e+00   2.214470e+01   1.144262e+05  -2.306741e+05   8.300569e+05  -6.959692e+00  -3.452364e+00   2.172282e-22   8.690790e+05   1.098030e-40   0.000000e+00   0.000000e+00
      200000   1.999990e-06   3.288481e-01   7.884350e+00   2.221111e+01   1.144262e+05  -2.306741e+05   8.300569e+05  -6.746917e+00  -3.346817e+00   5.240404e-22   8.690790e+05   1.031938e-40   0.000000e+00   0.000000e+00
      208000   2.079990e-06   3.380022e-01   7.865896e+00   2.227751e+01   1.144262e+05  -2.306741e+05   8.300569e+05  -6.976919e+00  -3.460910e+00  -2.149274e-21   8.690790e+05   1.103495e-40   0.000000e+00   0.000000e+00
      216000   2.159990e-06   3.471563e-01   7.847442e+00   2.234392e+01   1.144262e+05  -2.306741e+05   8.300569e+05  -6.655459e+00  -3.301449e+00  -1.458093e-21   8.690790e+05   1.004203e-40   0.000000e+00   0.000000e+00
      224000   2.239990e-06   3.563104e-01   7.828988e+00   2.241032e+01   1.144262e+05  -2.306741e+05   8.300569e+05  -4.588799e+00  -2.276280e+00  -1.660118e-22   8.690790e+05   4.773525e-41   0.000000e+00   0.000000e+00
      232000   2.319990e-06   3.654645e-01   7.810534e+00   2.247673e+01   1.144262e+05  -2.306741e+05   8.300569e+05  -4.818801e+00  -2.390373e+00  -5.343121e-22   8.690790e+05   5.264042e-41   0.000000e+00   0.000000e+00
      240000   2.399990e-06   3.746186e-01   7.792080e+00   2.254313e+01   1.144262e+05  -2.306741e+05   8.300569e+05   2.430996e+00   1.205899e+00   5.698446e-22   8.690790e+05   1.339587e-41   0.000000e+00   0.000000e+00
      248000   2.479990e-06   3.837727e-01   7.773626e+00   2.260954e+01   1.144262e+05  -2.306741e+05   8.300569e+05   9.439978e-01   4.682713e-01  -8.791210e-23   8.690790e+05   2.021167e-42   0.000000e+00   0.000000e+00
      256000   2.559990e-06   3.929268e-01   7.755172e+00   2.267594e+01   1.144262e+05  -2.306741e+05   8.300569e+05  -9.155871e-01  -4.541782e-01  -2.866793e-23   8.690790e+05   1.899439e-42   0.000000e+00   0.000000e+00
      264000   2.639990e-06   4.020809e-01   7.736718e+00   2.274234e+01   1.144262e+05  -2.306741e+05   8.300569e+05  -4.139586e+00  -2.053447e+00  -4.097286e-22   8.690790e+05   3.885010e-41   0.000000e+00   0.000000e+00
      272000   2.719990e-06   4.112350e-01   7.718264e+00   2.280875e+01   1.144262e+05  -2.306741e+05   8.300569e+05  -2.083545e+00  -1.033545e+00  -5.491734e-22   8.690790e+05   9.841650e-42   0.000000e+00   0.000000e+00
      280000   2.799990e-06   4.203890e-01   7.699810e+00   2.287515e+01   1.144262e+05  -2.306741e+05   8.300569e+05  -1.055627e+00  -5.236450e-01  -2.218216e-22   8.690790e+05   2.525474e-42   0.000000e+00   0.000000e+00
      288000   2.879990e-06   4.295431e-01   7.681356e+00   2.294156e+01   1.144262e+05  -2.306741e+05   8.300569e+05   3.093080e-02   1.534326e-02  -1.088536e-23   8.690790e+05   2.154944e-45   0.000000e+00   0.000000e+00
      296000   2.959990e-06   4.386972e-01   7.662903e+00   2.300796e+01   1.144262e+05  -2.306741e+05   8.300569e+05   2.696417e-01   1.337561e-01   5.572862e-23   8.690790e+05   1.650085e-43   0.000000e+00   0.000000e+00
      304000   3.039990e-06   4.478513e-01   7.644449e+00   2.307437e+01   1.144262e+05  -2.306741e+05   8.300569e+05  -9.372079e-01  -4.649032e-01  -1.505595e-22   8.690790e+05   1.990575e-42   0.000000e+00   0.000000e+00
      312000   3.119990e-06   4.570054e-01   7.625995e+00   2.314077e+01   1.144262e+05  -2.306741e+05   8.300569e+05  -1.325096e+00  -6.573157e-01  -9.976922e-23   8.690790e+05   3.981130e-42   0.000000e+00   0.000000e+00
      320000   3.199990e-06   4.661595e-01   7.607541e+00   2.320718e+01   1.144262e+05  -2.306741e+05   8.300569e+05   3.880604e-01   1.924979e-01   9.169926e-23   8.690790e+05   3.416511e-43   0.000000e+00   0.000000e+00
      328000   3.279990e-06   4.753136e-01   7.589087e+00   2.327358e+01   1.144262e+05  -2.306741e+05   8.300569e+05  -1.223449e+00  -6.068936e-01  -1.709499e-22   8.690790e+05   3.393905e-42   0.000000e+00   0.000000e+00
      336000   3.359990e-06   4.844677e-01   7.570633e+00   2.333999e+01   1.144262e+05  -2.306741e+05   8.300569e+05  -3.436119e+00  -1.704491e+00   3.289087e-22   8.690790e+05   2.676381e-41   0.000000e+00   0.000000e+00
      344000   3.439990e-06   4.936218e-01   7.552179e+00   2.340639e+01   1.144262e+05  -2.306741e+05   8.300569e+05  -3.817397e+00  -1.893625e+00   6.365119e-23   8.690790e+05   3.303750e-41   0.000000e+00   0.000000e+00
      352000   3.519990e-06   5.027759e-01   7.533725e+00   2.347279e+01   1.144262e+05  -2.306741e+05   8.300569e+05  -7.461483e-02  -3.701278e-02  -4.560511e-25   8.690790e+05   1.268125e-44   0.000000e+00   0.000000e+00
      360000   3.599990e-06   5.119300e-01   7.515271e+00   2.353920e+01   1.144262e+05  -2.306741e+05   8.300569e+05  -3.516077e+00  -1.744154e+00   4.709123e-22   8.690790e+05   2.802044e-41   0.000000e+00   0.000000e+00
      368000   3.679990e-06   5.210841e-01   7.496817e+00   2.360560e+01   1.144262e+05  -2.306741e+05   8.300569e+05  -6.207275e+00  -3.079127e+00  -5.491404e-22   8.690790e+05   8.735058e-41   0.000000e+00   0.000000e+00
      376000   3.759990e-06   5.302382e-01   7.478363e+00   2.367201e+01   1.144262e+05  -2.306741e+05   8.300569e+05  -5.214853e+00  -2.586834e+00   6.002243e-22   8.690790e+05   6.165257e-41   0.000000e+00   0.000000e+00
      384000   3.839990e-06   5.393923e-01   7.459909e+00   2.373841e+01   1.144262e+05  -2.306741e+05   8.300569e+05  -3.752405e+00  -1.861385e+00  -3.370186e-22   8.690790e+05   3.191732e-41   0.000000e+00   0.000000e+00
      392000   3.919990e-06   5.485464e-01   7.441455e+00   2.380482e+01   1.144262e+05  -2.306741e+05   8.300569e+05  -6.041008e+00  -2.996650e+00   5.129331e-22   8.690790e+05   8.273381e-41   0.000000e+00   0.000000e+00
      400000   3.999990e-06   5.577005e-01   7.423001e+00   2.387122e+01   1.144262e+05  -2.306741e+05   8.300569e+05  -5.048585e+00  -2.504357e+00   1.666752e-21   8.690790e+05   5.778394e-41   0.000000e+00   0.000000e+00
      408000   4.079990e-06   5.668546e-01   7.404548e+00   2.393763e+01   1.144262e+05  -2.306741e+05   8.300569e+05  -5.022697e+00  -2.491515e+00   6.265476e-22   8.690790e+05   5.718617e-41   0.000000e+00   0.000000e+00
      416000   4.159990e-06   5.760087e-01   7.386094e+00   2.400403e+01   1.144262e+05  -2.306741e+05   8.300569e+05   2.435463e+00   1.208114e+00  -1.668311e-22   8.690790e+05   1.344681e-41   0.000000e+00   0.000000e+00
      424000   4.239990e-06   5.851628e-01   7.367640e+00   2.407044e+01   1.144262e+05  -2.306741e+05   8.300569e+05   2.216252e+00   1.099375e+00  -3.314836e-22   8.690790e+05   1.113514e-41   0.000000e+00   0.000000e+00
      432000   4.319990e-06   5.943169e-01   7.349186e+00   2.413684e+01   1.144262e+05  -2.306741e+05   8.300569e+05   2.532881e+00   1.256439e+00   4.709575e-22   8.690790e+05   1.454342e-41   0.000000e+00   0.000000e+00
      440000   4.399990e-06   6.034709e-01   7.330732e+00   2.420324e+01   1.144262e+05  -2.306741e+05   8.300569e+05  -1.143485e+00  -5.672273e-01  -3.954297e-23   8.690790e+05   2.963961e-42   0.000000e+00   0.000000e+00
      448000   4.479990e-06   6.126250e-01   7.312278e+00   2.426965e+01   1.144262e+05  -2.306741e+05   8.300569e+05  -1.512319e+00  -7.501879e-01   2.199308e-22   8.690790e+05   5.184501e-42   0.000000e+00   0.000000e+00
      456000   4.559990e-06   6.217791e-01   7.293824e+00   2.433605e+01   1.144262e+05  -2.306741e+05   8.300569e+05   3.321179e-01   1.647475e-01   3.956900e-24   8.690790e+05   2.501961e-43   0.000000e+00   0.000000e+00
      464000   4.639990e-06   6.309332e-01   7.275370e+00   2.440246e+01   1.144262e+05  -2.306741e+05   8.300569e+05  -4.720317e-01  -2.341519e-01  -1.854905e-23   8.690790e+05   5.046913e-43   0.000000e+00   0.000000e+00
      472000   4.719990e-06   6.400873e-01   7.256916e+00   2.446886e+01   1.144262e+05  -2.306741e+05   8.300569e+05  -2.049530e+00  -1.016672e+00  -1.513454e-23   8.690790e+05   9.520760e-42   0.000000e+00   0.000000e+00
      480000   4.799990e-06   6.492414e-01   7.238462e+00   2.453527e+01   1.144262e+05  -2.306741e+05   8.300569e+05  -2.125437e+00  -1.054326e+00  -1.231761e-22   8.690790e+05   1.024009e-41   0.000000e+00   0.000000e+00
      488000   4.879990e-06   6.583955e-01   7.220008e+00   2.460167e+01   1.144262e+05  -2.306741e+05   8.300569e+05  -5.037002e+00  -2.498611e+00  -5.114909e-22   8.690790e+05   5.751176e-41   0.000000e+00   0.000000e+00
      496000   4.959990e-06   6.675496e-01   7.201554e+00   2.466808e+01   1.144262e+05  -2.306741e+05   8.300569e+05  -6.614500e+00  -3.281132e+00  -1.239768e-21   8.690790e+05   9.917784e-41   0.000000e+00   0.000000e+00
      504000   5.039990e-06   6.767037e-01   7.183100e+00   2.473448e+01   1.144262e+05  -2.306741e+05   8.300569e+05  -8.517786e+00  -4.225259e+00  -1.445556e-21   8.690790e+05   1.644721e-40   0.000000e+00   0.000000e+00
      512000   5.119990e-06   6.858578e-01   7.164646e+00   2.480089e+01   1.144262e+05  -2.306741e+05   8.300569e+05  -6.888613e+00  -3.417105e+00   1.017164e-22   8.690790e+05   1.075788e-40   0.000000e+00   0.000000e+00
      520000   5.199990e-06   6.950119e-01   7.146193e+00   2.486729e+01   1.144262e+05  -2.306741e+05   8.300569e+05  -5.830896e+00  -2.892424e+00  -1.114623e-21   8.690790e+05   7.707912e-41   0.000000e+00   0.000000e+00
      528000   5.279990e-06   7.041660e-01   7.127739e+00   2.493369e+01   1.144262e+05  -2.306741e+05   8.300569e+05  -5.161316e+00  -2.560277e+00  -1.218761e-21   8.690790e+05   6.038898e-41   0.000000e+00   0.000000e+00
      536000   5.359990e-06   7.133201e-01   7.109285e+00   2.500010e+01   1.144262e+05  -2.306741e+05   8.300569e+05  -6.669123e+00  -3.308227e+00   4.760232e-22   8.690790e+05   1.008275e-40   0.000000e+00   0.000000e+00
      544000   5.439990e-06   7.224742e-01   7.090831e+00   2.506650e+01   1.144262e+05  -2.306741e+05   8.300569e+05  -9.365578e+00  -4.645807e+00   9.283810e-22   8.690790e+05   1.988399e-40   0.000000e+00   0.000000e+00
      552000   5.519990e-06   7.316283e-01   7.072377e+00   2.513291e+01   1.144262e+05  -2.306741e+05   8.300569e+05  -6.960849e+00  -3.452938e+00  -3.763229e-21   8.690790e+05   1.098489e-40   0.000000e+00   0.000000e+00
      560000   5.599990e-06   7.407824e-01   7.053923e+00   2.519931e+01   1.144262e+05  -2.306741e+05   8.300569e+05  -5.368331e+00  -2.662968e+00  -1.034044e-21   8.690790e+05   6.533670e-41   0.000000e+00   0.000000e+00
      568000   5.679990e-06   7.499365e-01   7.035469e+00   2.526572e+01   1.144262e+05  -2.306741e+05   8.300569e+05  -8.243883e+00  -4.089389e+00  -9.805200e-22   8.690790e+05   1.540623e-40   0.000000e+00   0.000000e+00
      576000   5.759990e-06   7.590906e-01   7.017015e+00   2.533212e+01   1.144262e+05  -2.306741e+05   8.300569e+05  -6.422515e+00  -3.185897e+00  -2.931791e-22   8.690790e+05   9.351551e-41   0.000000e+00   0.000000e+00
      584000   5.839990e-06   7.682447e-01   6.998561e+00   2.539853e+01   1.144262e+05  -2.306741e+05   8.300569e+05  -7.069936e-01  -3.507051e-01   1.967627e-22   8.690790e+05   1.132443e-42   0.000000e+00   0.000000e+00
      592000   5.919990e-06   7.773988e-01   6.980107e+00   2.546493e+01   1.144262e+05  -2.306741e+05   8.300569e+05   4.675162e+00   2.319120e+00  -3.354614e-22   8.690790e+05   4.954999e-41   0.000000e+00   0.000000e+00
      600000   5.999990e-06   7.865529e-01   6.961653e+00   2.553134e+01   1.144262e+05  -2.306741e+05   8.300569e+05  -1.215221e+00  -6.028121e-01   3.404855e-22   8.690790e+05   3.346612e-42   0.000000e+00   0.000000e+00
      608000   6.079990e-06   7.957069e-01   6.943199e+00   2.559774e+01   1.144262e+05  -2.306741e+05   8.300569e+05  -2.914211e+00  -1.445598e+00  -2.331471e-22   8.690790e+05   1.924976e-41   0.000000e+00   0.000000e+00
      616000   6.159990e-06   8.048610e-01   6.924745e+00   2.566414e+01   1.144262e+05  -2.306741e+05   8.300569e+05  -5.363683e+00  -2.660662e+00   5.150018e-22   8.690790e+05   6.521760e-41   0.000000e+00   0.000000e+00
      624000   6.239990e-06   8.140151e-01   6.906291e+00   2.573055e+01   1.144262e+05  -2.306741e+05   8.300569e+05  -4.546763e+00  -2.255428e+00   6.905674e-22   8.690790e+05   4.686926e-41   0.000000e+00   0.000000e+00
      632000   6.319990e-06   8.231692e-01   6.887838e+00   2.579695e+01   1.144262e+05  -2.306741e+05   8.300569e+05  -1.231634e+01  -6.109537e+00  -1.019346e-21   8.690790e+05   3.438472e-40   0.000000e+00   0.000000e+00
      640000   6.399990e-06   8.323233e-01   6.869384e+00   2.586336e+01   1.144262e+05  -2.306741e+05   8.300569e+05   3.478173e+00   1.725352e+00   3.142225e-22   8.690790e+05   2.741515e-41   0.000000e+00   0.000000e+00
      648000   6.479990e-06   8.414774e-01   6.850930e+00   2.592976e+01   1.144262e+05  -2.306741e+05   8.300569e+05  -6.046974e+00  -2.999610e+00  -4.373686e-22   8.690790e+05   8.287671e-41   0.000000e+00   0.000000e+00
      656000   6.559990e-06   8.506315e-01   6.832476e+00   2.599617e+01   1.144262e+05  -2.306741e+05   8.300569e+05  -1.107039e+01  -5.491481e+00  -3.736859e-22   8.690790e+05   2.777941e-40   0.000000e+00   0.000000e+00
      664000   6.639990e-06   8.597856e-01   6.814022e+00   2.606257e+01   1.144262e+05  -2.306741e+05   8.300569e+05   2.357022e+00   1.169204e+00  -3.085170e-24   8.690790e+05   1.258753e-41   0.000000e+00   0.000000e+00
      672000   6.719990e-06   8.689397e-01   6.795568e+00   2.612898e+01   1.144262e+05  -2.306741e+05   8.300569e+05   1.677868e+00   8.323085e-01  -2.210957e-22   8.690790e+05   6.383303e-42   0.000000e+00   0.000000e+00
      680000   6.799990e-06   8.780938e-01   6.777114e+00   2.619538e+01   1.144262e+05  -2.306741e+05   8.300569e+05   3.875690e-01   1.922541e-01   2.359744e-24   8.690790e+05   3.408050e-43   0.000000e+00   0.000000e+00
      688000   6.879990e-06   8.872479e-01   6.758660e+00   2.626179e+01   1.144262e+05  -2.306741e+05   8.300569e+05  -9.335125e+00  -4.630701e+00   7.761656e-22   8.690790e+05   1.975546e-40   0.000000e+00   0.000000e+00
      696000   6.959990e-06   8.964020e-01   6.740206e+00   2.632819e+01   1.144262e+05  -2.306741e+05   8.300569e+05  -1.749002e+00  -8.675945e-01   4.595476e-23   8.690790e+05   6.933408e-42   0.000000e+00   0.000000e+00
      704000   7.039990e-06   9.055561e-01   6.721752e+00   2.639459e+01   1.144262e+05  -2.306741e+05   8.300569e+05  -8.874840e+00  -4.402376e+00   2.661742e-21   8.690790e+05   1.785378e-40   0.000000e+00   0.000000e+00
      712000   7.119990e-06   9.147102e-01   6.703298e+00   2.646100e+01   1.144262e+05  -2.306741e+05   8.300569e+05  -4.770776e+00  -2.366550e+00  -5.315682e-22   8.690790e+05   5.160374e-41   0.000000e+00   0.000000e+00
      720000   7.199990e-06   9.238643e-01   6.684844e+00   2.652740e+01   1.144262e+05  -2.306741e+05   8.300569e+05  -3.931774e+00  -1.950362e+00  -4.158833e-22   8.690790e+05   3.504585e-41   0.000000e+00   0.000000e+00
      728000   7.279990e-06   9.330184e-01   6.666390e+00   2.659381e+01   1.144262e+05  -2.306741e+05   8.300569e+05  -3.461800e+00  -1.717231e+00  -5.349940e-22   8.690790e+05   2.716848e-41   0.000000e+00   0.000000e+00
      736000   7.359990e-06   9.421725e-01   6.647936e+00   2.666021e+01   1.144262e+05  -2.306741e+05   8.300569e+05  -7.707862e+00  -3.823495e+00  -1.428716e-23   8.690790e+05   1.346850e-40   0.000000e+00   0.000000e+00
      744000   7.439990e-06   9.513266e-01   6.629483e+00   2.672662e+01   1.144262e+05  -2.306741e+05   8.300569e+05  -3.777331e+00  -1.873750e+00   3.411028e-22   8.690790e+05   3.234670e-41   0.000000e+00   0.000000e+00
      752000   7.519990e-06   9.604807e-01   6.611029e+00   2.679302e+01   1.144262e+05  -2.306741e+05   8.300569e+05  -3.307357e+00  -1.640619e+00   1.374863e-21   8.690790e+05   2.479842e-41   0.000000e+00   0.000000e+00
      760000   7.599990e-06   9.696348e-01   6.592575e+00   2.685943e+01   1.144262e+05  -2.306741e+05   8.300569e+05  -1.630878e+00  -8.089990e-01   2.799187e-22   8.690790e+05   6.029406e-42   0.000000e+00   0.000000e+00
      768000   7.679990e-06   9.787889e-01   6.574121e+00   2.692583e+01   1.144262e+05  -2.306741e+05   8.300569e+05  -4.128860e+00  -2.048126e+00   8.530976e-22   8.690790e+05   3.864525e-41   0.000000e+00   0.000000e+00
      776000   7.759990e-06   9.879429e-01   6.555667e+00   2.699224e+01   1.144262e+05  -2.306741e+05   8.300569e+05  -4.532274e+00  -2.248240e+00   3.717818e-22   8.690790e+05   4.656602e-41   0.000000e+00   0.000000e+00
      784000   7.839990e-06   9.970970e-01   6.537213e+00   2.705864e+01   1.144262e+05  -2.306741e+05   8.300569e+05  -2.470483e+00  -1.225486e+00   6.409086e-22   8.690790e+05   1.383568e-41   0.000000e+00   0.000000e+00
      792000   7.919990e-06   1.006251e+00   6.518759e+00   2.712504e+01   1.144262e+05  -2.306741e+05   8.300569e+05  -4.731680e+00  -2.347156e+00   1.200508e-21   8.690790e+05   5.075759e-41   0.000000e+00   0.000000e+00
      800000   7.999990e-06   1.015405e+00   6.500305e+00   2.719145e+01   1.144262e+05  -2.306741e+05   8.300569e+05  -3.694505e+00  -1.832664e+00   6.915936e-22   8.690790e+05   3.094493e-41   0.000000e+00   0.000000e+00
      808000   8.079990e-06   1.024559e+00   6.481851e+00   2.725785e+01   1.144262e+05  -2.306741e+05   8.300569e+05  -4.176019e+00  -2.071520e+00   7.314459e-23   8.690790e+05   3.953379e-41   0.000000e+00   0.000000e+00
      816000   8.159990e-06   1.033713e+00   6.463397e+00   2.732426e+01   1.144262e+05  -2.306741e+05   8.300569e+05  -6.646448e+00  -3.296979e+00   5.782930e-22   8.690790e+05   1.001410e-40   0.000000e+00   0.000000e+00
      824000   8.239990e-06   1.042868e+00   6.444943e+00   2.739066e+01   1.144262e+05  -2.306741e+05   8.300569e+05  -7.502671e+00  -3.721710e+00   2.009007e-22   8.690790e+05   1.276045e-40   0.000000e+00   0.000000e+00
      832000   8.319990e-06   1.052022e+00   6.426489e+00   2.745707e+01   1.144262e+05  -2.306741e+05   8.300569e+05  -6.522934e+00  -3.235710e+00  -6.928003e-22   8.690790e+05   9.645629e-41   0.000000e+00   0.000000e+00
      840000   8.399990e-06   1.061176e+00   6.408035e+00   2.752347e+01   1.144262e+05  -2.306741e+05   8.300569e+05  -7.213052e+00  -3.578044e+00   1.111544e-21   8.690790e+05   1.179429e-40   0.000000e+00   0.000000e+00
      848000   8.479990e-06   1.070330e+00   6.389581e+00   2.758988e+01   1.144262e+05  -2.306741e+05   8.300569e+05   2.600596e-01   1.290029e-01  -4.652891e-23   8.690790e+05   1.528842e-43   0.000000e+00   0.000000e+00
      856000   8.559990e-06   1.079484e+00   6.371128e+00   2.765628e+01   1.144262e+05  -2.306741e+05   8.300569e+05  -8.384414e+00  -4.159100e+00   4.104154e-22   8.690790e+05   1.593537e-40   0.000000e+00   0.000000e+00
      864000   8.639990e-06   1.088638e+00   6.352674e+00   2.772269e+01   1.144262e+05  -2.306741e+05   8.300569e+05  -2.784661e+00  -1.381335e+00   1.651696e-22   8.690790e+05   1.758352e-41   0.000000e+00   0.000000e+00
      872000   8.719990e-06   1.097792e+00   6.334220e+00   2.778909e+01   1.144262e+05  -2.306741e+05   8.300569e+05   1.590072e-01   7.887574e-02  -2.796141e-23   8.690790e+05   5.705161e-44   0.000000e+00   0.000000e+00
      880000   8.799990e-06   1.106946e+00   6.315766e+00   2.785549e+01   1.144262e+05  -2.306741e+05   8.300569e+05  -5.208589e+00  -2.583727e+00  -7.670041e-24   8.690790e+05   6.150078e-41   0.000000e+00   0.000000e+00
      888000   8.879990e-06   1.116100e+00   6.297312e+00   2.792190e+01   1.144262e+05  -2.306741e+05   8.300569e+05  -3.867839e+00  -1.918646e+00  -2.387224e-22   8.690790e+05   3.391733e-41   0.000000e+00   0.000000e+00
      896000   8.959990e-06   1.125254e+00   6.278858e+00   2.798830e+01   1.144262e+05  -2.306741e+05   8.300569e+05  -2.495348e+00  -1.237821e+00   3.397177e-22   8.690790e+05   1.411784e-41   0.000000e+00   0.000000e+00
      904000   9.039990e-06   1.134408e+00   6.260404e+00   2.805471e+01   1.144262e+05  -2.306741e+05   8.300569e+05  -4.892521e+00  -2.426941e+00  -2.594451e-22   8.690790e+05   5.425822e-41   0.000000e+00   0.000000e+00
      912000   9.119990e-06   1.143563e+00   6.241950e+00   2.812111e+01   1.144262e+05  -2.306741e+05   8.300569e+05  -5.751803e+00  -2.853190e+00  -1.163770e-21   8.690790e+05   7.500331e-41   0.000000e+00   0.000000e+00
      920000   9.199990e-06   1.152717e+00   6.223496e+00   2.818752e+01   1.144262e+05  -2.306741e+05   8.300569e+05  -4.379312e+00  -2.172364e+00   5.641008e-22   8.690790e+05   4.348028e-41   0.000000e+00   0.000000e+00
      928000   9.279990e-06   1.161871e+00   6.205042e+00   2.825392e+01   1.144262e+05  -2.306741e+05   8.300569e+05  -5.152189e+00  -2.555750e+00   3.633304e-22   8.690790e+05   6.017083e-41   0.000000e+00   0.000000e+00
      936000   9.359990e-06   1.171025e+00   6.186588e+00   2.832033e+01   1.144262e+05  -2.306741e+05   8.300569e+05  -7.439262e+00  -3.690256e+00   1.156376e-21   8.690790e+05   1.254647e-40   0.000000e+00   0.000000e+00
      944000   9.439990e-06   1.180179e+00   6.168134e+00   2.838673e+01   1.144262e+05  -2.306741e+05   8.300569e+05  -6.380315e+00  -3.164963e+00   9.757689e-22   8.690790e+05   9.228873e-41   0.000000e+00   0.000000e+00
      952000   9.519990e-06   1.189333e+00   6.149680e+00   2.845314e+01   1.144262e+05  -2.306741e+05   8.300569e+05  -2.478554e+00  -1.229490e+00  -4.136452e-22   8.690790e+05   1.392654e-41   0.000000e+00   0.000000e+00
      960000   9.599990e-06   1.198487e+00   6.131226e+00   2.851954e+01   1.144262e+05  -2.306741e+05   8.300569e+05  -5.573495e+00  -2.764740e+00   5.706902e-22   8.690790e+05   7.042427e-41   0.000000e+00   0.000000e+00
      968000   9.679990e-06   1.207641e+00   6.112773e+00   2.858594e+01   1.144262e+05  -2.306741e+05   8.300569e+05  -2.432457e+00  -1.206623e+00  -1.660938e-23   8.690790e+05   1.341672e-41   0.000000e+00   0.000000e+00
      976000   9.759990e-06   1.216795e+00   6.094319e+00   2.865235e+01   1.144262e+05  -2.306741e+05   8.300569e+05  -2.499004e-01  -1.239634e-01  -1.491468e-23   8.690790e+05   1.416839e-43   0.000000e+00   0.000000e+00
      984000   9.839990e-06   1.225949e+00   6.075865e+00   2.871875e+01   1.144262e+05  -2.306741e+05   8.300569e+05  -5.307118e+00  -2.632603e+00  -2.040969e-21   8.690790e+05   6.384666e-41   0.000000e+00   0.000000e+00
      992000   9.919990e-06   1.235104e+00   6.057411e+00   2.878516e+01   1.144262e+05  -2.306741e+05   8.300569e+05  -6.566820e+00  -3.257480e+00   4.406364e-22   8.690790e+05   9.775430e-41   0.000000e+00   0.000000e+00
     1000000   9.999990e-06   1.244258e+00   6.038957e+00   2.885156e+01   1.144262e+05  -2.306741e+05   8.300569e+05  -1.882858e+00  -9.339941e-01   1.859385e-22   8.690790e+05   8.037605e-42   0.000000e+00   0.000000e+00
     1008000   1.007999e-05   1.253412e+00   6.020503e+00   2.891797e+01   1.144262e+05  -2.306741e+05   8.300569e+05  -5.104276e+00  -2.531983e+00   3.883620e-22   8.690790e+05   5.905924e-41   0.000000e+00   0.000000e+00
     1016000   1.015999e-05   1.262566e+00   6.002049e+00   2.898437e+01   1.144262e+05  -2.306741e+05   8.300569e+05  -6.363978e+00  -3.156860e+00   5.688563e-22   8.690790e+05   9.180837e-41   0.000000e+00   0.000000e+00
     1024000   1.023999e-05   1.271720e+00   5.983595e+00   2.905078e+01   1.144262e+05  -2.306741e+05   8.300569e+05  -4.565130e+00  -2.264539e+00   4.606975e-22   8.690790e+05   4.724255e-41   0.000000e+00   0.000000e+00
     1032000   1.031999e-05   1.280874e+00   5.965141e+00   2.911718e+01   1.144262e+05  -2.306741e+05   8.300569e+05  -2.097257e+00  -1.040347e+00   3.279130e-23   8.690790e+05   9.970711e-42   0.000000e+00   0.000000e+00
     1040000   1.039999e-05   1.290028e+00   5.946687e+00   2.918359e+01   1.144262e+05  -2.306741e+05   8.300569e+05  -2.551805e+00  -1.265826e+00   2.901381e-22   8.690790e+05   1.476122e-41   0.000000e+00   0.000000e+00
     1048000   1.047999e-05   1.299182e+00   5.928233e+00   2.924999e+01   1.144262e+05  -2.306741e+05   8.300569e+05  -6.036861e+00  -2.994593e+00  -4.073241e-21   8.690790e+05   8.261409e-41   0.000000e+00   0.000000e+00
     1056000   1.055999e-05   1.308336e+00   5.909779e+00   2.931639e+01   1.144262e+05  -2.306741e+05   8.300569e+05  -5.823272e+00  -2.888642e+00  -6.577408e-22   8.690790e+05   7.687075e-41   0.000000e+00   0.000000e+00
     1064000   1.063999e-05   1.317490e+00   5.891325e+00   2.938280e+01   1.144262e+05  -2.306741e+05   8.300569e+05  -4.785848e+00  -2.374026e+00   3.398404e-22   8.690790e+05   5.192585e-41   0.000000e+00   0.000000e+00
     1072000   1.071999e-05   1.326644e+00   5.872871e+00   2.944920e+01   1.144262e+05  -2.306741e+05   8.300569e+05  -7.778130e+00  -3.858351e+00   1.639793e-21   8.690790e+05   1.371469e-40   0.000000e+00   0.000000e+00
     1080000   1.079999e-05   1.335799e+00   5.854418e+00   2.951561e+01   1.144262e+05  -2.306741e+05   8.300569e+05  -6.299283e+00  -3.124768e+00  -6.390566e-22   8.690790e+05   8.995876e-41   0.000000e+00   0.000000e+00
     1088000   1.087999e-05   1.344953e+00   5.835964e+00   2.958201e+01   1.144262e+05  -2.306741e+05   8.300569e+05  -5.442367e+00  -2.699693e+00   1.264104e-21   8.690790e+05   6.714895e-41   0.000000e+00   0.000000e+00
     1096000   1.095999e-05   1.354107e+00   5.817510e+00   2.964842e+01   1.144262e+05  -2.306741e+05   8.300569e+05  -6.852840e+00  -3.399360e+00   1.803595e-21   8.690790e+05   1.064573e-40   0.000000e+00   0.000000e+00
     1104000   1.103999e-05   1.363261e+00   5.799056e+00   2.971482e+01   1.144262e+05  -2.306741e+05   8.300569e+05  -1.485728e+00  -1.254065e+00  -1.436938e-01   8.690790e+05   6.913729e-42   0.000000e+00   0.000000e+00
     1112000   1.111999e-05   1.372415e+00   5.780602e+00   2.978123e+01   1.144262e+05  -2.306741e+05   8.300569e+05  -3.853203e+00  -1.410805e-01   4.919708e-01   8.690790e+05   2.748384e-41   0.000000e+00   0.000000e+00
     1120000   1.119999e-05   1.381569e+00   5.762148e+00   2.984763e+01   1.144262e+05  -2.306741e+05   8.300569e+05   3.153840e+00  -1.244017e+01  -3.891911e+00   8.690790e+05   3.272013e-40   0.000000e+00   0.000000e+00
     1128000   1.127999e-05   1.390723e+00   5.743694e+00   2.991404e+01   1.144262e+05  -2.306741e+05   8.300569e+05  -8.086780e+00  -4.687082e+00  -1.877572e-01   8.690790e+05   1.590138e-40   0.000000e+00   0.000000e+00
     1136000   1.135999e-05   1.399877e+00   5.725240e+00   2.998044e+01   1.144262e+05  -2.306741e+05   8.300569e+05  -5.216669e+00  -6.461795e+00  -1.076607e+00   8.690790e+05   1.275844e-40   0.000000e+00   0.000000e+00
     1144000   1.143999e-05   1.409031e+00   5.706786e+00   3.004684e+01   1.144262e+05  -2.306741e+05   8.300569e+05  -3.365955e+00  -1.067594e+00   1.673224e-01   8.690790e+05   2.273671e-41   0.000000e+00   0.000000e+00
     1152000   1.151999e-05   1.418185e+00   5.688332e+00   3.011325e+01   1.144262e+05  -2.306741e+05   8.300569e+05  -5.015429e+00  -9.708700e-01   4.215878e-01   8.690790e+05   4.779555e-41   0.000000e+00   0.000000e+00
     1160000   1.159999e-05   1.427340e+00   5.669878e+00   3.017965e+01   1.144262e+05  -2.306741e+05   8.300569e+05  -8.243690e+00   1.811979e+00   1.639973e+00   8.690790e+05   1.344880e-40   0.000000e+00   0.000000e+00
     1168000   1.167999e-05   1.436494e+00   5.651424e+00   3.024606e+01   1.144262e+05  -2.306741e+05   8.300569e+05  -3.317669e+00  -1.645734e+00  -1.288079e-21   8.690790e+05   2.495491e-41   0.000000e+00   0.000000e+00
     1176000   1.175999e-05   1.445648e+00   5.632970e+00   3.031246e+01   1.144262e+05  -2.306741e+05   8.300569e+05  -3.960758e+00  -1.964739e+00  -7.887723e-22   8.690790e+05   3.556091e-41   0.000000e+00   0.000000e+00
     1184000   1.183999e-05   1.454802e+00   5.614517e+00   3.037887e+01   1.144262e+05  -2.306741e+05   8.300569e+05  -5.061044e+00  -2.510537e+00   1.669816e-22   8.690790e+05   5.806347e-41   0.000000e+00   0.000000e+00
     1192000   1.191999e-05   1.463956e+00   5.596063e+00   3.044527e+01   1.144262e+05  -2.306741e+05   8.300569e+05  -2.555978e-01  -1.267896e-01  -3.381345e-25   8.690790e+05   1.481242e-43   0.000000e+00   0.000000e+00
     1200000   1.199999e-05   1.473110e+00   5.577609e+00   3.051168e+01   1.144262e+05  -2.306741e+05   8.300569e+05   2.041642e+00   1.012759e+00   4.582672e-22   8.690790e+05   9.451151e-42   0.000000e+00   0.000000e+00
     1208000   1.207999e-05   1.482264e+00   5.559155e+00   3.057808e+01   1.144262e+05  -2.306741e+05   8.300569e+05   5.567263e-01   2.761648e-01   1.682143e-22   8.690790e+05   7.031038e-43   0.000000e+00   0.000000e+00
     1216000   1.215999e-05   1.491418e+00   5.540701e+00   3.064449e+01   1.144262e+05  -2.306741e+05   8.300569e+05  -2.541470e+00  -1.260700e+00  -1.927564e-22   8.690790e+05   1.464276e-41   0.000000e+00   0.000000e+00
     1224000   1.223999e-05   1.500572e+00   5.522247e+00   3.071089e+01   1.144262e+05  -2.306741e+05   8.300569e+05  -2.364022e+00  -1.172676e+00  -4.423835e-22   8.690790e+05   1.266576e-41   0.000000e+00   0.000000e+00
     1232000   1.231999e-05   1.509726e+00   5.503793e+00   3.077729e+01   1.144262e+05  -2.306741e+05   8.300569e+05  -4.940351e+00  -2.450668e+00   1.066750e-21   8.690790e+05   5.532297e-41   0.000000e+00   0.000000e+00
     1240000   1.239999e-05   1.518880e+00   5.485339e+00   3.084370e+01   1.144262e+05  -2.306741e+05   8.300569e+05  -6.005799e+00  -2.979185e+00   1.121763e-21   8.690790e+05   8.176707e-41   0.000000e+00   0.000000e+00
     1248000   1.247999e-05   1.528035e+00   5.466885e+00   3.091010e+01   1.144262e+05  -2.306741e+05   8.300569e+05  -2.249823e+00  -1.116028e+00   5.843285e-22   8.690790e+05   1.147437e-41   0.000000e+00   0.000000e+00
     1256000   1.255999e-05   1.537189e+00   5.448431e+00   3.097651e+01   1.144262e+05  -2.306741e+05   8.300569e+05  -2.549003e+00  -1.264436e+00  -5.717850e-22   8.690790e+05   1.472904e-41   0.000000e+00   0.000000e+00
     1264000   1.263999e-05   1.546343e+00   5.429977e+00   3.104291e+01   1.144262e+05  -2.306741e+05   8.300569e+05  -6.305467e+00  -3.127835e+00  -2.706187e-21   8.690790e+05   9.013050e-41   0.000000e+00   0.000000e+00
     1272000   1.271999e-05   1.555497e+00   5.411523e+00   3.110932e+01   1.144262e+05  -2.306741e+05   8.300569e+05  -4.448329e+00  -2.206599e+00  -1.105530e-22   8.690790e+05   4.485728e-41   0.000000e+00   0.000000e+00
     1280000   1.279999e-05   1.564651e+00   5.393069e+00   3.117572e+01   1.144262e+05  -2.306741e+05   8.300569e+05  -1.597188e+00  -7.922872e-01   1.887966e-24   8.690790e+05   5.783882e-42   0.000000e+00   0.000000e+00
     1288000   1.287999e-05   1.573805e+00   5.374615e+00   3.124213e+01   1.144262e+05  -2.306741e+05   8.300569e+05  -5.235541e+00  -2.597097e+00  -1.430090e-21   8.690790e+05   6.213430e-41   0.000000e+00   0.000000e+00
     1296000   1.295999e-05   1.582959e+00   5.356162e+00   3.130853e+01   1.144262e+05  -2.306741e+05   8.300569e+05  -4.014458e+00  -1.991377e+00   3.652649e-23   8.690790e+05   3.653629e-41   0.000000e+00   0.000000e+00
     1304000   1.303999e-05   1.592113e+00   5.337708e+00   3.137494e+01   1.144262e+05  -2.306741e+05   8.300569e+05  -3.119319e+00  -1.547342e+00  -2.239877e-22   8.690790e+05   2.205957e-41   0.000000e+00   0.000000e+00
     1312000   1.311999e-05   1.601267e+00   5.319254e+00   3.144134e+01   1.144262e+05  -2.306741e+05   8.300569e+05  -6.340347e+00  -3.145137e+00  -1.137268e-21   8.690790e+05   9.113470e-41   0.000000e+00   0.000000e+00
     1320000   1.319999e-05   1.610421e+00   5.300800e+00   3.150774e+01   1.144262e+05  -2.306741e+05   8.300569e+05  -5.246643e+00  -2.602604e+00   4.391214e-22   8.690790e+05   6.240479e-41   0.000000e+00   0.000000e+00
     1328000   1.327999e-05   1.619576e+00   5.282346e+00   3.157415e+01   1.144262e+05  -2.306741e+05   8.300569e+05  -2.417820e+00  -1.199363e+00  -4.831203e-23   8.690790e+05   1.325671e-41   0.000000e+00   0.000000e+00
     1336000   1.335999e-05   1.628730e+00   5.263892e+00   3.164055e+01   1.144262e+05  -2.306741e+05   8.300569e+05  -9.013668e+00  -4.471242e+00  -8.654657e-23   8.690790e+05   1.841642e-40   0.000000e+00   0.000000e+00
     1344000   1.343999e-05   1.637884e+00   5.245438e+00   3.170696e+01   1.144262e+05  -2.306741e+05   8.300569e+05  -7.217041e+00  -3.580023e+00  -1.386460e-21   8.690790e+05   1.180897e-40   0.000000e+00   0.000000e+00
     1352000   1.351999e-05   1.647038e+00   5.226984e+00   3.177336e+01   1.144262e+05  -2.306741e+05   8.300569e+05  -4.074810e+00  -2.021315e+00   6.387585e-22   8.690790e+05   3.764825e-41   0.000000e+00   0.000000e+00
     1360000   1.359999e-05   1.656192e+00   5.208530e+00   3.183977e+01   1.144262e+05  -2.306741e+05   8.300569e+05  -8.947551e+00  -4.438444e+00  -2.344841e-21   8.690790e+05   1.814723e-40   0.000000e+00   0.000000e+00
     1368000   1.367999e-05   1.665346e+00   5.190076e+00   3.190617e+01   1.144262e+05  -2.306741e+05   8.300569e+05  -1.035797e+01  -5.138085e+00  -1.054885e-21   8.690790e+05   2.432003e-40   0.000000e+00   0.000000e+00
     1376000   1.375999e-05   1.674500e+00   5.171622e+00   3.197258e+01   1.144262e+05  -2.306741e+05   8.300569e+05  -1.337712e+01  -6.635739e+00  -8.048695e-22   8.690790e+05   4.056461e-40   0.000000e+00   0.000000e+00
     1384000   1.383999e-05   1.683654e+00   5.153168e+00   3.203898e+01   1.144262e+05  -2.306741e+05   8.300569e+05   2.237414e+00   1.109872e+00   2.543536e-23   8.690790e+05   1.134394e-41   0.000000e+00   0.000000e+00
     1392000   1.391999e-05   1.692808e+00   5.134714e+00   3.210539e+01   1.144262e+05  -2.306741e+05   8.300569e+05  -7.540481e+00  -3.740465e+00  -9.197552e-22   8.690790e+05   1.288846e-40   0.000000e+00   0.000000e+00
     1400000   1.399999e-05   1.701962e+00   5.116260e+00   3.217179e+01   1.144262e+05  -2.306741e+05   8.300569e+05  -3.318736e+00  -1.646263e+00  -2.531353e-22   8.690790e+05   2.497403e-41   0.000000e+00   0.000000e+00
     1408000   1.407999e-05   1.711116e+00   5.097807e+00   3.223819e+01   1.144262e+05  -2.306741e+05   8.300569e+05  -7.268919e-02  -3.605757e-02   1.024003e-23   8.690790e+05   1.201768e-44   0.000000e+00   0.000000e+00
     1416000   1.415999e-05   1.720271e+00   5.079353e+00   3.230460e+01   1.144262e+05  -2.306741e+05   8.300569e+05  -5.348744e+00  -2.653251e+00   7.371648e-22   8.690790e+05   6.484824e-41   0.000000e+00   0.000000e+00
     1424000   1.423999e-05   1.729425e+00   5.060899e+00   3.237100e+01   1.144262e+05  -2.306741e+05   8.300569e+05  -7.903721e+00  -3.920651e+00  -5.656291e-22   8.690790e+05   1.416037e-40   0.000000e+00   0.000000e+00
     1432000   1.431999e-05   1.738579e+00   5.042445e+00   3.243741e+01   1.144262e+05  -2.306741e+05   8.300569e+05  -4.192817e+00  -2.079852e+00  -3.032221e-23   8.690790e+05   3.985504e-41   0.000000e+00   0.000000e+00
     1440000   1.439999e-05   1.747733e+00   5.023991e+00   3.250381e+01   1.144262e+05  -2.306741e+05   8.300569e+05  -6.010135e+00  -2.981335e+00  -3.544402e-23   8.690790e+05   8.187829e-41   0.000000e+00   0.000000e+00
     1448000   1.447999e-05   1.756887e+00   5.005537e+00   3.257022e+01   1.144262e+05  -2.306741e+05   8.300569e+05  -8.565112e+00  -4.248735e+00  -1.354044e-21   8.690790e+05   1.662954e-40   0.000000e+00   0.000000e+00
     1456000   1.455999e-05   1.766041e+00   4.987083e+00   3.263662e+01   1.144262e+05  -2.306741e+05   8.300569e+05  -1.246451e+01  -6.183036e+00  -4.222286e-21   8.690790e+05   3.522172e-40   0.000000e+00   0.000000e+00
     1464000   1.463999e-05   1.775195e+00   4.968629e+00   3.270303e+01   1.144262e+05  -2.306741e+05   8.300569e+05  -1.010121e+01  -5.010717e+00   4.702702e-21   8.690790e+05   2.313093e-40   0.000000e+00   0.000000e+00
     1472000   1.471999e-05   1.784349e+00   4.950175e+00   3.276943e+01   1.144262e+05  -2.306741e+05   8.300569e+05  -1.008393e+01  -5.002146e+00  -1.317010e-21   8.690790e+05   2.305187e-40   0.000000e+00   0.000000e+00
     1480000   1.479999e-05   1.793503e+00   4.931721e+00   3.283584e+01   1.144262e+05  -2.306741e+05   8.300569e+05  -9.109702e+00  -4.518880e+00   4.329994e-22   8.690790e+05   1.881367e-40   0.000000e+00   0.000000e+00
     1488000   1.487999e-05   1.802657e+00   4.913267e+00   3.290224e+01   1.144262e+05  -2.306741e+05   8.300569e+05  -7.491581e+00  -3.716208e+00  -1.089651e-21   8.690790e+05   1.272312e-40   0.000000e+00   0.000000e+00
     1496000   1.495999e-05   1.811812e+00   4.894813e+00   3.296864e+01   1.144262e+05  -2.306741e+05   8.300569e+05  -8.805513e+00  -4.367986e+00  -2.196117e-21   8.690790e+05   1.757727e-40   0.000000e+00   0.000000e+00
     1504000   1.503999e-05   1.820966e+00   4.876359e+00   3.303505e+01   1.144262e+05  -2.306741e+05   8.300569e+05  -5.480649e+00  -2.718683e+00  -7.020629e-22   8.690790e+05   6.809923e-41   0.000000e+00   0.000000e+00
     1512000   1.511999e-05   1.830120e+00   4.857905e+00   3.310145e+01   1.144262e+05  -2.306741e+05   8.300569e+05  -6.494095e+00  -3.221404e+00  -1.934092e-21   8.690790e+05   9.560442e-41   0.000000e+00   0.000000e+00
     1520000   1.519999e-05   1.839274e+00   4.839452e+00   3.316786e+01   1.144262e+05  -2.306741e+05   8.300569e+05  -6.837066e+00  -3.391536e+00  -1.821510e-21   8.690790e+05   1.059694e-40   0.000000e+00   0.000000e+00
     1528000   1.527999e-05   1.848428e+00   4.820998e+00   3.323426e+01   1.144262e+05  -2.306741e+05   8.300569e+05  -3.674620e+00  -1.822800e+00   5.201521e-22   8.690790e+05   3.061389e-41   0.000000e+00   0.000000e+00
     1536000   1.535999e-05   1.857582e+00   4.802544e+00   3.330067e+01   1.144262e+05  -2.306741e+05   8.300569e+05  -4.525648e+00  -2.244954e+00  -3.870303e-22   8.690790e+05   4.643013e-41   0.000000e+00   0.000000e+00
     1544000   1.543999e-05   1.866736e+00   4.784090e+00   3.336707e+01   1.144262e+05  -2.306741e+05   8.300569e+05  -8.832434e+00  -4.381340e+00  -2.138786e-21   8.690790e+05   1.768384e-40   0.000000e+00   0.000000e+00
     1552000   1.551999e-05   1.875890e+00   4.765636e+00   3.343348e+01   1.144262e+05  -2.306741e+05   8.300569e+05  -5.057986e+00  -2.509020e+00  -3.791324e-23   8.690790e+05   5.800069e-41   0.000000e+00   0.000000e+00
     1560000   1.559999e-05   1.885044e+00   4.747182e+00   3.349988e+01   1.144262e+05  -2.306741e+05   8.300569e+05  -3.589442e+00  -1.780547e+00  -1.429662e-21   8.690790e+05   2.921089e-41   0.000000e+00   0.000000e+00
     1568000   1.567999e-05   1.894198e+00   4.728728e+00   3.356629e+01   1.144262e+05  -2.306741e+05   8.300569e+05  -1.059376e+01  -5.255051e+00   7.616627e-22   8.690790e+05   2.544026e-40   0.000000e+00   0.000000e+00
     1576000   1.575999e-05   1.903352e+00   4.710274e+00   3.363269e+01   1.144262e+05  -2.306741e+05   8.300569e+05  -7.450283e+00  -3.695723e+00  -1.394724e-21   8.690790e+05   1.258246e-40   0.000000e+00   0.000000e+00
     1584000   1.583999e-05   1.912507e+00   4.691820e+00   3.369909e+01   1.144262e+05  -2.306741e+05   8.300569e+05  -8.152927e+00  -4.044270e+00  -3.054561e-21   8.690790e+05   1.506849e-40   0.000000e+00   0.000000e+00
     1592000   1.591999e-05   1.921661e+00   4.673366e+00   3.376550e+01   1.144262e+05  -2.306741e+05   8.300569e+05  -8.053882e+00  -3.995139e+00  -2.771499e-22   8.690790e+05   1.470514e-40   0.000000e+00   0.000000e+00
     1600000   1.599999e-05   1.930815e+00   4.654912e+00   3.383190e+01   1.144262e+05  -2.306741e+05   8.300569e+05  -7.462443e+00  -3.701755e+00   1.154101e-21   8.690790e+05   1.262421e-40   0.000000e+00   0.000000e+00
     1608000   1.607999e-05   1.939969e+00   4.636458e+00   3.389831e+01   1.144262e+05  -2.306741e+05   8.300569e+05  -7.757801e+00  -3.848267e+00  -8.167936e-22   8.690790e+05   1.364330e-40   0.000000e+00   0.000000e+00
     1616000   1.615999e-05   1.949123e+00   4.618004e+00   3.396471e+01   1.144262e+05  -2.306741e+05   8.300569e+05  -6.645723e+00  -3.296620e+00  -9.025243e-22   8.690790e+05   1.001257e-40   0.000000e+00   0.000000e+00
     1624000   1.623999e-05   1.958277e+00   4.599550e+00   3.403112e+01   1.144262e+05  -2.306741e+05   8.300569e+05  -5.034038e+00  -2.497141e+00  -9.236688e-22   8.690790e+05   5.745695e-41   0.000000e+00   0.000000e+00
     1632000   1.631999e-05   1.967431e+00   4.581097e+00   3.409752e+01   1.144262e+05  -2.306741e+05   8.300569e+05  -2.103037e+00  -1.043214e+00  -9.667135e-23   8.690790e+05   1.002978e-41   0.000000e+00   0.000000e+00
     1640000   1.639999e-05   1.976585e+00   4.562643e+00   3.416393e+01   1.144262e+05  -2.306741e+05   8.300569e+05  -1.238698e+01  -6.144578e+00  -1.869903e-21   8.690790e+05   3.478290e-40   0.000000e+00   0.000000e+00
     1648000   1.647999e-05   1.985739e+00   4.544189e+00   3.423033e+01   1.144262e+05  -2.306741e+05   8.300569e+05  -2.436950e+00  -1.208852e+00  -1.623336e-22   8.690790e+05   1.346698e-41   0.000000e+00   0.000000e+00
     1656000   1.655999e-05   1.994893e+00   4.525735e+00   3.429674e+01   1.144262e+05  -2.306741e+05   8.300569e+05   4.940510e-01   2.450746e-01   4.120952e-23   8.690790e+05   5.525170e-43   0.000000e+00   0.000000e+00
     1664000   1.663999e-05   2.004048e+00   4.507281e+00   3.436314e+01   1.144262e+05  -2.306741e+05   8.300569e+05  -3.255042e+00  -1.614668e+00   3.735272e-22   8.690790e+05   2.402700e-41   0.000000e+00   0.000000e+00
     1672000   1.671999e-05   2.013202e+00   4.488827e+00   3.442954e+01   1.144262e+05  -2.306741e+05   8.300569e+05  -2.872037e+00  -1.424678e+00  -7.033009e-22   8.690790e+05   1.869414e-41   0.000000e+00   0.000000e+00
     1680000   1.679999e-05   2.022356e+00   4.470373e+00   3.449595e+01   1.144262e+05  -2.306741e+05   8.300569e+05  -6.069225e+00  -3.010647e+00   5.362534e-22   8.690790e+05   8.349408e-41   0.000000e+00   0.000000e+00
     1688000   1.687999e-05   2.031510e+00   4.451919e+00   3.456235e+01   1.144262e+05  -2.306741e+05   8.300569e+05  -4.863492e+00  -2.412542e+00  -1.656851e-22   8.690790e+05   5.362850e-41   0.000000e+00   0.000000e+00
     1696000   1.695999e-05   2.040664e+00   4.433465e+00   3.462876e+01   1.144262e+05  -2.306741e+05   8.300569e+05  -5.193573e+00  -2.576279e+00   2.126216e-21   8.690790e+05   6.113812e-41   0.000000e+00   0.000000e+00
     1704000   1.703999e-05   2.049818e+00   4.415011e+00   3.469516e+01   1.144262e+05  -2.306741e+05   8.300569e+05  -8.390761e+00  -4.162248e+00   2.768276e-21   8.690790e+05   1.595908e-40   0.000000e+00   0.000000e+00
     1712000   1.711999e-05   2.058972e+00   4.396557e+00   3.476157e+01   1.144262e+05  -2.306741e+05   8.300569e+05  -1.509604e+01  -7.488412e+00   3.356560e-21   8.690790e+05   5.166174e-40   0.000000e+00   0.000000e+00
     1720000   1.719999e-05   2.068126e+00   4.378103e+00   3.482797e+01   1.144262e+05  -2.306741e+05   8.300569e+05  -7.056624e+00  -3.500447e+00  -2.465901e-22   8.690790e+05   1.128874e-40   0.000000e+00   0.000000e+00
     1728000   1.727999e-05   2.077280e+00   4.359649e+00   3.489438e+01   1.144262e+05  -2.306741e+05   8.300569e+05  -6.727802e+00  -3.337335e+00  -5.333654e-22   8.690790e+05   1.026120e-40   0.000000e+00   0.000000e+00
     1736000   1.735999e-05   2.086434e+00   4.341195e+00   3.496078e+01   1.144262e+05  -2.306741e+05   8.300569e+05  -1.507993e+01  -7.480419e+00   2.515758e-21   8.690790e+05   5.155152e-40   0.000000e+00   0.000000e+00
     1744000   1.743999e-05   2.095588e+00   4.322742e+00   3.502719e+01   1.144262e+05  -2.306741e+05   8.300569e+05  -7.603457e+00  -3.771705e+00   1.659753e-21   8.690790e+05   1.310610e-40   0.000000e+00   0.000000e+00
     1752000   1.751999e-05   2.104743e+00   4.304288e+00   3.509359e+01   1.144262e+05  -2.306741e+05   8.300569e+05  -1.317973e+01  -6.537821e+00   2.540446e-21   8.690790e+05   3.937559e-40   0.000000e+00   0.000000e+00
     1760000   1.759999e-05   2.113897e+00   4.285834e+00   3.515999e+01   1.144262e+05  -2.306741e+05   8.300569e+05  -1.457641e+01  -7.230645e+00   2.439521e-21   8.690790e+05   4.816656e-40   0.000000e+00   0.000000e+00
     1768000   1.767999e-05   2.123051e+00   4.267380e+00   3.522640e+01   1.144262e+05  -2.306741e+05   8.300569e+05  -6.491330e+00  -3.220033e+00  -6.718821e-22   8.690790e+05   9.553190e-41   0.000000e+00   0.000000e+00
     1776000   1.775999e-05   2.132205e+00   4.248926e+00   3.529280e+01   1.144262e+05  -2.306741e+05   8.300569e+05  -4.424892e+00  -2.194974e+00   9.616987e-22   8.690790e+05   4.439178e-41   0.000000e+00   0.000000e+00
     1784000   1.783999e-05   2.141359e+00   4.230472e+00   3.535921e+01   1.144262e+05  -2.306741e+05   8.300569e+05  -1.001006e+01  -4.965501e+00   3.833310e-21   8.690790e+05   2.271522e-40   0.000000e+00   0.000000e+00
     1792000   1.791999e-05   2.150513e+00   4.212018e+00   3.542561e+01   1.144262e+05  -2.306741e+05   8.300569e+05  -5.558560e+00  -2.757331e+00  -1.004775e-21   8.690790e+05   7.005054e-41   0.000000e+00   0.000000e+00
     1800000   1.799999e-05   2.159667e+00   4.193564e+00   3.549202e+01   1.144262e+05  -2.306741e+05   8.300569e+05  -1.586742e+01  -7.871054e+00   6.883783e-21   8.690790e+05   5.707500e-40   0.000000e+00   0.000000e+00
     1808000   1.807999e-05   2.168821e+00   4.175110e+00   3.555842e+01   1.144262e+05  -2.306741e+05   8.300569e+05  -5.442947e+00  -2.699981e+00  -1.916050e-21   8.690790e+05   6.716627e-41   0.000000e+00   0.000000e+00
     1816000   1.815999e-05   2.177975e+00   4.156656e+00   3.562483e+01   1.144262e+05  -2.306741e+05   8.300569e+05  -1.326053e+01  -6.577902e+00   8.690644e-22   8.690790e+05   3.986139e-40   0.000000e+00   0.000000e+00
     1824000   1.823999e-05   2.187129e+00   4.138202e+00   3.569123e+01   1.144262e+05  -2.306741e+05   8.300569e+05  -1.517165e+01  -7.525915e+00   7.238799e-21   8.690790e+05   5.217929e-40   0.000000e+00   0.000000e+00
     1832000   1.831999e-05   2.196284e+00   4.119748e+00   3.575764e+01   1.144262e+05  -2.306741e+05   8.300569e+05  -6.364134e+00  -3.156937e+00  -8.309050e-22   8.690790e+05   9.182405e-41   0.000000e+00   0.000000e+00
     1840000   1.839999e-05   2.205438e+00   4.101294e+00   3.582404e+01   1.144262e+05  -2.306741e+05   8.300569e+05  -1.002933e+01  -4.975060e+00  -1.461070e-21   8.690790e+05   2.280368e-40   0.000000e+00   0.000000e+00
     1848000   1.847999e-05   2.214592e+00   4.082840e+00   3.589044e+01   1.144262e+05  -2.306741e+05   8.300569e+05  -7.990689e+00  -3.963792e+00   1.726538e-21   8.690790e+05   1.447616e-40   0.000000e+00   0.000000e+00
     1856000   1.855999e-05   2.223746e+00   4.064387e+00   3.595685e+01   1.144262e+05  -2.306741e+05   8.300569e+05  -8.737531e+00  -4.334264e+00  -2.158296e-21   8.690790e+05   1.730666e-40   0.000000e+00   0.000000e+00
     1864000   1.863999e-05   2.232900e+00   4.045933e+00   3.602325e+01   1.144262e+05  -2.306741e+05   8.300569e+05  -7.010182e+00  -3.477410e+00   3.080338e-21   8.690790e+05   1.114163e-40   0.000000e+00   0.000000e+00
     1872000   1.871999e-05   2.242054e+00   4.027479e+00   3.608966e+01   1.144262e+05  -2.306741e+05   8.300569e+05  -4.184463e+00  -2.075708e+00   1.926132e-22   8.690790e+05   3.970079e-41   0.000000e+00   0.000000e+00
     1880000   1.879999e-05   2.251208e+00   4.009025e+00   3.615606e+01   1.144262e+05  -2.306741e+05   8.300569e+05  -6.650266e+00  -3.298873e+00   5.886611e-22   8.690790e+05   1.002560e-40   0.000000e+00   0.000000e+00
     1888000   1.887999e-05   2.260362e+00   3.990571e+00   3.622247e+01   1.144262e+05  -2.306741e+05   8.300569e+05  -6.233647e+00  -3.092209e+00  -1.059550e-21   8.690790e+05   8.808727e-41   0.000000e+00   0.000000e+00
     1896000   1.895999e-05   2.269516e+00   3.972117e+00   3.628887e+01   1.144262e+05  -2.306741e+05   8.300569e+05  -7.252689e+00  -3.597706e+00   4.104081e-22   8.690790e+05   1.192420e-40   0.000000e+00   0.000000e+00
     1904000   1.903999e-05   2.278670e+00   3.953663e+00   3.635528e+01   1.144262e+05  -2.306741e+05   8.300569e+05  -2.456558e+00  -1.218579e+00  -4.420849e-22   8.690790e+05   1.368005e-41   0.000000e+00   0.000000e+00
     1912000   1.911999e-05   2.287824e+00   3.935209e+00   3.642168e+01   1.144262e+05  -2.306741e+05   8.300569e+05  -7.974877e+00  -3.955948e+00   1.586502e-21   8.690790e+05   1.441719e-40   0.000000e+00   0.000000e+00
     1920000   1.919999e-05   2.296979e+00   3.916755e+00   3.648809e+01   1.144262e+05  -2.306741e+05   8.300569e+05  -8.993919e+00  -4.461445e+00   3.043111e-21   8.690790e+05   1.833716e-40   0.000000e+00   0.000000e+00
     1928000   1.927999e-05   2.306133e+00   3.898301e+00   3.655449e+01   1.144262e+05  -2.306741e+05   8.300569e+05  -5.178764e+00  -2.568933e+00  -6.673648e-22   8.690790e+05   6.079781e-41   0.000000e+00   0.000000e+00
     1936000   1.935999e-05   2.315287e+00   3.879847e+00   3.662089e+01   1.144262e+05  -2.306741e+05   8.300569e+05  -8.536297e+00  -4.234441e+00  -6.956439e-22   8.690790e+05   1.651926e-40   0.000000e+00   0.000000e+00
     1944000   1.943999e-05   2.324441e+00   3.861393e+00   3.668730e+01   1.144262e+05  -2.306741e+05   8.300569e+05  -8.142713e+00  -4.039203e+00   4.240037e-22   8.690790e+05   1.503107e-40   0.000000e+00   0.000000e+00
     1952000   1.951999e-05   2.333595e+00   3.842939e+00   3.675370e+01   1.144262e+05  -2.306741e+05   8.300569e+05  -6.172002e+00  -3.061630e+00   1.425855e-21   8.690790e+05   8.635542e-41   0.000000e+00   0.000000e+00
     1960000   1.959999e-05   2.342749e+00   3.824485e+00   3.682011e+01   1.144262e+05  -2.306741e+05   8.300569e+05  -7.900385e+00  -3.918996e+00   1.977450e-21   8.690790e+05   1.414974e-40   0.000000e+00   0.000000e+00
     1968000   1.967999e-05   2.351903e+00   3.806032e+00   3.688651e+01   1.144262e+05  -2.306741e+05   8.300569e+05  -7.506801e+00  -3.723759e+00  -3.408648e-22   8.690790e+05   1.277503e-40   0.000000e+00   0.000000e+00
     1976000   1.975999e-05   2.361057e+00   3.787578e+00   3.695292e+01   1.144262e+05  -2.306741e+05   8.300569e+05  -9.174715e+00  -4.551129e+00  -3.008263e-21   8.690790e+05   1.908166e-40   0.000000e+00   0.000000e+00
     1984000   1.983999e-05   2.370211e+00   3.769124e+00   3.701932e+01   1.144262e+05  -2.306741e+05   8.300569e+05  -4.531622e+00  -2.247917e+00  -1.176748e-21   8.690790e+05   4.655759e-41   0.000000e+00   0.000000e+00
     1992000   1.991999e-05   2.379365e+00   3.750670e+00   3.708573e+01   1.144262e+05  -2.306741e+05   8.300569e+05  -3.004886e+00  -1.490578e+00   5.236272e-22   8.690790e+05   2.047188e-41   0.000000e+00   0.000000e+00
     2000000   1.999999e-05   2.388520e+00   3.732216e+00   3.715213e+01   1.144262e+05  -2.306741e+05   8.300569e+05  -9.131920e+00  -4.529901e+00  -1.319945e-21   8.690790e+05   1.890406e-40   0.000000e+00   0.000000e+00
     2008000   2.007999e-05   2.397674e+00   3.713762e+00   3.721854e+01   1.144262e+05  -2.306741e+05   8.300569e+05  -3.892369e+00  -1.930815e+00  -1.039268e-21   8.690790e+05   3.434923e-41   0.000000e+00   0.000000e+00
     2016000   2.015999e-05   2.406828e+00   3.695308e+00   3.728494e+01   1.144262e+05  -2.306741e+05   8.300569e+05  -2.535630e+00  -1.257802e+00  -3.004066e-22   8.690790e+05   1.457707e-41   0.000000e+00   0.000000e+00
     2024000   2.023999e-05   2.415982e+00   3.676854e+00   3.735134e+01   1.144262e+05  -2.306741e+05   8.300569e+05  -8.776117e+00  -4.353404e+00  -2.358299e-21   8.690790e+05   1.745982e-40   0.000000e+00   0.000000e+00
     2032000   2.031999e-05   2.425136e+00   3.658400e+00   3.741775e+01   1.144262e+05  -2.306741e+05   8.300569e+05  -3.909816e+00  -1.939469e+00   2.958989e-22   8.690790e+05   3.465716e-41   0.000000e+00   0.000000e+00
     2040000   2.039999e-05   2.434290e+00   3.639946e+00   3.748415e+01   1.144262e+05  -2.306741e+05   8.300569e+05  -2.690397e+00  -1.334575e+00   9.392287e-22   8.690790e+05   1.641074e-41   0.000000e+00   0.000000e+00
     2048000   2.047999e-05   2.443444e+00   3.621492e+00   3.755056e+01   1.144262e+05  -2.306741e+05   8.300569e+05  -7.777819e+00  -3.858197e+00   1.914597e-21   8.690790e+05   1.371352e-40   0.000000e+00   0.000000e+00
     2056000   2.055999e-05   2.452598e+00   3.603038e+00   3.761696e+01   1.144262e+05  -2.306741e+05   8.300569e+05  -4.064583e+00  -2.016242e+00   3.803998e-22   8.690790e+05   3.745510e-41   0.000000e+00   0.000000e+00
     2064000   2.063999e-05   2.461752e+00   3.584584e+00   3.768337e+01   1.144262e+05  -2.306741e+05   8.300569e+05  -4.033331e+00  -2.000739e+00  -3.498317e-22   8.690790e+05   3.687799e-41   0.000000e+00   0.000000e+00
     2072000   2.071999e-05   2.470906e+00   3.566130e+00   3.774977e+01   1.144262e+05  -2.306741e+05   8.300569e+05  -1.804127e+00  -8.949393e-01  -7.284293e-22   8.690790e+05   7.378294e-42   0.000000e+00   0.000000e+00
     2080000   2.079999e-05   2.480060e+00   3.547677e+00   3.781618e+01   1.144262e+05  -2.306741e+05   8.300569e+05  -4.454690e+00  -2.209755e+00  -4.774115e-22   8.690790e+05   4.498576e-41   0.000000e+00   0.000000e+00
     2088000   2.087999e-05   2.489215e+00   3.529223e+00   3.788258e+01   1.144262e+05  -2.306741e+05   8.300569e+05  -4.714888e+00  -2.338826e+00   5.788377e-22   8.690790e+05   5.039452e-41   0.000000e+00   0.000000e+00
     2096000   2.095999e-05   2.498369e+00   3.510769e+00   3.794899e+01   1.144262e+05  -2.306741e+05   8.300569e+05  -3.125291e+00  -1.550304e+00  -2.276774e-23   8.690790e+05   2.214181e-41   0.000000e+00   0.000000e+00
     2104000   2.103999e-05   2.507523e+00   3.492315e+00   3.801539e+01   1.144262e+05  -2.306741e+05   8.300569e+05  -5.685374e+00  -2.820237e+00  -2.218614e-21   8.690790e+05   7.327036e-41   0.000000e+00   0.000000e+00
     2112000   2.111999e-05   2.516677e+00   3.473861e+00   3.808179e+01   1.144262e+05  -2.306741e+05   8.300569e+05  -7.578291e+00  -3.759221e+00  -2.676931e-21   8.690790e+05   1.301853e-40   0.000000e+00   0.000000e+00
     2120000   2.119999e-05   2.525831e+00   3.455407e+00   3.814820e+01   1.144262e+05  -2.306741e+05   8.300569e+05  -4.094903e+00  -2.031282e+00   5.162055e-22   8.690790e+05   3.801536e-41   0.000000e+00   0.000000e+00
     2128000   2.127999e-05   2.534985e+00   3.436953e+00   3.821460e+01   1.144262e+05  -2.306741e+05   8.300569e+05  -6.280633e+00  -3.115516e+00  -3.008342e-22   8.690790e+05   8.941709e-41   0.000000e+00   0.000000e+00
     2136000   2.135999e-05   2.544139e+00   3.418499e+00   3.828101e+01   1.144262e+05  -2.306741e+05   8.300569e+05  -8.173550e+00  -4.054500e+00  -7.708378e-22   8.690790e+05   1.514408e-40   0.000000e+00   0.000000e+00
     2144000   2.143999e-05   2.553293e+00   3.400045e+00   3.834741e+01   1.144262e+05  -2.306741e+05   8.300569e+05  -6.314399e+00  -3.132266e+00   1.358934e-21   8.690790e+05   9.039136e-41   0.000000e+00   0.000000e+00
     2152000   2.151999e-05   2.562447e+00   3.381591e+00   3.841382e+01   1.144262e+05  -2.306741e+05   8.300569e+05  -5.942675e+00  -2.947872e+00  -1.209653e-21   8.690790e+05   8.006591e-41   0.000000e+00   0.000000e+00
     2160000   2.159999e-05   2.571601e+00   3.363137e+00   3.848022e+01   1.144262e+05  -2.306741e+05   8.300569e+05  -3.901685e+00  -1.935436e+00  -2.550256e-22   8.690790e+05   3.451499e-41   0.000000e+00   0.000000e+00
     2168000   2.167999e-05   2.580756e+00   3.344683e+00   3.854663e+01   1.144262e+05  -2.306741e+05   8.300569e+05  -9.595826e+00  -4.760022e+00  -1.219151e-22   8.690790e+05   2.087339e-40   0.000000e+00   0.000000e+00
     2176000   2.175999e-05   2.589910e+00   3.326229e+00   3.861303e+01   1.144262e+05  -2.306741e+05   8.300569e+05  -6.651831e+00  -3.299649e+00  -5.858065e-22   8.690790e+05   1.003141e-40   0.000000e+00   0.000000e+00
     2184000   2.183999e-05   2.599064e+00   3.307775e+00   3.867944e+01   1.144262e+05  -2.306741e+05   8.300569e+05  -4.610842e+00  -2.287214e+00  -1.342864e-21   8.690790e+05   4.820087e-41   0.000000e+00   0.000000e+00
     2192000   2.191999e-05   2.608218e+00   3.289322e+00   3.874584e+01   1.144262e+05  -2.306741e+05   8.300569e+05  -4.692515e+00  -2.327728e+00   9.245262e-22   8.690790e+05   4.992420e-41   0.000000e+00   0.000000e+00
     2200000   2.199999e-05   2.617372e+00   3.270868e+00   3.881224e+01   1.144262e+05  -2.306741e+05   8.300569e+05  -7.365056e+00  -3.653446e+00   7.030759e-22   8.690790e+05   1.229628e-40   0.000000e+00   0.000000e+00
     2208000   2.207999e-05   2.626526e+00   3.252414e+00   3.887865e+01   1.144262e+05  -2.306741e+05   8.300569e+05  -9.051271e+00  -4.489895e+00  -3.257015e-21   8.690790e+05   1.857143e-40   0.000000e+00   0.000000e+00
     2216000   2.215999e-05   2.635680e+00   3.233960e+00   3.894505e+01   1.144262e+05  -2.306741e+05   8.300569e+05  -3.923156e+00  -1.946087e+00  -1.430713e-23   8.690790e+05   3.489647e-41   0.000000e+00   0.000000e+00
     2224000   2.223999e-05   2.644834e+00   3.215506e+00   3.901146e+01   1.144262e+05  -2.306741e+05   8.300569e+05  -6.279053e+00  -3.114732e+00  -9.115362e-22   8.690790e+05   8.937285e-41   0.000000e+00   0.000000e+00
     2232000   2.231999e-05   2.653988e+00   3.197052e+00   3.907786e+01   1.144262e+05  -2.306741e+05   8.300569e+05   2.758724e+00   1.368469e+00   8.134675e-22   8.690790e+05   1.724999e-41   0.000000e+00   0.000000e+00
     2240000   2.239999e-05   2.663142e+00   3.178598e+00   3.914427e+01   1.144262e+05  -2.306741e+05   8.300569e+05  -7.761555e+00  -3.850129e+00   9.431143e-23   8.690790e+05   1.365562e-40   0.000000e+00   0.000000e+00
     2248000   2.247999e-05   2.672296e+00   3.160144e+00   3.921067e+01   1.144262e+05  -2.306741e+05   8.300569e+05  -8.554315e-01  -4.243379e-01  -1.625965e-22   8.690790e+05   1.659800e-42   0.000000e+00   0.000000e+00
     2256000   2.255999e-05   2.681451e+00   3.141690e+00   3.927708e+01   1.144262e+05  -2.306741e+05   8.300569e+05   1.026893e+00   5.093916e-01   2.333740e-22   8.690790e+05   2.389449e-42   0.000000e+00   0.000000e+00
     2264000   2.263999e-05   2.690605e+00   3.123236e+00   3.934348e+01   1.144262e+05  -2.306741e+05   8.300569e+05  -7.354296e+00  -3.648108e+00  -1.665270e-21   8.690790e+05   1.226011e-40   0.000000e+00   0.000000e+00
     2272000   2.271999e-05   2.699759e+00   3.104782e+00   3.940989e+01   1.144262e+05  -2.306741e+05   8.300569e+05  -2.587263e+00  -1.283415e+00   3.880184e-22   8.690790e+05   1.517772e-41   0.000000e+00   0.000000e+00
     2280000   2.279999e-05   2.708913e+00   3.086328e+00   3.947629e+01   1.144262e+05  -2.306741e+05   8.300569e+05  -9.924781e-01  -4.923200e-01  -1.364004e-22   8.690790e+05   2.233926e-42   0.000000e+00   0.000000e+00
     2288000   2.287999e-05   2.718067e+00   3.067874e+00   3.954269e+01   1.144262e+05  -2.306741e+05   8.300569e+05  -6.476443e+00  -3.212648e+00  -3.427174e-22   8.690790e+05   9.507928e-41   0.000000e+00   0.000000e+00
     2296000   2.295999e-05   2.727221e+00   3.049420e+00   3.960910e+01   1.144262e+05  -2.306741e+05   8.300569e+05  -4.730921e+00  -2.346780e+00   5.231041e-22   8.690790e+05   5.074296e-41   0.000000e+00   0.000000e+00
     2304000   2.303999e-05   2.736375e+00   3.030967e+00   3.967550e+01   1.144262e+05  -2.306741e+05   8.300569e+05  -3.080493e+00  -1.528082e+00  -4.313187e-22   8.690790e+05   2.151518e-41   0.000000e+00   0.000000e+00
     2312000   2.311999e-05   2.745529e+00   3.012513e+00   3.974191e+01   1.144262e+05  -2.306741e+05   8.300569e+05  -5.458767e+00  -2.707829e+00   9.256778e-22   8.690790e+05   6.754538e-41   0.000000e+00   0.000000e+00
     2320000   2.319999e-05   2.754683e+00   2.994059e+00   3.980831e+01   1.144262e+05  -2.306741e+05   8.300569e+05  -8.766454e+00  -4.348611e+00  -1.751578e-21   8.690790e+05   1.742127e-40   0.000000e+00   0.000000e+00
     2328000   2.327999e-05   2.763837e+00   2.975605e+00   3.987472e+01   1.144262e+05  -2.306741e+05   8.300569e+05  -9.946801e+00  -4.934124e+00  -2.808335e-21   8.690790e+05   2.242851e-40   0.000000e+00   0.000000e+00
     2336000   2.335999e-05   2.772992e+00   2.957151e+00   3.994112e+01   1.144262e+05  -2.306741e+05   8.300569e+05  -3.043493e+00  -1.509729e+00   9.520978e-22   8.690790e+05   2.100011e-41   0.000000e+00   0.000000e+00
     2344000   2.343999e-05   2.782146e+00   2.938697e+00   4.000753e+01   1.144262e+05  -2.306741e+05   8.300569e+05  -8.341358e+00  -4.137741e+00  -2.599600e-22   8.690790e+05   1.577265e-40   0.000000e+00   0.000000e+00
     2352000   2.351999e-05   2.791300e+00   2.920243e+00   4.007393e+01   1.144262e+05  -2.306741e+05   8.300569e+05  -9.521704e+00  -4.723254e+00  -1.723365e-22   8.690790e+05   2.055239e-40   0.000000e+00   0.000000e+00
     2360000   2.359999e-05   2.800454e+00   2.901789e+00   4.014034e+01   1.144262e+05  -2.306741e+05   8.300569e+05  -6.325321e+00  -3.137684e+00   3.061273e-21   8.690790e+05   9.069353e-41   0.000000e+00   0.000000e+00
     2368000   2.367999e-05   2.809608e+00   2.883335e+00   4.020674e+01   1.144262e+05  -2.306741e+05   8.300569e+05  -7.802929e+00  -3.870653e+00  -3.258958e-22   8.690790e+05   1.380241e-40   0.000000e+00   0.000000e+00
     2376000   2.375999e-05   2.818762e+00   2.864881e+00   4.027314e+01   1.144262e+05  -2.306741e+05   8.300569e+05  -8.291773e+00  -4.113145e+00  -2.289094e-22   8.690790e+05   1.558601e-40   0.000000e+00   0.000000e+00
     2384000   2.383999e-05   2.827916e+00   2.846427e+00   4.033955e+01   1.144262e+05  -2.306741e+05   8.300569e+05  -5.305419e+00  -2.631760e+00   1.609393e-21   8.690790e+05   6.381121e-41   0.000000e+00   0.000000e+00
     2392000   2.391999e-05   2.837070e+00   2.827973e+00   4.040595e+01   1.144262e+05  -2.306741e+05   8.300569e+05  -7.209739e+00  -3.576400e+00  -1.977303e-21   8.690790e+05   1.178361e-40   0.000000e+00   0.000000e+00
     2400000   2.399999e-05   2.846224e+00   2.809519e+00   4.047236e+01   1.144262e+05  -2.306741e+05   8.300569e+05  -7.698583e+00  -3.818892e+00   1.566026e-21   8.690790e+05   1.343573e-40   0.000000e+00   0.000000e+00
     2408000   2.407999e-05   2.855378e+00   2.791065e+00   4.053876e+01   1.144262e+05  -2.306741e+05   8.300569e+05  -5.516093e+00  -2.736265e+00   7.902626e-22   8.690790e+05   6.898659e-41   0.000000e+00   0.000000e+00
     2416000   2.415999e-05   2.864532e+00   2.772612e+00   4.060517e+01   1.144262e+05  -2.306741e+05   8.300569e+05  -7.264470e+00  -3.603550e+00  -2.402088e-22   8.690790e+05   1.196227e-40   0.000000e+00   0.000000e+00
     2424000   2.423999e-05   2.873687e+00   2.754158e+00   4.067157e+01   1.144262e+05  -2.306741e+05   8.300569e+05  -9.981096e+00  -4.951136e+00  -1.703685e-21   8.690790e+05   2.258257e-40   0.000000e+00   0.000000e+00
     2432000   2.431999e-05   2.882841e+00   2.735704e+00   4.073798e+01   1.144262e+05  -2.306741e+05   8.300569e+05  -6.039048e+00  -2.995678e+00   2.338211e-21   8.690790e+05   8.268632e-41   0.000000e+00   0.000000e+00
     2440000   2.439999e-05   2.891995e+00   2.717250e+00   4.080438e+01   1.144262e+05  -2.306741e+05   8.300569e+05  -6.499238e+00  -3.223956e+00   1.943295e-21   8.690790e+05   9.574718e-41   0.000000e+00   0.000000e+00
     2448000   2.447999e-05   2.901149e+00   2.698796e+00   4.087079e+01   1.144262e+05  -2.306741e+05   8.300569e+05  -7.312309e+00  -3.627280e+00   2.931442e-21   8.690790e+05   1.212109e-40   0.000000e+00   0.000000e+00
     2456000   2.455999e-05   2.910303e+00   2.680342e+00   4.093719e+01   1.144262e+05  -2.306741e+05   8.300569e+05  -6.883758e+00  -3.414697e+00   2.595613e-21   8.690790e+05   1.074295e-40   0.000000e+00   0.000000e+00
     2464000   2.463999e-05   2.919457e+00   2.661888e+00   4.100359e+01   1.144262e+05  -2.306741e+05   8.300569e+05  -5.606566e+00  -2.781144e+00   1.220507e-21   8.690790e+05   7.125618e-41   0.000000e+00   0.000000e+00
     2472000   2.471999e-05   2.928611e+00   2.643434e+00   4.107000e+01   1.144262e+05  -2.306741e+05   8.300569e+05  -6.526498e+00  -3.237478e+00  -7.092933e-22   8.690790e+05   9.655874e-41   0.000000e+00   0.000000e+00
     2480000   2.479999e-05   2.937765e+00   2.624980e+00   4.113640e+01   1.144262e+05  -2.306741e+05   8.300569e+05  -5.478697e+00  -2.717715e+00  -5.025783e-22   8.690790e+05   6.805087e-41   0.000000e+00   0.000000e+00
     2488000   2.487999e-05   2.946919e+00   2.606526e+00   4.120281e+01   1.144262e+05  -2.306741e+05   8.300569e+05  -4.820756e+00  -2.391342e+00   4.676239e-22   8.690790e+05   5.268124e-41   0.000000e+00   0.000000e+00
     2496000   2.495999e-05   2.956073e+00   2.588072e+00   4.126921e+01   1.144262e+05  -2.306741e+05   8.300569e+05   1.042973e+00   5.173683e-01  -3.429510e-22   8.690790e+05   2.465641e-42   0.000000e+00   0.000000e+00
     2504000   2.503999e-05   2.965228e+00   2.569618e+00   4.133562e+01   1.144262e+05  -2.306741e+05   8.300569e+05  -4.544123e+00  -2.254118e+00   3.918281e-22   8.690790e+05   4.680863e-41   0.000000e+00   0.000000e+00
     2512000   2.511999e-05   2.974382e+00   2.551164e+00   4.140202e+01   1.144262e+05  -2.306741e+05   8.300569e+05  -8.344639e-02  -4.139369e-02   1.478723e-24   8.690790e+05   1.581431e-44   0.000000e+00   0.000000e+00
     2520000   2.519999e-05   2.983536e+00   2.532710e+00   4.146843e+01   1.144262e+05  -2.306741e+05   8.300569e+05   5.229545e-01   2.594123e-01  -4.584964e-23   8.690790e+05   6.197954e-43   0.000000e+00   0.000000e+00
     2528000   2.527999e-05   2.992690e+00   2.514257e+00   4.153483e+01   1.144262e+05  -2.306741e+05   8.300569e+05  -4.811222e+00  -2.386613e+00  -1.687148e-22   8.690790e+05   5.247321e-41   0.000000e+00   0.000000e+00
     2536000   2.535999e-05   3.001844e+00   2.495803e+00   4.160124e+01   1.144262e+05  -2.306741e+05   8.300569e+05  -8.262873e-01  -4.098809e-01   1.366480e-22   8.690790e+05   1.547732e-42   0.000000e+00   0.000000e+00
     2544000   2.543999e-05   3.010998e+00   2.477349e+00   4.166764e+01   1.144262e+05  -2.306741e+05   8.300569e+05  -9.239412e-01  -4.583222e-01   1.865950e-22   8.690790e+05   1.935190e-42   0.000000e+00   0.000000e+00
     2552000   2.551999e-05   3.020152e+00   2.458895e+00   4.173404e+01   1.144262e+05  -2.306741e+05   8.300569e+05  -5.728791e+00  -2.841774e+00   1.915857e-21   8.690790e+05   7.439519e-41   0.000000e+00   0.000000e+00
     2560000   2.559999e-05   3.029306e+00   2.440441e+00   4.180045e+01   1.144262e+05  -2.306741e+05   8.300569e+05  -4.589784e+00  -2.276768e+00  -3.510156e-22   8.690790e+05   4.775608e-41   0.000000e+00   0.000000e+00
     2568000   2.567999e-05   3.038460e+00   2.421987e+00   4.186685e+01   1.144262e+05  -2.306741e+05   8.300569e+05  -4.687438e+00  -2.325210e+00   9.852937e-22   8.690790e+05   4.980986e-41   0.000000e+00   0.000000e+00
     2576000   2.575999e-05   3.047614e+00   2.403533e+00   4.193326e+01   1.144262e+05  -2.306741e+05   8.300569e+05  -6.616279e+00  -3.282014e+00  -8.571635e-22   8.690790e+05   9.923166e-41   0.000000e+00   0.000000e+00
     2584000   2.583999e-05   3.056768e+00   2.385079e+00   4.199966e+01   1.144262e+05  -2.306741e+05   8.300569e+05   1.328077e+00   6.587943e-01   1.790200e-22   8.690790e+05   3.995995e-42   0.000000e+00   0.000000e+00
     2592000   2.591999e-05   3.065923e+00   2.366625e+00   4.206607e+01   1.144262e+05  -2.306741e+05   8.300569e+05  -1.034889e+01  -5.133581e+00   2.082165e-21   8.690790e+05   2.427761e-40   0.000000e+00   0.000000e+00
     2600000   2.599999e-05   3.075077e+00   2.348171e+00   4.213247e+01   1.144262e+05  -2.306741e+05   8.300569e+05  -2.190445e+00  -1.086573e+00   7.905618e-22   8.690790e+05   1.088112e-41   0.000000e+00   0.000000e+00
     2608000   2.607999e-05   3.084231e+00   2.329717e+00   4.219888e+01   1.144262e+05  -2.306741e+05   8.300569e+05   1.085958e+00   5.386910e-01  -1.729728e-22   8.690790e+05   2.671437e-42   0.000000e+00   0.000000e+00
     2616000   2.615999e-05   3.093385e+00   2.311263e+00   4.226528e+01   1.144262e+05  -2.306741e+05   8.300569e+05  -8.341773e+00  -4.137947e+00  -9.137724e-22   8.690790e+05   1.577351e-40   0.000000e+00   0.000000e+00
     2624000   2.623999e-05   3.102539e+00   2.292809e+00   4.233169e+01   1.144262e+05  -2.306741e+05   8.300569e+05  -3.511767e+00  -1.742017e+00  -3.811175e-22   8.690790e+05   2.795913e-41   0.000000e+00   0.000000e+00
     2632000   2.631999e-05   3.111693e+00   2.274355e+00   4.239809e+01   1.144262e+05  -2.306741e+05   8.300569e+05  -2.680317e+00  -1.329575e+00  -1.617184e-22   8.690790e+05   1.628743e-41   0.000000e+00   0.000000e+00
     2640000   2.639999e-05   3.120847e+00   2.255902e+00   4.246450e+01   1.144262e+05  -2.306741e+05   8.300569e+05  -5.863185e+00  -2.908440e+00   5.993951e-22   8.690790e+05   7.792739e-41   0.000000e+00   0.000000e+00
     2648000   2.647999e-05   3.130001e+00   2.237448e+00   4.253090e+01   1.144262e+05  -2.306741e+05   8.300569e+05  -4.892400e+00  -2.426881e+00  -5.008196e-22   8.690790e+05   5.426362e-41   0.000000e+00   0.000000e+00
     2656000   2.655999e-05   3.139155e+00   2.218994e+00   4.259730e+01   1.144262e+05  -2.306741e+05   8.300569e+05  -4.060950e+00  -2.014439e+00  -2.809815e-22   8.690790e+05   3.738728e-41   0.000000e+00   0.000000e+00
     2664000   2.663999e-05   3.148309e+00   2.200540e+00   4.266371e+01   1.144262e+05  -2.306741e+05   8.300569e+05  -5.791592e+00  -2.872927e+00   1.886330e-21   8.690790e+05   7.603588e-41   0.000000e+00   0.000000e+00
     2672000   2.671999e-05   3.157464e+00   2.182086e+00   4.273011e+01   1.144262e+05  -2.306741e+05   8.300569e+05  -4.865225e+00  -2.413401e+00  -2.270314e-22   8.690790e+05   5.365932e-41   0.000000e+00   0.000000e+00
     2680000   2.679999e-05   3.166618e+00   2.163632e+00   4.279652e+01   1.144262e+05  -2.306741e+05   8.300569e+05  -5.183667e+00  -2.571365e+00  -1.100742e-22   8.690790e+05   6.091355e-41   0.000000e+00   0.000000e+00
     2688000   2.687999e-05   3.175772e+00   2.145178e+00   4.286292e+01   1.144262e+05  -2.306741e+05   8.300569e+05  -4.471717e+00  -2.218201e+00  -4.814883e-22   8.690790e+05   4.533214e-41   0.000000e+00   0.000000e+00
     2696000   2.695999e-05   3.184926e+00   2.126724e+00   4.292933e+01   1.144262e+05  -2.306741e+05   8.300569e+05  -3.445201e+00  -1.708996e+00  -1.041998e-21   8.690790e+05   2.690702e-41   0.000000e+00   0.000000e+00
     2704000   2.703999e-05   3.194080e+00   2.108270e+00   4.299573e+01   1.144262e+05  -2.306741e+05   8.300569e+05  -3.763643e+00  -1.866960e+00   8.001827e-22   8.690790e+05   3.211102e-41   0.000000e+00   0.000000e+00
     2712000   2.711999e-05   3.203234e+00   2.089816e+00   4.306214e+01   1.144262e+05  -2.306741e+05   8.300569e+05  -6.534739e+00  -3.241566e+00  -6.901474e-22   8.690790e+05   9.680442e-41   0.000000e+00   0.000000e+00
     2720000   2.719999e-05   3.212388e+00   2.071362e+00   4.312854e+01   1.144262e+05  -2.306741e+05   8.300569e+05  -3.461149e+00  -1.716907e+00  -3.342325e-22   8.690790e+05   2.715665e-41   0.000000e+00   0.000000e+00
     2728000   2.727999e-05   3.221542e+00   2.052908e+00   4.319495e+01   1.144262e+05  -2.306741e+05   8.300569e+05  -3.807446e+00  -1.888689e+00   2.378218e-22   8.690790e+05   3.286276e-41   0.000000e+00   0.000000e+00
     2736000   2.735999e-05   3.230696e+00   2.034454e+00   4.326135e+01   1.144262e+05  -2.306741e+05   8.300569e+05  -6.778548e+00  -3.362507e+00  -1.407168e-21   8.690790e+05   1.041627e-40   0.000000e+00   0.000000e+00
     2744000   2.743999e-05   3.239850e+00   2.016001e+00   4.332775e+01   1.144262e+05  -2.306741e+05   8.300569e+05  -5.644349e+00  -2.799887e+00   7.468084e-22   8.690790e+05   7.222167e-41   0.000000e+00   0.000000e+00
     2752000   2.751999e-05   3.249004e+00   1.997547e+00   4.339416e+01   1.144262e+05  -2.306741e+05   8.300569e+05  -1.531913e+01  -7.599076e+00  -4.253262e-21   8.690790e+05   5.319977e-40   0.000000e+00   0.000000e+00
     2760000   2.759999e-05   3.258159e+00   1.979093e+00   4.346056e+01   1.144262e+05  -2.306741e+05   8.300569e+05  -1.030775e+01  -5.113172e+00   1.288733e-21   8.690790e+05   2.408745e-40   0.000000e+00   0.000000e+00
     2768000   2.767999e-05   3.267313e+00   1.960639e+00   4.352697e+01   1.144262e+05  -2.306741e+05   8.300569e+05  -1.295707e+01  -6.427372e+00   2.920217e-21   8.690790e+05   3.805871e-40   0.000000e+00   0.000000e+00
     2776000   2.775999e-05   3.276467e+00   1.942185e+00   4.359337e+01   1.144262e+05  -2.306741e+05   8.300569e+05  -1.367490e+01  -6.783452e+00   2.281553e-21   8.690790e+05   4.239250e-40   0.000000e+00   0.000000e+00
     2784000   2.783999e-05   3.285621e+00   1.923731e+00   4.365978e+01   1.144262e+05  -2.306741e+05   8.300569e+05  -9.364845e+00  -4.645444e+00  -1.472600e-21   8.690790e+05   1.988227e-40   0.000000e+00   0.000000e+00
     2792000   2.791999e-05   3.294775e+00   1.905277e+00   4.372618e+01   1.144262e+05  -2.306741e+05   8.300569e+05  -1.131284e+01  -5.611748e+00   3.110402e-22   8.690790e+05   2.901233e-40   0.000000e+00   0.000000e+00
     2800000   2.799999e-05   3.303929e+00   1.886823e+00   4.379259e+01   1.144262e+05  -2.306741e+05   8.300569e+05  -9.008107e+00  -4.468483e+00  -2.164204e-21   8.690790e+05   1.839646e-40   0.000000e+00   0.000000e+00
     2808000   2.807999e-05   3.313083e+00   1.868369e+00   4.385899e+01   1.144262e+05  -2.306741e+05   8.300569e+05  -9.557029e+00  -4.740777e+00   2.827674e-22   8.690790e+05   2.070577e-40   0.000000e+00   0.000000e+00
     2816000   2.815999e-05   3.322237e+00   1.849915e+00   4.392540e+01   1.144262e+05  -2.306741e+05   8.300569e+05  -8.088018e+00  -4.012072e+00  -1.061224e-21   8.690790e+05   1.483043e-40   0.000000e+00   0.000000e+00
     2824000   2.823999e-05   3.331391e+00   1.831461e+00   4.399180e+01   1.144262e+05  -2.306741e+05   8.300569e+05  -6.367595e+00  -3.158654e+00  -1.922383e-22   8.690790e+05   9.192352e-41   0.000000e+00   0.000000e+00
     2832000   2.831999e-05   3.340545e+00   1.813007e+00   4.405820e+01   1.144262e+05  -2.306741e+05   8.300569e+05  -7.300528e+00  -3.621437e+00  -2.431015e-22   8.690790e+05   1.208241e-40   0.000000e+00   0.000000e+00
     2840000   2.839999e-05   3.349700e+00   1.794553e+00   4.412461e+01   1.144262e+05  -2.306741e+05   8.300569e+05  -6.386975e+00  -3.168267e+00   2.312899e-21   8.690790e+05   9.247184e-41   0.000000e+00   0.000000e+00
     2848000   2.847999e-05   3.358854e+00   1.776099e+00   4.419101e+01   1.144262e+05  -2.306741e+05   8.300569e+05  -7.996475e+00  -3.966662e+00   5.312012e-22   8.690790e+05   1.449512e-40   0.000000e+00   0.000000e+00
     2856000   2.855999e-05   3.368008e+00   1.757646e+00   4.425742e+01   1.144262e+05  -2.306741e+05   8.300569e+05  -2.291459e+00  -1.136681e+00  -4.127579e-22   8.690790e+05   1.190503e-41   0.000000e+00   0.000000e+00
     2864000   2.863999e-05   3.377162e+00   1.739192e+00   4.432382e+01   1.144262e+05  -2.306741e+05   8.300569e+05  -6.346412e+00  -3.148146e+00  -3.214261e-22   8.690790e+05   9.130098e-41   0.000000e+00   0.000000e+00
     2872000   2.871999e-05   3.386316e+00   1.720738e+00   4.439023e+01   1.144262e+05  -2.306741e+05   8.300569e+05  -7.955912e+00  -3.946540e+00   1.335985e-21   8.690790e+05   1.434843e-40   0.000000e+00   0.000000e+00
     2880000   2.879999e-05   3.395470e+00   1.702284e+00   4.445663e+01   1.144262e+05  -2.306741e+05   8.300569e+05  -3.369960e+00  -1.671673e+00  -2.410601e-22   8.690790e+05   2.574760e-41   0.000000e+00   0.000000e+00
     2888000   2.887999e-05   3.404624e+00   1.683830e+00   4.452304e+01   1.144262e+05  -2.306741e+05   8.300569e+05  -5.672395e+00  -2.813799e+00  -2.487890e-21   8.690790e+05   7.294531e-41   0.000000e+00   0.000000e+00
     2896000   2.895999e-05   3.413778e+00   1.665376e+00   4.458944e+01   1.144262e+05  -2.306741e+05   8.300569e+05  -4.735145e+00  -2.348875e+00   1.863788e-22   8.690790e+05   5.083168e-41   0.000000e+00   0.000000e+00
     2904000   2.903999e-05   3.422932e+00   1.646922e+00   4.465585e+01   1.144262e+05  -2.306741e+05   8.300569e+05  -6.416711e+00  -3.183018e+00  -2.401427e-22   8.690790e+05   9.333631e-41   0.000000e+00   0.000000e+00
     2912000   2.911999e-05   3.432086e+00   1.628468e+00   4.472225e+01   1.144262e+05  -2.306741e+05   8.300569e+05  -5.683828e+00  -2.819470e+00   1.756878e-21   8.690790e+05   7.323964e-41   0.000000e+00   0.000000e+00
     2920000   2.919999e-05   3.441240e+00   1.610014e+00   4.478865e+01   1.144262e+05  -2.306741e+05   8.300569e+05  -4.746577e+00  -2.354546e+00  -1.306917e-21   8.690790e+05   5.107742e-41   0.000000e+00   0.000000e+00
     2928000   2.927999e-05   3.450395e+00   1.591560e+00   4.485506e+01   1.144262e+05  -2.306741e+05   8.300569e+05  -6.759355e+00  -3.352987e+00  -8.056479e-22   8.690790e+05   1.035733e-40   0.000000e+00   0.000000e+00
     2936000   2.935999e-05   3.459549e+00   1.573106e+00   4.492146e+01   1.144262e+05  -2.306741e+05   8.300569e+05  -7.810935e+00  -3.874624e+00  -1.715751e-21   8.690790e+05   1.383123e-40   0.000000e+00   0.000000e+00
     2944000   2.943999e-05   3.468703e+00   1.554652e+00   4.498787e+01   1.144262e+05  -2.306741e+05   8.300569e+05  -7.211746e+00  -3.577396e+00  -3.990278e-21   8.690790e+05   1.179061e-40   0.000000e+00   0.000000e+00
     2952000   2.951999e-05   3.477857e+00   1.536198e+00   4.505427e+01   1.144262e+05  -2.306741e+05   8.300569e+05  -6.773330e+00  -3.359919e+00  -3.219794e-21   8.690790e+05   1.040020e-40   0.000000e+00   0.000000e+00
     2960000   2.959999e-05   3.487011e+00   1.517744e+00   4.512068e+01   1.144262e+05  -2.306741e+05   8.300569e+05  -7.737221e+00  -3.838059e+00  -1.246628e-21   8.690790e+05   1.357141e-40   0.000000e+00   0.000000e+00
     2968000   2.967999e-05   3.496165e+00   1.499291e+00   4.518708e+01   1.144262e+05  -2.306741e+05   8.300569e+05  -2.312866e+01  -1.147300e+01  -5.659129e-21   8.690790e+05   1.212648e-39   0.000000e+00   0.000000e+00
     2976000   2.975999e-05   3.505319e+00   1.480837e+00   4.525349e+01   1.144262e+05  -2.306741e+05   8.300569e+05  -7.483722e+00  -3.712310e+00  -2.438924e-21   8.690790e+05   1.269587e-40   0.000000e+00   0.000000e+00
     2984000   2.983999e-05   3.514473e+00   1.462383e+00   4.531989e+01   1.144262e+05  -2.306741e+05   8.300569e+05  -7.821817e+00  -3.880023e+00  -1.300979e-21   8.690790e+05   1.386999e-40   0.000000e+00   0.000000e+00
     2992000   2.991999e-05   3.523627e+00   1.443929e+00   4.538630e+01   1.144262e+05  -2.306741e+05   8.300569e+05  -6.781650e+00  -3.364046e+00  -2.277495e-21   8.690790e+05   1.042639e-40   0.000000e+00   0.000000e+00
     3000000   2.999999e-05   3.532781e+00   1.425475e+00   4.545270e+01   1.144262e+05  -2.306741e+05   8.300569e+05  -8.201985e+00  -4.068605e+00   1.496386e-21   8.690790e+05   1.524989e-40   0.000000e+00   0.000000e+00
     3008000   3.007999e-05   3.541935e+00   1.407021e+00   4.551910e+01   1.144262e+05  -2.306741e+05   8.300569e+05  -7.985961e+00  -3.961446e+00  -2.695001e-23   8.690790e+05   1.445822e-40   0.000000e+00   0.000000e+00
     3016000   3.015999e-05   3.551090e+00   1.388567e+00   4.558551e+01   1.144262e+05  -2.306741e+05   8.300569e+05  -1.473214e+01  -7.307897e+00   4.984924e-22   8.690790e+05   4.920175e-40   0.000000e+00   0.000000e+00
     3024000   3.023999e-05   3.560244e+00   1.370113e+00   4.565191e+01   1.144262e+05  -2.306741e+05   8.300569e+05  -1.046111e+01  -5.189245e+00   3.969073e-22   8.690790e+05   2.480953e-40   0.000000e+00   0.000000e+00
     3032000   3.031999e-05   3.569398e+00   1.351659e+00   4.571832e+01   1.144262e+05  -2.306741e+05   8.300569e+05  -1.137427e+01  -5.642223e+00   1.162093e-22   8.690790e+05   2.932898e-40   0.000000e+00   0.000000e+00
     3040000   3.039999e-05   3.578552e+00   1.333205e+00   4.578472e+01   1.144262e+05  -2.306741e+05   8.300569e+05  -1.103517e+01  -5.474010e+00  -5.653729e-22   8.690790e+05   2.760627e-40   0.000000e+00   0.000000e+00
     3048000   3.047999e-05   3.587706e+00   1.314751e+00   4.585113e+01   1.144262e+05  -2.306741e+05   8.300569e+05  -8.230992e+00  -4.082994e+00  -1.877675e-21   8.690790e+05   1.535933e-40   0.000000e+00   0.000000e+00
     3056000   3.055999e-05   3.596860e+00   1.296297e+00   4.591753e+01   1.144262e+05  -2.306741e+05   8.300569e+05   3.490722e+00   1.731577e+00   1.001400e-21   8.690790e+05   2.762445e-41   0.000000e+00   0.000000e+00
     3064000   3.063999e-05   3.606014e+00   1.277843e+00   4.598394e+01   1.144262e+05  -2.306741e+05   8.300569e+05  -2.322095e+00  -1.151878e+00   1.738487e-22   8.690790e+05   1.222994e-41   0.000000e+00   0.000000e+00
     3072000   3.071999e-05   3.615168e+00   1.259389e+00   4.605034e+01   1.144262e+05  -2.306741e+05   8.300569e+05  -9.310293e+00  -4.618383e+00  -1.332302e-21   8.690790e+05   1.964884e-40   0.000000e+00   0.000000e+00
     3080000   3.079999e-05   3.624322e+00   1.240936e+00   4.611675e+01   1.144262e+05  -2.306741e+05   8.300569e+05  -5.036984e+00  -2.498603e+00   4.244356e-22   8.690790e+05   5.752919e-41   0.000000e+00   0.000000e+00
     3088000   3.087999e-05   3.633476e+00   1.222482e+00   4.618315e+01   1.144262e+05  -2.306741e+05   8.300569e+05  -3.696284e-01  -1.833546e-01   2.051558e-23   8.690790e+05   3.107041e-43   0.000000e+00   0.000000e+00
     3096000   3.095999e-05   3.642631e+00   1.204028e+00   4.624955e+01   1.144262e+05  -2.306741e+05   8.300569e+05  -6.606060e+00  -3.276945e+00   8.241435e-22   8.690790e+05   9.891913e-41   0.000000e+00   0.000000e+00
     3104000   3.103999e-05   3.651785e+00   1.185574e+00   4.631596e+01   1.144262e+05  -2.306741e+05   8.300569e+05  -6.988224e+00  -3.466518e+00  -1.519570e-21   8.690790e+05   1.107065e-40   0.000000e+00   0.000000e+00
     3112000   3.111999e-05   3.660939e+00   1.167120e+00   4.638236e+01   1.144262e+05  -2.306741e+05   8.300569e+05  -7.448054e+00  -3.694617e+00  -2.189227e-21   8.690790e+05   1.257550e-40   0.000000e+00   0.000000e+00
     3120000   3.119999e-05   3.670093e+00   1.148666e+00   4.644877e+01   1.144262e+05  -2.306741e+05   8.300569e+05   1.129178e-01   5.601301e-02   3.683313e-24   8.690790e+05   2.895214e-44   0.000000e+00   0.000000e+00
     3128000   3.127999e-05   3.679247e+00   1.130212e+00   4.651517e+01   1.144262e+05  -2.306741e+05   8.300569e+05  -8.013316e+00  -3.975016e+00  -1.340328e-21   8.690790e+05   1.455676e-40   0.000000e+00   0.000000e+00
     3136000   3.135999e-05   3.688401e+00   1.111758e+00   4.658158e+01   1.144262e+05  -2.306741e+05   8.300569e+05  -8.473146e+00  -4.203115e+00  -2.017728e-21   8.690790e+05   1.627533e-40   0.000000e+00   0.000000e+00
     3144000   3.143999e-05   3.697555e+00   1.093304e+00   4.664798e+01   1.144262e+05  -2.306741e+05   8.300569e+05  -5.251532e+00  -2.605029e+00  -9.383505e-22   8.690790e+05   6.252668e-41   0.000000e+00   0.000000e+00
     3152000   3.151999e-05   3.706709e+00   1.074850e+00   4.671439e+01   1.144262e+05  -2.306741e+05   8.300569e+05  -7.418790e+00  -3.680100e+00   2.714583e-21   8.690790e+05   1.247798e-40   0.000000e+00   0.000000e+00
     3160000   3.159999e-05   3.715863e+00   1.056396e+00   4.678079e+01   1.144262e+05  -2.306741e+05   8.300569e+05  -5.259336e+00  -2.608900e+00  -3.960637e-22   8.690790e+05   6.271232e-41   0.000000e+00   0.000000e+00
     3168000   3.167999e-05   3.725017e+00   1.037942e+00   4.684720e+01   1.144262e+05  -2.306741e+05   8.300569e+05  -4.167308e+00  -2.067199e+00   5.790071e-22   8.690790e+05   3.936511e-41   0.000000e+00   0.000000e+00
     3176000   3.175999e-05   3.734171e+00   1.019488e+00   4.691360e+01   1.144262e+05  -2.306741e+05   8.300569e+05  -5.104705e+00  -2.532196e+00  -5.785436e-22   8.690790e+05   5.907907e-41   0.000000e+00   0.000000e+00
     3184000   3.183999e-05   3.743326e+00   1.001034e+00   4.698000e+01   1.144262e+05  -2.306741e+05   8.300569e+05  -2.945251e+00  -1.460996e+00   9.216156e-22   8.690790e+05   1.966848e-41   0.000000e+00   0.000000e+00
     3192000   3.191999e-05   3.752480e+00   9.825805e-01   4.704641e+01   1.144262e+05  -2.306741e+05   8.300569e+05  -4.963891e-01  -2.462345e-01   1.461251e-23   8.690790e+05   5.590162e-43   0.000000e+00   0.000000e+00
     3200000   3.199999e-05   3.761634e+00   9.641266e-01   4.711281e+01   1.144262e+05  -2.306741e+05   8.300569e+05  -5.580753e+00  -2.768340e+00   1.657104e-21   8.690790e+05   7.060092e-41   0.000000e+00   0.000000e+00
     3208000   3.207999e-05   3.770788e+00   9.456727e-01   4.717922e+01   1.144262e+05  -2.306741e+05   8.300569e+05  -6.695198e+00  -3.321162e+00  -1.609610e-21   8.690790e+05   1.016144e-40   0.000000e+00   0.000000e+00
     3216000   3.215999e-05   3.779942e+00   9.272187e-01   4.724562e+01   1.144262e+05  -2.306741e+05   8.300569e+05  -3.570226e-01  -1.771015e-01   3.111051e-23   8.690790e+05   2.892687e-43   0.000000e+00   0.000000e+00
     3224000   3.223999e-05   3.789096e+00   9.087648e-01   4.731203e+01   1.144262e+05  -2.306741e+05   8.300569e+05  -4.489575e+00  -2.227060e+00   3.113002e-22   8.690790e+05   4.569093e-41   0.000000e+00   0.000000e+00
     3232000   3.231999e-05   3.798250e+00   8.903109e-01   4.737843e+01   1.144262e+05  -2.306741e+05   8.300569e+05  -8.337741e+00  -4.135947e+00   1.821540e-21   8.690790e+05   1.575812e-40   0.000000e+00   0.000000e+00
     3240000   3.239999e-05   3.807404e+00   8.718570e-01   4.744484e+01   1.144262e+05  -2.306741e+05   8.300569e+05  -2.394403e+00  -1.187747e+00   3.083361e-22   8.690790e+05   1.299597e-41   0.000000e+00   0.000000e+00
     3248000   3.247999e-05   3.816558e+00   8.534030e-01   4.751124e+01   1.144262e+05  -2.306741e+05   8.300569e+05  -4.734575e+00  -2.348592e+00   6.340607e-22   8.690790e+05   5.081683e-41   0.000000e+00   0.000000e+00
     3256000   3.255999e-05   3.825712e+00   8.349491e-01   4.757765e+01   1.144262e+05  -2.306741e+05   8.300569e+05  -4.773064e+00  -2.367685e+00   5.722463e-22   8.690790e+05   5.164641e-41   0.000000e+00   0.000000e+00
     3264000   3.263999e-05   3.834867e+00   8.164952e-01   4.764405e+01   1.144262e+05  -2.306741e+05   8.300569e+05  -4.304787e+00  -2.135395e+00  -3.072447e-22   8.690790e+05   4.200798e-41   0.000000e+00   0.000000e+00
     3272000   3.271999e-05   3.844021e+00   7.980412e-01   4.771045e+01   1.144262e+05  -2.306741e+05   8.300569e+05  -9.249056e+00  -4.588006e+00  -3.490281e-22   8.690790e+05   1.939197e-40   0.000000e+00   0.000000e+00
     3280000   3.279999e-05   3.853175e+00   7.795873e-01   4.777686e+01   1.144262e+05  -2.306741e+05   8.300569e+05  -1.089160e+01  -5.402794e+00   1.996704e-21   8.690790e+05   2.689142e-40   0.000000e+00   0.000000e+00
     3288000   3.287999e-05   3.862329e+00   7.611334e-01   4.784326e+01   1.144262e+05  -2.306741e+05   8.300569e+05  -5.633956e+00  -2.794731e+00   1.352262e-21   8.690790e+05   7.196293e-41   0.000000e+00   0.000000e+00
     3296000   3.295999e-05   3.871483e+00   7.426795e-01   4.790967e+01   1.144262e+05  -2.306741e+05   8.300569e+05  -8.784434e+00  -4.357530e+00  -1.033639e-21   8.690790e+05   1.749257e-40   0.000000e+00   0.000000e+00
     3304000   3.303999e-05   3.880637e+00   7.242255e-01   4.797607e+01   1.144262e+05  -2.306741e+05   8.300569e+05  -1.042698e+01  -5.172318e+00  -1.021222e-21   8.690790e+05   2.464601e-40   0.000000e+00   0.000000e+00
     3312000   3.311999e-05   3.889791e+00   7.057716e-01   4.804248e+01   1.144262e+05  -2.306741e+05   8.300569e+05  -5.509497e+00  -2.732993e+00  -1.296697e-21   8.690790e+05   6.881873e-41   0.000000e+00   0.000000e+00
     3320000   3.319999e-05   3.898945e+00   6.873177e-01   4.810888e+01   1.144262e+05  -2.306741e+05   8.300569e+05  -6.935495e+00  -3.440361e+00   8.167680e-22   8.690790e+05   1.090446e-40   0.000000e+00   0.000000e+00
     3328000   3.327999e-05   3.908099e+00   6.688637e-01   4.817529e+01   1.144262e+05  -2.306741e+05   8.300569e+05  -8.323225e+00  -4.128747e+00  -1.197487e-21   8.690790e+05   1.570472e-40   0.000000e+00   0.000000e+00
     3336000   3.335999e-05   3.917253e+00   6.504098e-01   4.824169e+01   1.144262e+05  -2.306741e+05   8.300569e+05  -6.034463e+00  -2.993403e+00  -8.494381e-22   8.690790e+05   8.255444e-41   0.000000e+00   0.000000e+00
     3344000   3.343999e-05   3.926407e+00   6.319559e-01   4.830810e+01   1.144262e+05  -2.306741e+05   8.300569e+05  -5.744073e+00  -2.849355e+00  -6.942795e-22   8.690790e+05   7.479747e-41   0.000000e+00   0.000000e+00
     3352000   3.351999e-05   3.935562e+00   6.135020e-01   4.837450e+01   1.144262e+05  -2.306741e+05   8.300569e+05  -5.712152e+00  -2.833520e+00   1.587980e-21   8.690790e+05   7.396845e-41   0.000000e+00   0.000000e+00
     3360000   3.359999e-05   3.944716e+00   5.950480e-01   4.844090e+01   1.144262e+05  -2.306741e+05   8.300569e+05  -6.107187e+00  -3.029478e+00   8.529315e-22   8.690790e+05   8.455281e-41   0.000000e+00   0.000000e+00
     3368000   3.367999e-05   3.953870e+00   5.765941e-01   4.850731e+01   1.144262e+05  -2.306741e+05   8.300569e+05  -6.029263e+00  -2.990824e+00   1.952823e-21   8.690790e+05   8.241026e-41   0.000000e+00   0.000000e+00
     3376000   3.375999e-05   3.963024e+00   5.581402e-01   4.857371e+01   1.144262e+05  -2.306741e+05   8.300569e+05  -5.672726e+00  -2.813963e+00   1.310031e-21   8.690790e+05   7.295196e-41   0.000000e+00   0.000000e+00
     3384000   3.383999e-05   3.972178e+00   5.396862e-01   4.864012e+01   1.144262e+05  -2.306741e+05   8.300569e+05  -4.673686e+00  -2.318388e+00   3.357817e-22   8.690790e+05   4.951815e-41   0.000000e+00   0.000000e+00
     3392000   3.391999e-05   3.981332e+00   5.212323e-01   4.870652e+01   1.144262e+05  -2.306741e+05   8.300569e+05  -6.533408e+00  -3.240905e+00   1.119811e-21   8.690790e+05   9.676803e-41   0.000000e+00   0.000000e+00
     3400000   3.399999e-05   3.990486e+00   5.027784e-01   4.877293e+01   1.144262e+05  -2.306741e+05   8.300569e+05  -6.176872e+00  -3.064045e+00   4.777516e-22   8.690790e+05   8.649477e-41   0.000000e+00   0.000000e+00
     3408000   3.407999e-05   3.999640e+00   4.843245e-01   4.883933e+01   1.144262e+05  -2.306741e+05   8.300569e+05  -5.491090e+00  -2.723862e+00   1.310469e-21   8.690790e+05   6.835111e-41   0.000000e+00   0.000000e+00
     3416000   3.415999e-05   4.008794e+00   4.658705e-01   4.890574e+01   1.144262e+05  -2.306741e+05   8.300569e+05  -6.965135e+00  -3.455064e+00  -1.203861e-21   8.690790e+05   1.099835e-40   0.000000e+00   0.000000e+00
     3424000   3.423999e-05   4.017948e+00   4.474166e-01   4.897214e+01   1.144262e+05  -2.306741e+05   8.300569e+05  -5.548939e+00  -2.752558e+00  -6.896023e-22   8.690790e+05   6.980620e-41   0.000000e+00   0.000000e+00
     3432000   3.431999e-05   4.027103e+00   4.289627e-01   4.903855e+01   1.144262e+05  -2.306741e+05   8.300569e+05  -5.482568e+00  -2.719635e+00   1.673520e-21   8.690790e+05   6.813607e-41   0.000000e+00   0.000000e+00
     3440000   3.439999e-05   4.036257e+00   4.105087e-01   4.910495e+01   1.144262e+05  -2.306741e+05   8.300569e+05  -7.342798e+00  -3.642405e+00   2.126017e-21   8.690790e+05   1.222336e-40   0.000000e+00   0.000000e+00
     3448000   3.447999e-05   4.045411e+00   3.920548e-01   4.917135e+01   1.144262e+05  -2.306741e+05   8.300569e+05  -7.719754e+00  -3.829394e+00   7.398845e-22   8.690790e+05   1.351033e-40   0.000000e+00   0.000000e+00
     3456000   3.455999e-05   4.054565e+00   3.736009e-01   4.923776e+01   1.144262e+05  -2.306741e+05   8.300569e+05  -4.558785e+00  -2.261391e+00  -5.699127e-22   8.690790e+05   4.711246e-41   0.000000e+00   0.000000e+00
     3464000   3.463999e-05   4.063719e+00   3.551470e-01   4.930416e+01   1.144262e+05  -2.306741e+05   8.300569e+05  -8.025746e+00  -3.981182e+00  -8.148710e-22   8.690790e+05   1.460258e-40   0.000000e+00   0.000000e+00
     3472000   3.471999e-05   4.072873e+00   3.366930e-01   4.937057e+01   1.144262e+05  -2.306741e+05   8.300569e+05  -7.122761e+00  -3.533255e+00  -1.068118e-21   8.690790e+05   1.150157e-40   0.000000e+00   0.000000e+00
     3480000   3.479999e-05   4.082027e+00   3.182391e-01   4.943697e+01   1.144262e+05  -2.306741e+05   8.300569e+05  -3.569136e+00  -1.770475e+00  -1.744859e-22   8.690790e+05   2.887762e-41   0.000000e+00   0.000000e+00
     3488000   3.487999e-05   4.091181e+00   2.997852e-01   4.950338e+01   1.144262e+05  -2.306741e+05   8.300569e+05  -3.133396e+06  -1.554325e+06  -1.294950e-15   8.690790e+05   2.225416e-29   0.000000e+00   0.000000e+00
     3496000   3.495999e-05   4.100335e+00   2.813312e-01   4.956978e+01   1.144259e+05  -2.306743e+05   8.300568e+05   1.072792e+07  -5.905636e+06  -3.120063e+06   8.690790e+05   2.904717e-28   0.000000e+00   0.000000e+00
     3504000   3.503999e-05   4.109489e+00   2.628773e-01   4.963619e+01   1.144267e+05  -2.306748e+05   8.300566e+05   1.182101e+07  -1.033587e+07  -4.501941e+06   8.690790e+05   4.852840e-28   0.000000e+00   0.000000e+00
     3512000   3.511999e-05   4.118644e+00   2.444232e-01   4.970259e+01   1.144284e+05  -2.306763e+05   8.300559e+05   6.901873e+07  -5.723514e+07  -2.542057e+07   8.690790e+05   1.579970e-26   0.000000e+00   0.000000e+00
     3520000   3.519999e-05   4.127798e+00   2.259689e-01   4.976900e+01   1.144355e+05  -2.306821e+05   8.300534e+05   1.077729e+08  -8.641205e+07  -3.887311e+07   8.690790e+05   3.746192e-26   0.000000e+00   0.000000e+00
     3528000   3.527999e-05   4.136953e+00   2.075141e-01   4.983540e+01   1.144436e+05  -2.306886e+05   8.300504e+05   6.922716e+07  -5.726136e+07  -2.545887e+07   8.690790e+05   1.586710e-26   0.000000e+00   0.000000e+00
     3536000   3.535999e-05   4.146109e+00   1.890589e-01   4.990180e+01   1.144453e+05  -2.306901e+05   8.300498e+05   0.000000e+00   0.000000e+00   0.000000e+00   8.690790e+05   0.000000e+00   0.000000e+00   0.000000e+00
     3544000   3.543999e-05   4.155265e+00   1.706037e-01   4.996821e+01   1.144453e+05  -2.306901e+05   8.300498e+05   0.000000e+00   0.000000e+00   0.000000e+00   8.690790e+05   0.000000e+00   0.000000e+00   0.000000e+00
