     timestep     time              x             y              z              vx             vy             vz             ax             ay             az         v_magnitude      ELoss        Electronic      Nuclear
           0   0.000000e+00   1.000000e-01   1.021068e+01   1.870466e+01   9.647601e+05  -1.203811e+05   1.175060e+06   0.000000e+00   0.000000e+00   0.000000e+00   1.525130e+06   0.000000e+00   0.000000e+00   0.000000e+00
        8000   7.999000e-08   1.771808e-01   1.020105e+01   1.879866e+01   9.647601e+05  -1.203811e+05   1.175060e+06   0.000000e+00   0.000000e+00   0.000000e+00   1.525130e+06   0.000000e+00   0.000000e+00   0.000000e+00
       16000   1.599900e-07   2.543616e-01   1.019142e+01   1.889267e+01   9.647601e+05  -1.203811e+05   1.175060e+06   0.000000e+00   0.000000e+00   0.000000e+00   1.525130e+06   0.000000e+00   0.000000e+00   0.000000e+00
       24000   2.399900e-07   3.315424e-01   1.018179e+01   1.898667e+01   9.647601e+05  -1.203811e+05   1.175060e+06   0.000000e+00   0.000000e+00   0.000000e+00   1.525130e+06   0.000000e+00   0.000000e+00   0.000000e+00
       32000   3.199900e-07   4.087232e-01   1.017216e+01   1.908068e+01   9.647601e+05  -1.203811e+05   1.175060e+06   0.000000e+00   0.000000e+00   0.000000e+00   1.525130e+06   0.000000e+00   0.000000e+00   0.000000e+00
       40000   3.999900e-07   4.859040e-01   1.016253e+01   1.917468e+01   9.647601e+05  -1.203811e+05   1.175060e+06   0.000000e+00   0.000000e+00   0.000000e+00   1.525130e+06   0.000000e+00   0.000000e+00   0.000000e+00
       48000   4.799900e-07   5.630848e-01   1.015290e+01   1.926869e+01   9.647601e+05  -1.203811e+05   1.175060e+06   0.000000e+00   0.000000e+00   0.000000e+00   1.525130e+06   0.000000e+00   0.000000e+00   0.000000e+00
       56000   5.599900e-07   6.402656e-01   1.014327e+01   1.936269e+01   9.647601e+05  -1.203811e+05   1.175060e+06   0.000000e+00   0.000000e+00   0.000000e+00   1.525130e+06   0.000000e+00   0.000000e+00   0.000000e+00
       64000   6.399900e-07   7.174464e-01   1.013364e+01   1.945670e+01   9.647601e+05  -1.203811e+05   1.175060e+06   0.000000e+00   0.000000e+00   0.000000e+00   1.525130e+06   0.000000e+00   0.000000e+00   0.000000e+00
       72000   7.199900e-07   7.946273e-01   1.012401e+01   1.955070e+01   9.647601e+05  -1.203811e+05   1.175060e+06   0.000000e+00   0.000000e+00   0.000000e+00   1.525130e+06   0.000000e+00   0.000000e+00   0.000000e+00
       80000   7.999900e-07   8.718080e-01   1.011438e+01   1.964471e+01   9.647593e+05  -1.203798e+05   1.175061e+06  -1.383690e+07   2.253170e+07   1.366877e+07   1.525130e+06   4.962585e-27   0.000000e+00   0.000000e+00
       88000   8.799900e-07   9.489886e-01   1.010475e+01   1.973871e+01   9.647547e+05  -1.203724e+05   1.175065e+06  -7.610852e+07   1.233059e+08   7.511809e+07   1.525130e+06   1.492644e-25   0.000000e+00   0.000000e+00
       96000   9.599900e-07   1.026169e+00   1.009512e+01   1.983272e+01   9.647466e+05  -1.203592e+05   1.175073e+06  -7.553823e+07   1.220977e+08   7.452371e+07   1.525130e+06   1.466629e-25   0.000000e+00   0.000000e+00
      104000   1.039990e-06   1.103348e+00   1.008549e+01   1.992672e+01   9.647419e+05  -1.203516e+05   1.175078e+06  -1.234718e+07   1.997771e+07   1.218318e+07   1.525130e+06   3.931027e-27   0.000000e+00   0.000000e+00
      112000   1.119990e-06   1.180528e+00   1.007586e+01   2.002073e+01   9.647439e+05  -1.203548e+05   1.175076e+06   1.261488e+01  -6.420387e+01  -1.693284e+01   1.525130e+06   2.559062e-38   0.000000e+00   0.000000e+00
      120000   1.199990e-06   1.257707e+00   1.006623e+01   2.011474e+01   9.647439e+05  -1.203548e+05   1.175076e+06  -2.449736e+00  -1.248846e-01   1.998455e+00   1.525130e+06   5.604121e-41   0.000000e+00   0.000000e+00
      128000   1.279990e-06   1.334887e+00   1.005661e+01   2.020874e+01   9.647439e+05  -1.203548e+05   1.175076e+06  -3.762260e+00  -3.015765e+01  -3.125216e-21   1.525130e+06   5.172673e-39   0.000000e+00   0.000000e+00
      136000   1.359990e-06   1.412066e+00   1.004698e+01   2.030275e+01   9.647439e+05  -1.203548e+05   1.175076e+06  -4.268825e+00  -3.421818e+01  -1.768815e-20   1.525130e+06   6.661369e-39   0.000000e+00   0.000000e+00
      144000   1.439990e-06   1.489246e+00   1.003735e+01   2.039675e+01   9.647439e+05  -1.203548e+05   1.175076e+06  -7.124000e+00  -5.710479e+01  -2.289620e-21   1.525130e+06   1.855341e-38   0.000000e+00   0.000000e+00
      152000   1.519990e-06   1.566425e+00   1.002772e+01   2.049076e+01   9.647439e+05  -1.203548e+05   1.175076e+06  -2.970370e+00  -2.380999e+01   7.715388e-21   1.525130e+06   3.225408e-39   0.000000e+00   0.000000e+00
      160000   1.599990e-06   1.643605e+00   1.001809e+01   2.058477e+01   9.647439e+05  -1.203548e+05   1.175076e+06  -7.999705e-01  -6.412430e+00   9.058547e-22   1.525130e+06   2.342359e-40   0.000000e+00   0.000000e+00
      168000   1.679990e-06   1.720784e+00   1.000846e+01   2.067877e+01   9.647439e+05  -1.203548e+05   1.175076e+06  -2.386031e+00  -1.912602e+01   7.302707e-21   1.525130e+06   2.081816e-39   0.000000e+00   0.000000e+00
      176000   1.759990e-06   1.797964e+00   9.998835e+00   2.077278e+01   9.647439e+05  -1.203548e+05   1.175076e+06   1.098065e+00   8.801907e+00   1.007185e-21   1.525130e+06   4.405271e-40   0.000000e+00   0.000000e+00
      184000   1.839990e-06   1.875143e+00   9.989207e+00   2.086678e+01   9.647439e+05  -1.203548e+05   1.175076e+06  -7.023321e+00  -5.629776e+01  -5.351325e-21   1.525130e+06   1.803167e-38   0.000000e+00   0.000000e+00
      192000   1.919990e-06   1.952323e+00   9.979578e+00   2.096079e+01   9.647439e+05  -1.203548e+05   1.175076e+06  -7.171798e+00  -5.748793e+01   8.990513e-21   1.525130e+06   1.880172e-38   0.000000e+00   0.000000e+00
      200000   1.999990e-06   2.029502e+00   9.969950e+00   2.105480e+01   9.647439e+05  -1.203548e+05   1.175076e+06  -4.126733e+00  -3.307920e+01  -6.368550e-21   1.525130e+06   6.226817e-39   0.000000e+00   0.000000e+00
      208000   2.079990e-06   2.106682e+00   9.960321e+00   2.114880e+01   9.647439e+05  -1.203548e+05   1.175076e+06  -9.133943e-01  -7.321616e+00   4.038658e-22   1.525130e+06   3.053426e-40   0.000000e+00   0.000000e+00
      216000   2.159990e-06   2.183861e+00   9.950693e+00   2.124281e+01   9.647439e+05  -1.203548e+05   1.175076e+06  -9.286942e-01  -7.444257e+00  -2.392351e-22   1.525130e+06   3.152521e-40   0.000000e+00   0.000000e+00
      224000   2.239990e-06   2.261041e+00   9.941065e+00   2.133681e+01   9.647439e+05  -1.203548e+05   1.175076e+06  -1.450438e+00  -1.162646e+01  -4.346925e-22   1.525130e+06   7.693812e-40   0.000000e+00   0.000000e+00
      232000   2.319990e-06   2.338220e+00   9.931436e+00   2.143082e+01   9.647439e+05  -1.203548e+05   1.175076e+06  -2.404232e+00  -1.927192e+01  -4.613937e-21   1.525130e+06   2.113811e-39   0.000000e+00   0.000000e+00
      240000   2.399990e-06   2.415400e+00   9.921808e+00   2.152483e+01   9.647439e+05  -1.203548e+05   1.175076e+06  -4.839831e+00  -3.879528e+01   3.978897e-21   1.525130e+06   8.565124e-39   0.000000e+00   0.000000e+00
      248000   2.479990e-06   2.492579e+00   9.912180e+00   2.161883e+01   9.647439e+05  -1.203548e+05   1.175076e+06  -3.822747e+00  -3.064250e+01   7.292052e-21   1.525130e+06   5.342464e-39   0.000000e+00   0.000000e+00
      256000   2.559990e-06   2.569759e+00   9.902551e+00   2.171284e+01   9.647439e+05  -1.203548e+05   1.175076e+06  -4.432575e+00  -3.553078e+01   2.184397e-21   1.525130e+06   7.183062e-39   0.000000e+00   0.000000e+00
      264000   2.639990e-06   2.646938e+00   9.892923e+00   2.180684e+01   9.647439e+05  -1.203548e+05   1.175076e+06  -6.031479e+00  -4.834733e+01   1.320269e-21   1.525130e+06   1.330001e-38   0.000000e+00   0.000000e+00
      272000   2.719990e-06   2.724118e+00   9.883294e+00   2.190085e+01   9.647439e+05  -1.203548e+05   1.175076e+06  -8.810534e+00  -7.062376e+01  -7.451954e-21   1.525130e+06   2.837651e-38   0.000000e+00   0.000000e+00
      280000   2.799990e-06   2.801297e+00   9.873666e+00   2.199486e+01   9.647439e+05  -1.203548e+05   1.175076e+06  -2.336517e+00  -1.872913e+01   1.918295e-22   1.525130e+06   1.997052e-39   0.000000e+00   0.000000e+00
      288000   2.879990e-06   2.878477e+00   9.864038e+00   2.208886e+01   9.647439e+05  -1.203548e+05   1.175076e+06   5.320879e-01   4.265128e+00  -7.282554e-22   1.525130e+06   1.033543e-40   0.000000e+00   0.000000e+00
      296000   2.959990e-06   2.955656e+00   9.854409e+00   2.218287e+01   9.647439e+05  -1.203548e+05   1.175076e+06  -5.743513e-03  -4.603904e-02   1.067183e-23   1.525130e+06   1.268853e-44   0.000000e+00   0.000000e+00
      304000   3.039990e-06   3.032836e+00   9.844781e+00   2.227688e+01   9.647439e+05  -1.203548e+05   1.175076e+06  -7.032622e+00  -5.637232e+01  -6.037327e-21   1.525130e+06   1.808061e-38   0.000000e+00   0.000000e+00
      312000   3.119990e-06   3.110015e+00   9.835152e+00   2.237088e+01   9.647439e+05  -1.203548e+05   1.175076e+06  -6.580914e+00  -5.275151e+01  -1.980898e-21   1.525130e+06   1.583394e-38   0.000000e+00   0.000000e+00
      320000   3.199990e-06   3.187195e+00   9.825524e+00   2.246489e+01   9.647439e+05  -1.203548e+05   1.175076e+06  -8.680825e-01  -6.958404e+00   2.194212e-21   1.525130e+06   2.759878e-40   0.000000e+00   0.000000e+00
      328000   3.279990e-06   3.264374e+00   9.815896e+00   2.255889e+01   9.647439e+05  -1.203548e+05   1.175076e+06  -6.042192e+00  -4.843320e+01   6.203182e-21   1.525130e+06   1.334584e-38   0.000000e+00   0.000000e+00
      336000   3.359990e-06   3.341554e+00   9.806267e+00   2.265290e+01   9.647439e+05  -1.203548e+05   1.175076e+06  -6.195636e+00  -4.966318e+01  -1.607360e-20   1.525130e+06   1.403242e-38   0.000000e+00   0.000000e+00
      344000   3.439990e-06   3.418733e+00   9.796639e+00   2.274691e+01   9.647439e+05  -1.203548e+05   1.175076e+06  -6.562806e+00  -5.260636e+01   1.713393e-20   1.525130e+06   1.574807e-38   0.000000e+00   0.000000e+00
      352000   3.519990e-06   3.495913e+00   9.787011e+00   2.284091e+01   9.647439e+05  -1.203548e+05   1.175076e+06  -7.909170e+00  -6.339858e+01  -7.318762e-21   1.525130e+06   2.286915e-38   0.000000e+00   0.000000e+00
      360000   3.599990e-06   3.573092e+00   9.777382e+00   2.293492e+01   9.647439e+05  -1.203548e+05   1.175076e+06  -4.711836e+00  -3.776929e+01  -1.576502e-20   1.525130e+06   8.116063e-39   0.000000e+00   0.000000e+00
      368000   3.679990e-06   3.650272e+00   9.767754e+00   2.302892e+01   9.647439e+05  -1.203548e+05   1.175076e+06  -1.549348e+00  -1.241931e+01   2.586599e-21   1.525130e+06   8.789167e-40   0.000000e+00   0.000000e+00
      376000   3.759990e-06   3.727451e+00   9.758125e+00   2.312293e+01   9.647439e+05  -1.203548e+05   1.175076e+06  -5.109724e+00  -4.095869e+01   7.907322e-21   1.525130e+06   9.548524e-39   0.000000e+00   0.000000e+00
      384000   3.839990e-06   3.804631e+00   9.748497e+00   2.321694e+01   9.647439e+05  -1.203548e+05   1.175076e+06  -5.186351e+00  -4.157292e+01  -5.736175e-21   1.525130e+06   9.833744e-39   0.000000e+00   0.000000e+00
      392000   3.919990e-06   3.881811e+00   9.738869e+00   2.331094e+01   9.647439e+05  -1.203548e+05   1.175076e+06  -2.175981e+00  -1.744230e+01   1.009964e-20   1.525130e+06   1.731721e-39   0.000000e+00   0.000000e+00
      400000   3.999990e-06   3.958990e+00   9.729240e+00   2.340495e+01   9.647439e+05  -1.203548e+05   1.175076e+06  -4.094389e+00  -3.281994e+01   1.541325e-20   1.525130e+06   6.130016e-39   0.000000e+00   0.000000e+00
      408000   4.079990e-06   4.036170e+00   9.719612e+00   2.349895e+01   9.647439e+05  -1.203548e+05   1.175076e+06  -6.238838e+00  -5.000948e+01   1.099593e-21   1.525130e+06   1.422857e-38   0.000000e+00   0.000000e+00
      416000   4.159990e-06   4.113349e+00   9.709983e+00   2.359296e+01   9.647439e+05  -1.203548e+05   1.175076e+06  -5.332646e+00  -4.274559e+01   1.213760e-20   1.525130e+06   1.039733e-38   0.000000e+00   0.000000e+00
      424000   4.239990e-06   4.190529e+00   9.700355e+00   2.368697e+01   9.647439e+05  -1.203548e+05   1.175076e+06  -3.559970e+00  -2.853612e+01  -9.083748e-21   1.525130e+06   4.634212e-39   0.000000e+00   0.000000e+00
      432000   4.319990e-06   4.267708e+00   9.690727e+00   2.378097e+01   9.647439e+05  -1.203548e+05   1.175076e+06  -2.797839e+00  -2.242701e+01   2.731181e-21   1.525130e+06   2.861919e-39   0.000000e+00   0.000000e+00
      440000   4.399990e-06   4.344888e+00   9.681098e+00   2.387498e+01   9.647439e+05  -1.203548e+05   1.175076e+06  -7.135703e+00  -5.719860e+01   4.440017e-21   1.525130e+06   1.861595e-38   0.000000e+00   0.000000e+00
      448000   4.479990e-06   4.422067e+00   9.671470e+00   2.396898e+01   9.647439e+05  -1.203548e+05   1.175076e+06  -4.877866e+00  -3.910016e+01   5.101485e-21   1.525130e+06   8.699032e-39   0.000000e+00   0.000000e+00
      456000   4.559990e-06   4.499247e+00   9.661842e+00   2.406299e+01   9.647439e+05  -1.203548e+05   1.175076e+06  -2.628619e+00  -2.107057e+01   8.489437e-21   1.525130e+06   2.526911e-39   0.000000e+00   0.000000e+00
      464000   4.639990e-06   4.576426e+00   9.652213e+00   2.415700e+01   9.647439e+05  -1.203548e+05   1.175076e+06  -4.487853e+00  -3.597388e+01  -6.460172e-21   1.525130e+06   7.363882e-39   0.000000e+00   0.000000e+00
      472000   4.719990e-06   4.653606e+00   9.642585e+00   2.425100e+01   9.647439e+05  -1.203548e+05   1.175076e+06  -4.926154e+00  -3.948722e+01   7.125283e-21   1.525130e+06   8.872263e-39   0.000000e+00   0.000000e+00
      480000   4.799990e-06   4.730785e+00   9.632956e+00   2.434501e+01   9.647439e+05  -1.203548e+05   1.175076e+06  -6.272164e+00  -5.027662e+01   9.423734e-21   1.525130e+06   1.438136e-38   0.000000e+00   0.000000e+00
      488000   4.879990e-06   4.807965e+00   9.623328e+00   2.443902e+01   9.647439e+05  -1.203548e+05   1.175076e+06  -6.022921e+00  -4.827873e+01   1.575226e-20   1.525130e+06   1.326239e-38   0.000000e+00   0.000000e+00
      496000   4.959990e-06   4.885144e+00   9.613700e+00   2.453302e+01   9.647439e+05  -1.203548e+05   1.175076e+06  -6.011960e+00  -4.819086e+01   9.541362e-21   1.525130e+06   1.321449e-38   0.000000e+00   0.000000e+00
      504000   5.039990e-06   4.962324e+00   9.604071e+00   2.462703e+01   9.647439e+05  -1.203548e+05   1.175076e+06  -5.967339e+00  -4.783319e+01   2.050282e-20   1.525130e+06   1.301982e-38   0.000000e+00   0.000000e+00
      512000   5.119990e-06   5.039503e+00   9.594443e+00   2.472103e+01   9.647439e+05  -1.203548e+05   1.175076e+06  -5.326313e+00  -4.269483e+01   6.404370e-21   1.525130e+06   1.037110e-38   0.000000e+00   0.000000e+00
      520000   5.199990e-06   5.116683e+00   9.584814e+00   2.481504e+01   9.647439e+05  -1.203548e+05   1.175076e+06  -6.422482e+00  -5.148154e+01  -1.627170e-20   1.525130e+06   1.507940e-38   0.000000e+00   0.000000e+00
      528000   5.279990e-06   5.193862e+00   9.575186e+00   2.490905e+01   9.647439e+05  -1.203548e+05   1.175076e+06  -4.397840e+00  -3.525235e+01  -2.011942e-23   1.525130e+06   7.071946e-39   0.000000e+00   0.000000e+00
      536000   5.359990e-06   5.271042e+00   9.565558e+00   2.500305e+01   9.647439e+05  -1.203548e+05   1.175076e+06  -4.180713e+00  -3.351189e+01   6.094457e-21   1.525130e+06   6.391537e-39   0.000000e+00   0.000000e+00
      544000   5.439990e-06   5.348221e+00   9.555929e+00   2.509706e+01   9.647439e+05  -1.203548e+05   1.175076e+06  -7.858040e+00  -6.298873e+01   1.176621e-20   1.525130e+06   2.257454e-38   0.000000e+00   0.000000e+00
      552000   5.519990e-06   5.425401e+00   9.546301e+00   2.519106e+01   9.647439e+05  -1.203548e+05   1.175076e+06  -5.816345e+00  -4.662285e+01   3.836733e-21   1.525130e+06   1.236980e-38   0.000000e+00   0.000000e+00
      560000   5.599990e-06   5.502580e+00   9.536673e+00   2.528507e+01   9.647439e+05  -1.203548e+05   1.175076e+06  -4.580115e+00  -3.671343e+01  -2.235782e-21   1.525130e+06   7.670366e-39   0.000000e+00   0.000000e+00
      568000   5.679990e-06   5.579760e+00   9.527044e+00   2.537908e+01   9.647439e+05  -1.203548e+05   1.175076e+06  -8.026381e+00  -6.433813e+01  -1.461888e-20   1.525130e+06   2.355174e-38   0.000000e+00   0.000000e+00
      576000   5.759990e-06   5.656939e+00   9.517416e+00   2.547308e+01   9.647439e+05  -1.203548e+05   1.175076e+06  -5.739742e+00  -4.600881e+01  -1.198198e-20   1.525130e+06   1.204590e-38   0.000000e+00   0.000000e+00
      584000   5.839990e-06   5.734119e+00   9.507787e+00   2.556709e+01   9.647439e+05  -1.203548e+05   1.175076e+06  -6.949102e+00  -5.570284e+01   3.213540e-21   1.525130e+06   1.765590e-38   0.000000e+00   0.000000e+00
      592000   5.919990e-06   5.811298e+00   9.498159e+00   2.566109e+01   9.647439e+05  -1.203548e+05   1.175076e+06  -4.776439e+00  -3.828714e+01  -9.007479e-21   1.525130e+06   8.342800e-39   0.000000e+00   0.000000e+00
      600000   5.999990e-06   5.888478e+00   9.488531e+00   2.575510e+01   9.647439e+05  -1.203548e+05   1.175076e+06  -1.304337e+01  -1.045534e+02  -1.384567e-20   1.525130e+06   6.219422e-38   0.000000e+00   0.000000e+00
      608000   6.079990e-06   5.965657e+00   9.478902e+00   2.584911e+01   9.647439e+05  -1.203548e+05   1.175076e+06  -8.695392e+00  -6.970080e+01  -1.999109e-20   1.525130e+06   2.764205e-38   0.000000e+00   0.000000e+00
      616000   6.159990e-06   6.042837e+00   9.469274e+00   2.594311e+01   9.647439e+05  -1.203548e+05   1.175076e+06  -8.851727e+00  -7.095396e+01  -2.984622e-20   1.525130e+06   2.864492e-38   0.000000e+00   0.000000e+00
      624000   6.239990e-06   6.120016e+00   9.459645e+00   2.603712e+01   9.647439e+05  -1.203548e+05   1.175076e+06  -6.655056e+00  -5.334581e+01   2.682321e-20   1.525130e+06   1.619215e-38   0.000000e+00   0.000000e+00
      632000   6.319990e-06   6.197196e+00   9.450017e+00   2.613113e+01   9.647439e+05  -1.203548e+05   1.175076e+06  -5.903802e+00  -4.732389e+01  -1.311172e-20   1.525130e+06   1.274376e-38   0.000000e+00   0.000000e+00
      640000   6.399990e-06   6.274375e+00   9.440389e+00   2.622513e+01   9.647439e+05  -1.203548e+05   1.175076e+06  -6.606111e+00  -5.295348e+01   5.378521e-21   1.525130e+06   1.595594e-38   0.000000e+00   0.000000e+00
      648000   6.479990e-06   6.351555e+00   9.430760e+00   2.631914e+01   9.647439e+05  -1.203548e+05   1.175076e+06  -7.991429e+00  -6.405796e+01  -7.900456e-21   1.525130e+06   2.334850e-38   0.000000e+00   0.000000e+00
      656000   6.559990e-06   6.428734e+00   9.421132e+00   2.641314e+01   9.647439e+05  -1.203548e+05   1.175076e+06  -8.006315e+00  -6.417728e+01   5.845529e-21   1.525130e+06   2.343845e-38   0.000000e+00   0.000000e+00
      664000   6.639990e-06   6.505914e+00   9.411504e+00   2.650715e+01   9.647439e+05  -1.203548e+05   1.175076e+06  -7.451173e+00  -5.972736e+01   3.019223e-20   1.525130e+06   2.030061e-38   0.000000e+00   0.000000e+00
      672000   6.719990e-06   6.583093e+00   9.401875e+00   2.660116e+01   9.647439e+05  -1.203548e+05   1.175076e+06  -6.644823e+00  -5.326379e+01   2.435736e-20   1.525130e+06   1.614145e-38   0.000000e+00   0.000000e+00
      680000   6.799990e-06   6.660273e+00   9.392247e+00   2.669516e+01   9.647439e+05  -1.203548e+05   1.175076e+06  -7.779817e+00  -6.236171e+01  -1.365458e-20   1.525130e+06   2.212794e-38   0.000000e+00   0.000000e+00
      688000   6.879990e-06   6.737452e+00   9.382618e+00   2.678917e+01   9.647439e+05  -1.203548e+05   1.175076e+06  -4.822120e+00  -3.865330e+01   1.845498e-20   1.525130e+06   8.503181e-39   0.000000e+00   0.000000e+00
      696000   6.959990e-06   6.814632e+00   9.372990e+00   2.688317e+01   9.647439e+05  -1.203548e+05   1.175076e+06  -6.710295e+00  -5.378860e+01   5.881140e-21   1.525130e+06   1.646358e-38   0.000000e+00   0.000000e+00
      704000   7.039990e-06   6.891811e+00   9.363362e+00   2.697718e+01   9.647439e+05  -1.203548e+05   1.175076e+06  -4.788880e+00  -3.838686e+01   5.369058e-21   1.525130e+06   8.384957e-39   0.000000e+00   0.000000e+00
      712000   7.119990e-06   6.968991e+00   9.353733e+00   2.707119e+01   9.647439e+05  -1.203548e+05   1.175076e+06  -3.861224e+00  -3.095093e+01   1.517252e-21   1.525130e+06   5.452099e-39   0.000000e+00   0.000000e+00
      720000   7.199990e-06   7.046170e+00   9.344105e+00   2.716519e+01   9.647439e+05  -1.203548e+05   1.175076e+06  -8.067316e+00  -6.466625e+01  -6.834509e-21   1.525130e+06   2.379541e-38   0.000000e+00   0.000000e+00
      728000   7.279990e-06   7.123350e+00   9.334476e+00   2.725920e+01   9.647439e+05  -1.203548e+05   1.175076e+06  -9.616486e+00  -7.708414e+01   2.839483e-21   1.525130e+06   3.380759e-38   0.000000e+00   0.000000e+00
      736000   7.359990e-06   7.200529e+00   9.324848e+00   2.735320e+01   9.647439e+05  -1.203548e+05   1.175076e+06  -8.957647e+00  -7.180300e+01  -1.917372e-20   1.525130e+06   2.933502e-38   0.000000e+00   0.000000e+00
      744000   7.439990e-06   7.277709e+00   9.315220e+00   2.744721e+01   9.647439e+05  -1.203548e+05   1.175076e+06  -7.686615e+00  -6.161461e+01  -9.038325e-21   1.525130e+06   2.160310e-38   0.000000e+00   0.000000e+00
      752000   7.519990e-06   7.354888e+00   9.305591e+00   2.754122e+01   9.647439e+05  -1.203548e+05   1.175076e+06  -8.901534e+00  -7.135320e+01  -1.149506e-20   1.525130e+06   2.897119e-38   0.000000e+00   0.000000e+00
      760000   7.599990e-06   7.432068e+00   9.295963e+00   2.763522e+01   9.647439e+05  -1.203548e+05   1.175076e+06  -6.732784e+00  -5.396887e+01  -1.032691e-20   1.525130e+06   1.657500e-38   0.000000e+00   0.000000e+00
      768000   7.679990e-06   7.509247e+00   9.286335e+00   2.772923e+01   9.647439e+05  -1.203548e+05   1.175076e+06  -8.691345e+00  -6.966837e+01   3.946088e-21   1.525130e+06   2.761655e-38   0.000000e+00   0.000000e+00
      776000   7.759990e-06   7.586427e+00   9.276706e+00   2.782323e+01   9.647439e+05  -1.203548e+05   1.175076e+06  -1.308897e+01  -1.049190e+02   2.228491e-20   1.525130e+06   6.262986e-38   0.000000e+00   0.000000e+00
      784000   7.839990e-06   7.663606e+00   9.267078e+00   2.791724e+01   9.647439e+05  -1.203548e+05   1.175076e+06  -6.002425e+00  -4.811443e+01   7.214450e-21   1.525130e+06   1.317675e-38   0.000000e+00   0.000000e+00
      792000   7.919990e-06   7.740786e+00   9.257449e+00   2.801125e+01   9.647439e+05  -1.203548e+05   1.175076e+06  -7.775756e+00  -6.232916e+01  -2.130421e-20   1.525130e+06   2.210872e-38   0.000000e+00   0.000000e+00
      800000   7.999990e-06   7.817965e+00   9.247821e+00   2.810525e+01   9.647439e+05  -1.203548e+05   1.175076e+06  -9.791031e+00  -7.848327e+01  -2.711259e-20   1.525130e+06   3.504614e-38   0.000000e+00   0.000000e+00
      808000   8.079990e-06   7.895145e+00   9.238193e+00   2.819926e+01   9.647439e+05  -1.203548e+05   1.175076e+06  -1.304885e+01  -1.045974e+02  -3.973767e-20   1.525130e+06   6.224965e-38   0.000000e+00   0.000000e+00
      816000   8.159990e-06   7.972325e+00   9.228564e+00   2.829327e+01   9.647439e+05  -1.203548e+05   1.175076e+06  -8.734112e+00  -7.001118e+01   2.284725e-20   1.525130e+06   2.789189e-38   0.000000e+00   0.000000e+00
      824000   8.239990e-06   8.049504e+00   9.218936e+00   2.838727e+01   9.647439e+05  -1.203548e+05   1.175076e+06  -8.950941e+00  -7.174924e+01  -1.675792e-20   1.525130e+06   2.929082e-38   0.000000e+00   0.000000e+00
      832000   8.319990e-06   8.126684e+00   9.209308e+00   2.848128e+01   9.647439e+05  -1.203548e+05   1.175076e+06  -8.006694e+00  -6.418031e+01  -8.933315e-21   1.525130e+06   2.344236e-38   0.000000e+00   0.000000e+00
      840000   8.399990e-06   8.203863e+00   9.199679e+00   2.857528e+01   9.647439e+05  -1.203548e+05   1.175076e+06  -1.314541e+01  -1.053714e+02   5.458852e-21   1.525130e+06   6.317271e-38   0.000000e+00   0.000000e+00
      848000   8.479990e-06   8.281043e+00   9.190051e+00   2.866929e+01   9.647439e+05  -1.203548e+05   1.175076e+06  -4.260157e+00  -3.414870e+01   1.053818e-21   1.525130e+06   6.637421e-39   0.000000e+00   0.000000e+00
      856000   8.559990e-06   8.358222e+00   9.180422e+00   2.876330e+01   9.647439e+05  -1.203548e+05   1.175076e+06  -8.984816e+00  -7.202078e+01   3.741255e-21   1.525130e+06   2.951501e-38   0.000000e+00   0.000000e+00
      864000   8.639990e-06   8.435402e+00   9.170794e+00   2.885730e+01   9.647439e+05  -1.203548e+05   1.175076e+06  -9.986438e+00  -8.004961e+01   1.067208e-20   1.525130e+06   3.646050e-38   0.000000e+00   0.000000e+00
      872000   8.719990e-06   8.512581e+00   9.161166e+00   2.895131e+01   9.647439e+05  -1.203548e+05   1.175076e+06  -1.105280e+01  -8.859739e+01  -1.126738e-20   1.525130e+06   4.466534e-38   0.000000e+00   0.000000e+00
      880000   8.799990e-06   8.589761e+00   9.151537e+00   2.904531e+01   9.647439e+05  -1.203548e+05   1.175076e+06  -1.552088e+01  -1.244128e+02   9.788530e-21   1.525130e+06   8.806887e-38   0.000000e+00   0.000000e+00
      888000   8.879990e-06   8.666940e+00   9.141909e+00   2.913932e+01   9.647439e+05  -1.203548e+05   1.175076e+06  -9.262877e+00  -7.424967e+01  -1.997303e-21   1.525130e+06   3.136949e-38   0.000000e+00   0.000000e+00
      896000   8.959990e-06   8.744120e+00   9.132280e+00   2.923333e+01   9.647439e+05  -1.203548e+05   1.175076e+06  -8.006304e+00  -6.417719e+01   3.076143e-21   1.525130e+06   2.343743e-38   0.000000e+00   0.000000e+00
      904000   9.039990e-06   8.821299e+00   9.122652e+00   2.932733e+01   9.647439e+05  -1.203548e+05   1.175076e+06  -9.279410e+00  -7.438219e+01   2.166298e-20   1.525130e+06   3.148213e-38   0.000000e+00   0.000000e+00
      912000   9.119990e-06   8.898479e+00   9.113024e+00   2.942134e+01   9.647439e+05  -1.203548e+05   1.175076e+06  -1.082820e+01  -8.679705e+01   1.262364e-21   1.525130e+06   4.286406e-38   0.000000e+00   0.000000e+00
      920000   9.199990e-06   8.975658e+00   9.103395e+00   2.951534e+01   9.647439e+05  -1.203548e+05   1.175076e+06  -1.061173e+01  -8.506188e+01  -1.310120e-20   1.525130e+06   4.117262e-38   0.000000e+00   0.000000e+00
      928000   9.279990e-06   9.052838e+00   9.093767e+00   2.960935e+01   9.647439e+05  -1.203548e+05   1.175076e+06  -1.317107e+01  -1.052999e+02   2.838991e-02   1.525130e+06   6.309160e-38   0.000000e+00   0.000000e+00
      936000   9.359990e-06   9.130017e+00   9.084139e+00   2.970336e+01   9.647439e+05  -1.203548e+05   1.175076e+06  -1.104946e+01  -4.800686e+01   4.154657e+00   1.525130e+06   1.369521e-38   0.000000e+00   0.000000e+00
      944000   9.439990e-06   9.207197e+00   9.074510e+00   2.979736e+01   9.647439e+05  -1.203548e+05   1.175076e+06  -1.788533e+01  -6.605624e+01   7.918279e+00   1.525130e+06   2.659140e-38   0.000000e+00   0.000000e+00
      952000   9.519990e-06   9.284376e+00   9.064882e+00   2.989137e+01   9.647439e+05  -1.203548e+05   1.175076e+06   1.047118e+01  -1.207839e+02  -2.096795e+01   1.525130e+06   8.481172e-38   0.000000e+00   0.000000e+00
      960000   9.599990e-06   9.361556e+00   9.055253e+00   2.998537e+01   9.647439e+05  -1.203548e+05   1.175076e+06  -1.029396e+01  -1.094005e+02  -2.753728e+00   1.525130e+06   6.769103e-38   0.000000e+00   0.000000e+00
      968000   9.679990e-06   9.438735e+00   9.045625e+00   3.007938e+01   9.647439e+05  -1.203548e+05   1.175076e+06  -1.804104e+01  -6.074842e+01   8.589755e+00   1.525130e+06   2.291583e-38   0.000000e+00   0.000000e+00
      976000   9.759990e-06   9.515915e+00   9.035997e+00   3.017339e+01   9.647439e+05  -1.203548e+05   1.175076e+06  -1.291032e+01  -9.017417e+01   1.363535e+00   1.525130e+06   4.650668e-38   0.000000e+00   0.000000e+00
      984000   9.839990e-06   9.593094e+00   9.026368e+00   3.026739e+01   9.647439e+05  -1.203548e+05   1.175076e+06  -9.288366e+00  -7.445398e+01  -2.428841e-21   1.525130e+06   3.154382e-38   0.000000e+00   0.000000e+00
      992000   9.919990e-06   9.670274e+00   9.016740e+00   3.036140e+01   9.647439e+05  -1.203548e+05   1.175076e+06  -1.140160e+01  -9.139334e+01  -1.154918e-20   1.525130e+06   4.752643e-38   0.000000e+00   0.000000e+00
     1000000   9.999990e-06   9.747453e+00   9.007111e+00   3.045541e+01   9.647439e+05  -1.203548e+05   1.175076e+06  -1.153594e+01  -9.247019e+01  -2.350102e-20   1.525130e+06   4.865846e-38   0.000000e+00   0.000000e+00
     1008000   1.007999e-05   9.824633e+00   8.997483e+00   3.054941e+01   9.647439e+05  -1.203548e+05   1.175076e+06  -1.413507e+01  -1.133044e+02  -3.452865e-20   1.525130e+06   7.305061e-38   0.000000e+00   0.000000e+00
     1016000   1.015999e-05   9.901812e+00   8.987855e+00   3.064342e+01   9.647439e+05  -1.203548e+05   1.175076e+06  -9.978244e+00  -7.998393e+01   2.972284e-20   1.525130e+06   3.640208e-38   0.000000e+00   0.000000e+00
     1024000   1.023999e-05   9.978992e+00   8.978226e+00   3.073742e+01   9.647439e+05  -1.203548e+05   1.175076e+06  -1.155227e+01  -9.260109e+01   1.663678e-20   1.525130e+06   4.879194e-38   0.000000e+00   0.000000e+00
     1032000   1.031999e-05   1.005617e+01   8.968598e+00   3.083143e+01   9.647439e+05  -1.203548e+05   1.175076e+06  -1.081132e+01  -8.666171e+01  -2.688631e-20   1.525130e+06   4.273584e-38   0.000000e+00   0.000000e+00
     1040000   1.039999e-05   1.013335e+01   8.958970e+00   3.092544e+01   9.647439e+05  -1.203548e+05   1.175076e+06  -1.295578e+01  -1.038513e+02   1.934181e-20   1.525130e+06   6.136528e-38   0.000000e+00   0.000000e+00
     1048000   1.047999e-05   1.021053e+01   8.949341e+00   3.101944e+01   9.647439e+05  -1.203548e+05   1.175076e+06  -1.277301e+01  -1.023863e+02   1.270723e-20   1.525130e+06   5.964671e-38   0.000000e+00   0.000000e+00
     1056000   1.055999e-05   1.028771e+01   8.939713e+00   3.111345e+01   9.647439e+05  -1.203548e+05   1.175076e+06  -1.163737e+01  -9.328318e+01   1.690817e-21   1.525130e+06   4.951691e-38   0.000000e+00   0.000000e+00
     1064000   1.063999e-05   1.036489e+01   8.930084e+00   3.120745e+01   9.647439e+05  -1.203548e+05   1.175076e+06  -1.146555e+01  -9.190596e+01  -1.664043e-20   1.525130e+06   4.806516e-38   0.000000e+00   0.000000e+00
     1072000   1.071999e-05   1.044207e+01   8.920456e+00   3.130146e+01   9.647439e+05  -1.203548e+05   1.175076e+06  -1.270858e+01  -1.018698e+02   1.485623e-20   1.525130e+06   5.904934e-38   0.000000e+00   0.000000e+00
     1080000   1.079999e-05   1.051925e+01   8.910828e+00   3.139547e+01   9.647439e+05  -1.203548e+05   1.175076e+06  -1.273223e+01  -1.020594e+02   5.623256e-20   1.525130e+06   5.926946e-38   0.000000e+00   0.000000e+00
     1088000   1.087999e-05   1.059643e+01   8.901199e+00   3.148947e+01   9.647439e+05  -1.203548e+05   1.175076e+06  -1.346570e+01  -1.079388e+02  -2.963850e-21   1.525130e+06   6.629394e-38   0.000000e+00   0.000000e+00
     1096000   1.095999e-05   1.067361e+01   8.891571e+00   3.158348e+01   9.647439e+05  -1.203548e+05   1.175076e+06  -1.278993e+01  -1.025220e+02   3.034365e-20   1.525130e+06   5.980760e-38   0.000000e+00   0.000000e+00
     1104000   1.103999e-05   1.075079e+01   8.881942e+00   3.167748e+01   9.647439e+05  -1.203548e+05   1.175076e+06  -1.715109e+01  -1.374803e+02   2.285832e-20   1.525130e+06   1.075406e-37   0.000000e+00   0.000000e+00
     1112000   1.111999e-05   1.082797e+01   8.872314e+00   3.177149e+01   9.647439e+05  -1.203548e+05   1.175076e+06  -1.375690e+01  -1.102730e+02  -3.701581e-20   1.525130e+06   6.919309e-38   0.000000e+00   0.000000e+00
     1120000   1.119999e-05   1.090515e+01   8.862686e+00   3.186550e+01   9.647439e+05  -1.203548e+05   1.175076e+06  -1.344373e+01  -1.077627e+02   6.845274e-20   1.525130e+06   6.607475e-38   0.000000e+00   0.000000e+00
     1128000   1.127999e-05   1.098233e+01   8.853057e+00   3.195950e+01   9.647439e+05  -1.203548e+05   1.175076e+06  -6.035874e+00  -4.838255e+01   1.664043e-20   1.525130e+06   1.332347e-38   0.000000e+00   0.000000e+00
     1136000   1.135999e-05   1.105950e+01   8.843429e+00   3.205351e+01   9.647439e+05  -1.203548e+05   1.175076e+06  -9.855648e+00  -7.900122e+01  -3.445771e-20   1.525130e+06   3.551850e-38   0.000000e+00   0.000000e+00
     1144000   1.143999e-05   1.113668e+01   8.833801e+00   3.214752e+01   9.647439e+05  -1.203548e+05   1.175076e+06  -1.219284e+01  -9.773576e+01   2.858301e-20   1.525130e+06   5.435595e-38   0.000000e+00   0.000000e+00
     1152000   1.151999e-05   1.121386e+01   8.824172e+00   3.224152e+01   9.647439e+05  -1.203548e+05   1.175076e+06  -1.321542e+01  -1.059326e+02  -1.732742e-20   1.525130e+06   6.385596e-38   0.000000e+00   0.000000e+00
     1160000   1.159999e-05   1.129104e+01   8.814544e+00   3.233553e+01   9.647439e+05  -1.203548e+05   1.175076e+06  -1.217538e+01  -9.759579e+01  -3.820275e-20   1.525130e+06   5.419681e-38   0.000000e+00   0.000000e+00
     1168000   1.167999e-05   1.136822e+01   8.804915e+00   3.242953e+01   9.647439e+05  -1.203548e+05   1.175076e+06  -1.292375e+01  -1.035946e+02  -6.018231e-20   1.525130e+06   6.106735e-38   0.000000e+00   0.000000e+00
     1176000   1.175999e-05   1.144540e+01   8.795287e+00   3.252354e+01   9.647439e+05  -1.203548e+05   1.175076e+06  -1.605238e+01  -1.286732e+02  -1.490531e-20   1.525130e+06   9.420495e-38   0.000000e+00   0.000000e+00
     1184000   1.183999e-05   1.152258e+01   8.785659e+00   3.261755e+01   9.647439e+05  -1.203548e+05   1.175076e+06  -1.186220e+01  -9.508543e+01   5.165360e-20   1.525130e+06   5.144416e-38   0.000000e+00   0.000000e+00
     1192000   1.191999e-05   1.159976e+01   8.776030e+00   3.271155e+01   9.647439e+05  -1.203548e+05   1.175076e+06  -1.154314e+01  -9.252786e+01  -4.624214e-20   1.525130e+06   4.871951e-38   0.000000e+00   0.000000e+00
     1200000   1.199999e-05   1.167694e+01   8.766402e+00   3.280556e+01   9.647439e+05  -1.203548e+05   1.175076e+06  -1.194851e+01  -9.577724e+01  -2.042730e-21   1.525130e+06   5.219615e-38   0.000000e+00   0.000000e+00
     1208000   1.207999e-05   1.175412e+01   8.756773e+00   3.289956e+01   9.647439e+05  -1.203548e+05   1.175076e+06  -1.513859e+01  -1.213484e+02  -3.635238e-20   1.525130e+06   8.378598e-38   0.000000e+00   0.000000e+00
     1216000   1.215999e-05   1.183130e+01   8.747145e+00   3.299357e+01   9.647439e+05  -1.203548e+05   1.175076e+06  -1.597193e+01  -1.280283e+02   5.319357e-20   1.525130e+06   9.326595e-38   0.000000e+00   0.000000e+00
     1224000   1.223999e-05   1.190848e+01   8.737517e+00   3.308758e+01   9.647439e+05  -1.203548e+05   1.175076e+06  -9.810852e+00  -7.864215e+01   6.677479e-21   1.525130e+06   3.519431e-38   0.000000e+00   0.000000e+00
     1232000   1.231999e-05   1.198566e+01   8.727888e+00   3.318158e+01   9.647439e+05  -1.203548e+05   1.175076e+06  -1.464193e+01  -1.173672e+02   1.142551e-20   1.525130e+06   7.837787e-38   0.000000e+00   0.000000e+00
     1240000   1.239999e-05   1.206284e+01   8.718260e+00   3.327559e+01   9.647439e+05  -1.203548e+05   1.175076e+06  -1.449539e+01  -1.161926e+02   4.805044e-20   1.525130e+06   7.681939e-38   0.000000e+00   0.000000e+00
     1248000   1.247999e-05   1.214002e+01   8.708632e+00   3.336959e+01   9.647439e+05  -1.203548e+05   1.175076e+06  -1.378651e+01  -1.105104e+02   2.683694e-20   1.525130e+06   6.949492e-38   0.000000e+00   0.000000e+00
     1256000   1.255999e-05   1.221720e+01   8.699003e+00   3.346360e+01   9.647439e+05  -1.203548e+05   1.175076e+06  -1.172393e+01  -9.397708e+01  -9.523001e-21   1.525130e+06   5.025880e-38   0.000000e+00   0.000000e+00
     1264000   1.263999e-05   1.229438e+01   8.689375e+00   3.355761e+01   9.647439e+05  -1.203548e+05   1.175076e+06  -1.211516e+01  -9.711310e+01  -1.934126e-20   1.525130e+06   5.366240e-38   0.000000e+00   0.000000e+00
     1272000   1.271999e-05   1.237156e+01   8.679746e+00   3.365161e+01   9.647439e+05  -1.203548e+05   1.175076e+06  -1.307315e+01  -1.047922e+02  -1.517393e-20   1.525130e+06   6.248309e-38   0.000000e+00   0.000000e+00
     1280000   1.279999e-05   1.244874e+01   8.670118e+00   3.374562e+01   9.647439e+05  -1.203548e+05   1.175076e+06  -1.091461e+01  -8.748968e+01   8.472609e-21   1.525130e+06   4.355794e-38   0.000000e+00   0.000000e+00
     1288000   1.287999e-05   1.252592e+01   8.660490e+00   3.383962e+01   9.647439e+05  -1.203548e+05   1.175076e+06  -1.003939e+01  -8.047403e+01   2.725867e-20   1.525130e+06   3.685971e-38   0.000000e+00   0.000000e+00
     1296000   1.295999e-05   1.260310e+01   8.650861e+00   3.393363e+01   9.647439e+05  -1.203548e+05   1.175076e+06  -1.161583e+01  -9.311056e+01  -3.010111e-20   1.525130e+06   4.933257e-38   0.000000e+00   0.000000e+00
     1304000   1.303999e-05   1.268027e+01   8.641233e+00   3.402764e+01   9.647439e+05  -1.203548e+05   1.175076e+06  -1.261769e+01  -1.011413e+02  -8.781901e-21   1.525130e+06   5.820428e-38   0.000000e+00   0.000000e+00
     1312000   1.311999e-05   1.275745e+01   8.631604e+00   3.412164e+01   9.647439e+05  -1.203548e+05   1.175076e+06  -1.442123e+01  -1.155982e+02   2.724857e-20   1.525130e+06   7.603368e-38   0.000000e+00   0.000000e+00
     1320000   1.319999e-05   1.283463e+01   8.621976e+00   3.421565e+01   9.647439e+05  -1.203548e+05   1.175076e+06  -1.245109e+01  -9.980585e+01   5.834029e-21   1.525130e+06   5.667969e-38   0.000000e+00   0.000000e+00
     1328000   1.327999e-05   1.291181e+01   8.612348e+00   3.430966e+01   9.647439e+05  -1.203548e+05   1.175076e+06  -1.305672e+01  -1.046605e+02  -4.913813e-20   1.525130e+06   6.232759e-38   0.000000e+00   0.000000e+00
     1336000   1.335999e-05   1.298899e+01   8.602719e+00   3.440366e+01   9.647439e+05  -1.203548e+05   1.175076e+06  -1.361940e+01  -1.091709e+02   1.358517e-20   1.525130e+06   6.781316e-38   0.000000e+00   0.000000e+00
     1344000   1.343999e-05   1.306617e+01   8.593091e+00   3.449767e+01   9.647439e+05  -1.203548e+05   1.175076e+06  -1.417500e+01  -1.136244e+02  -6.313527e-21   1.525130e+06   7.346208e-38   0.000000e+00   0.000000e+00
     1352000   1.351999e-05   1.314335e+01   8.583463e+00   3.459167e+01   9.647439e+05  -1.203548e+05   1.175076e+06  -1.554639e+01  -1.246172e+02  -7.298299e-21   1.525130e+06   8.835441e-38   0.000000e+00   0.000000e+00
     1360000   1.359999e-05   1.322053e+01   8.573834e+00   3.468568e+01   9.647439e+05  -1.203548e+05   1.175076e+06  -1.405072e+01  -1.126283e+02   7.839101e-20   1.525130e+06   7.217670e-38   0.000000e+00   0.000000e+00
     1368000   1.367999e-05   1.329771e+01   8.564206e+00   3.477969e+01   9.647439e+05  -1.203548e+05   1.175076e+06  -1.475427e+01  -1.182678e+02   1.870053e-20   1.525130e+06   7.959093e-38   0.000000e+00   0.000000e+00
     1376000   1.375999e-05   1.337489e+01   8.554577e+00   3.487369e+01   9.647439e+05  -1.203548e+05   1.175076e+06  -1.506639e+01  -1.207696e+02  -5.746494e-20   1.525130e+06   8.299160e-38   0.000000e+00   0.000000e+00
     1384000   1.383999e-05   1.345207e+01   8.544949e+00   3.496770e+01   9.647439e+05  -1.203548e+05   1.175076e+06  -1.240434e+01  -9.943110e+01  -2.643430e-20   1.525130e+06   5.625785e-38   0.000000e+00   0.000000e+00
     1392000   1.391999e-05   1.352925e+01   8.535321e+00   3.506170e+01   9.647439e+05  -1.203548e+05   1.175076e+06  -1.385335e+01  -1.110461e+02  -8.563189e-21   1.525130e+06   7.016385e-38   0.000000e+00   0.000000e+00
     1400000   1.399999e-05   1.360643e+01   8.525692e+00   3.515571e+01   9.647439e+05  -1.203548e+05   1.175076e+06  -1.168518e+01  -9.366643e+01   2.400629e-20   1.525130e+06   4.992397e-38   0.000000e+00   0.000000e+00
     1408000   1.407999e-05   1.368361e+01   8.516064e+00   3.524972e+01   9.647439e+05  -1.203548e+05   1.175076e+06  -1.178675e+01  -9.448059e+01  -2.986641e-20   1.525130e+06   5.079253e-38   0.000000e+00   0.000000e+00
     1416000   1.415999e-05   1.376079e+01   8.506435e+00   3.534372e+01   9.647439e+05  -1.203548e+05   1.175076e+06  -1.237452e+01  -9.919204e+01   6.518999e-20   1.525130e+06   5.598322e-38   0.000000e+00   0.000000e+00
     1424000   1.423999e-05   1.383797e+01   8.496807e+00   3.543773e+01   9.647439e+05  -1.203548e+05   1.175076e+06  -1.102817e+01  -8.839999e+01   4.466347e-20   1.525130e+06   4.446632e-38   0.000000e+00   0.000000e+00
     1432000   1.431999e-05   1.391515e+01   8.487179e+00   3.553173e+01   9.647439e+05  -1.203548e+05   1.175076e+06  -9.756484e+00  -7.820634e+01  -1.155142e-20   1.525130e+06   3.480385e-38   0.000000e+00   0.000000e+00
     1440000   1.439999e-05   1.399233e+01   8.477550e+00   3.562574e+01   9.647439e+05  -1.203548e+05   1.175076e+06  -1.630699e+01  -1.307141e+02  -5.393356e-20   1.525130e+06   9.721814e-38   0.000000e+00   0.000000e+00
     1448000   1.447999e-05   1.406951e+01   8.467922e+00   3.571975e+01   9.647439e+05  -1.203548e+05   1.175076e+06  -1.409256e+01  -1.129636e+02   1.774375e-21   1.525130e+06   7.260618e-38   0.000000e+00   0.000000e+00
     1456000   1.455999e-05   1.414669e+01   8.458294e+00   3.581375e+01   9.647439e+05  -1.203548e+05   1.175076e+06  -1.422140e+01  -1.139963e+02   6.100640e-20   1.525130e+06   7.394684e-38   0.000000e+00   0.000000e+00
     1464000   1.463999e-05   1.422386e+01   8.448665e+00   3.590776e+01   9.647439e+05  -1.203548e+05   1.175076e+06  -1.223649e+01  -9.808566e+01  -2.557907e-20   1.525130e+06   5.474833e-38   0.000000e+00   0.000000e+00
     1472000   1.471999e-05   1.430104e+01   8.439037e+00   3.600176e+01   9.647439e+05  -1.203548e+05   1.175076e+06  -1.268365e+01  -1.016700e+02   7.473149e-20   1.525130e+06   5.881729e-38   0.000000e+00   0.000000e+00
     1480000   1.479999e-05   1.437822e+01   8.429408e+00   3.609577e+01   9.647439e+05  -1.203548e+05   1.175076e+06  -1.300273e+01  -1.042277e+02  -1.562818e-20   1.525130e+06   6.181391e-38   0.000000e+00   0.000000e+00
     1488000   1.487999e-05   1.445540e+01   8.419780e+00   3.618978e+01   9.647439e+05  -1.203548e+05   1.175076e+06  -1.403368e+01  -1.124916e+02   2.121349e-20   1.525130e+06   7.200137e-38   0.000000e+00   0.000000e+00
     1496000   1.495999e-05   1.453258e+01   8.410152e+00   3.628378e+01   9.647439e+05  -1.203548e+05   1.175076e+06  -1.184305e+01  -9.493187e+01   2.354083e-20   1.525130e+06   5.128404e-38   0.000000e+00   0.000000e+00
     1504000   1.503999e-05   1.460976e+01   8.400523e+00   3.637779e+01   9.647439e+05  -1.203548e+05   1.175076e+06  -1.136582e+01  -9.110652e+01  -4.648777e-20   1.525130e+06   4.722319e-38   0.000000e+00   0.000000e+00
     1512000   1.511999e-05   1.468694e+01   8.390895e+00   3.647180e+01   9.647439e+05  -1.203548e+05   1.175076e+06  -1.097734e+01  -8.799254e+01  -7.034998e-21   1.525130e+06   4.405719e-38   0.000000e+00   0.000000e+00
     1520000   1.519999e-05   1.476412e+01   8.381267e+00   3.656580e+01   9.647439e+05  -1.203548e+05   1.175076e+06  -1.595596e+01  -1.279003e+02  -1.610915e-21   1.525130e+06   9.307925e-38   0.000000e+00   0.000000e+00
     1528000   1.527999e-05   1.484130e+01   8.371638e+00   3.665981e+01   9.647439e+05  -1.203548e+05   1.175076e+06  -1.084435e+01  -8.692650e+01  -1.910940e-21   1.525130e+06   4.299601e-38   0.000000e+00   0.000000e+00
     1536000   1.535999e-05   1.491848e+01   8.362010e+00   3.675381e+01   9.647439e+05  -1.203548e+05   1.175076e+06  -1.263921e+01  -1.013138e+02  -9.631517e-21   1.525130e+06   5.839758e-38   0.000000e+00   0.000000e+00
     1544000   1.543999e-05   1.499566e+01   8.352381e+00   3.684782e+01   9.647439e+05  -1.203548e+05   1.175076e+06  -6.048909e+00  -4.848704e+01  -8.164312e-21   1.525130e+06   1.337986e-38   0.000000e+00   0.000000e+00
     1552000   1.551999e-05   1.507284e+01   8.342753e+00   3.694183e+01   9.647439e+05  -1.203548e+05   1.175076e+06  -8.503204e+00  -6.816026e+01  -2.022200e-20   1.525130e+06   2.643944e-38   0.000000e+00   0.000000e+00
     1560000   1.559999e-05   1.515002e+01   8.333125e+00   3.703583e+01   9.647439e+05  -1.203548e+05   1.175076e+06  -1.031178e+01  -8.265754e+01   3.479219e-21   1.525130e+06   3.887548e-38   0.000000e+00   0.000000e+00
     1568000   1.567999e-05   1.522720e+01   8.323496e+00   3.712984e+01   9.647439e+05  -1.203548e+05   1.175076e+06  -1.165757e+01  -9.344512e+01  -3.568222e-20   1.525130e+06   4.968727e-38   0.000000e+00   0.000000e+00
     1576000   1.575999e-05   1.530438e+01   8.313868e+00   3.722384e+01   9.647439e+05  -1.203548e+05   1.175076e+06  -1.126724e+01  -9.031632e+01  -2.973687e-20   1.525130e+06   4.641948e-38   0.000000e+00   0.000000e+00
     1584000   1.583999e-05   1.538156e+01   8.304239e+00   3.731785e+01   9.647439e+05  -1.203548e+05   1.175076e+06  -8.160340e+00  -6.541191e+01  -4.927987e-20   1.525130e+06   2.435011e-38   0.000000e+00   0.000000e+00
     1592000   1.591999e-05   1.545874e+01   8.294611e+00   3.741186e+01   9.647439e+05  -1.203548e+05   1.175076e+06  -1.485499e+00  -1.190751e+01  -5.836909e-22   1.525130e+06   8.070790e-40   0.000000e+00   0.000000e+00
     1600000   1.599999e-05   1.553592e+01   8.284983e+00   3.750586e+01   9.647439e+05  -1.203548e+05   1.175076e+06  -1.226257e+01  -9.829469e+01   7.356890e-21   1.525130e+06   5.497143e-38   0.000000e+00   0.000000e+00
     1608000   1.607999e-05   1.561310e+01   8.275354e+00   3.759987e+01   9.647439e+05  -1.203548e+05   1.175076e+06  -6.556689e+00  -5.255732e+01   1.336814e-20   1.525130e+06   1.572126e-38   0.000000e+00   0.000000e+00
     1616000   1.615999e-05   1.569028e+01   8.265726e+00   3.769387e+01   9.647439e+05  -1.203548e+05   1.175076e+06  -1.251604e+01  -1.003265e+02  -1.095305e-20   1.525130e+06   5.726980e-38   0.000000e+00   0.000000e+00
     1624000   1.623999e-05   1.576745e+01   8.256098e+00   3.778788e+01   9.647439e+05  -1.203548e+05   1.175076e+06  -1.118036e+01  -8.961990e+01  -2.358742e-21   1.525130e+06   4.569643e-38   0.000000e+00   0.000000e+00
     1632000   1.631999e-05   1.584463e+01   8.246469e+00   3.788189e+01   9.647439e+05  -1.203548e+05   1.175076e+06  -1.467736e+01  -1.176513e+02   6.684211e-20   1.525130e+06   7.875087e-38   0.000000e+00   0.000000e+00
     1640000   1.639999e-05   1.592181e+01   8.236841e+00   3.797589e+01   9.647439e+05  -1.203548e+05   1.175076e+06  -8.619206e+00  -6.909011e+01   4.661673e-21   1.525130e+06   2.716187e-38   0.000000e+00   0.000000e+00
     1648000   1.647999e-05   1.599899e+01   8.227212e+00   3.806990e+01   9.647439e+05  -1.203548e+05   1.175076e+06  -4.631948e+00  -3.712892e+01   4.377278e-21   1.525130e+06   7.846336e-39   0.000000e+00   0.000000e+00
     1656000   1.655999e-05   1.607617e+01   8.217584e+00   3.816390e+01   9.647439e+05  -1.203548e+05   1.175076e+06  -6.324399e+00  -5.069532e+01  -1.864797e-20   1.525130e+06   1.462312e-38   0.000000e+00   0.000000e+00
     1664000   1.663999e-05   1.615335e+01   8.207956e+00   3.825791e+01   9.647439e+05  -1.203548e+05   1.175076e+06  -6.572917e+00  -5.268740e+01  -2.818316e-20   1.525130e+06   1.579494e-38   0.000000e+00   0.000000e+00
     1672000   1.671999e-05   1.623053e+01   8.198327e+00   3.835192e+01   9.647439e+05  -1.203548e+05   1.175076e+06  -1.449330e+01  -1.161759e+02   6.346215e-20   1.525130e+06   7.679653e-38   0.000000e+00   0.000000e+00
     1680000   1.679999e-05   1.630771e+01   8.188699e+00   3.844592e+01   9.647439e+05  -1.203548e+05   1.175076e+06  -8.327599e+00  -6.675264e+01   2.380959e-20   1.525130e+06   2.535466e-38   0.000000e+00   0.000000e+00
     1688000   1.687999e-05   1.638489e+01   8.179070e+00   3.853993e+01   9.647439e+05  -1.203548e+05   1.175076e+06  -4.160219e+00  -3.334761e+01   2.008264e-20   1.525130e+06   6.328431e-39   0.000000e+00   0.000000e+00
     1696000   1.695999e-05   1.646207e+01   8.169442e+00   3.863394e+01   9.647439e+05  -1.203548e+05   1.175076e+06  -5.639156e+00  -4.520253e+01  -2.365369e-20   1.525130e+06   1.162653e-38   0.000000e+00   0.000000e+00
     1704000   1.703999e-05   1.653925e+01   8.159814e+00   3.872794e+01   9.647439e+05  -1.203548e+05   1.175076e+06  -5.202023e+00  -4.169854e+01  -1.623357e-20   1.525130e+06   9.896110e-39   0.000000e+00   0.000000e+00
     1712000   1.711999e-05   1.661643e+01   8.150185e+00   3.882195e+01   9.647439e+05  -1.203548e+05   1.175076e+06  -4.134674e+00  -3.314285e+01  -8.823466e-21   1.525130e+06   6.252995e-39   0.000000e+00   0.000000e+00
     1720000   1.719999e-05   1.669361e+01   8.140557e+00   3.891595e+01   9.647439e+05  -1.203548e+05   1.175076e+06  -2.568176e+00  -2.058607e+01   1.227387e-21   1.525130e+06   2.411144e-39   0.000000e+00   0.000000e+00
     1728000   1.727999e-05   1.677079e+01   8.130929e+00   3.900996e+01   9.647439e+05  -1.203548e+05   1.175076e+06  -5.024236e+00  -4.027344e+01   7.381570e-21   1.525130e+06   9.228881e-39   0.000000e+00   0.000000e+00
     1736000   1.735999e-05   1.684797e+01   8.121300e+00   3.910397e+01   9.647439e+05  -1.203548e+05   1.175076e+06  -3.205402e+00  -2.569397e+01   9.715352e-21   1.525130e+06   3.757856e-39   0.000000e+00   0.000000e+00
     1744000   1.743999e-05   1.692515e+01   8.111672e+00   3.919797e+01   9.647439e+05  -1.203548e+05   1.175076e+06  -1.583135e+00  -1.269015e+01  -6.214400e-22   1.525130e+06   9.158143e-40   0.000000e+00   0.000000e+00
     1752000   1.751999e-05   1.700233e+01   8.102043e+00   3.929198e+01   9.647439e+05  -1.203548e+05   1.175076e+06  -4.732856e+00  -3.793778e+01   6.950446e-22   1.525130e+06   8.194718e-39   0.000000e+00   0.000000e+00
     1760000   1.759999e-05   1.707951e+01   8.092415e+00   3.938598e+01   9.647439e+05  -1.203548e+05   1.175076e+06  -3.431967e+00  -2.751008e+01   1.003263e-20   1.525130e+06   4.306714e-39   0.000000e+00   0.000000e+00
     1768000   1.767999e-05   1.715669e+01   8.082787e+00   3.947999e+01   9.647439e+05  -1.203548e+05   1.175076e+06  -2.681235e+00  -2.149233e+01  -1.409509e-21   1.525130e+06   2.628597e-39   0.000000e+00   0.000000e+00
     1776000   1.775999e-05   1.723387e+01   8.073158e+00   3.957400e+01   9.647439e+05  -1.203548e+05   1.175076e+06  -3.866503e+00  -3.099324e+01   7.982330e-21   1.525130e+06   5.464041e-39   0.000000e+00   0.000000e+00
     1784000   1.783999e-05   1.731105e+01   8.063530e+00   3.966800e+01   9.647439e+05  -1.203548e+05   1.175076e+06  -4.075161e+00  -3.266580e+01  -1.866077e-22   1.525130e+06   6.073322e-39   0.000000e+00   0.000000e+00
     1792000   1.791999e-05   1.738822e+01   8.053901e+00   3.976201e+01   9.647439e+05  -1.203548e+05   1.175076e+06  -4.477911e+00  -3.589418e+01  -7.744971e-21   1.525130e+06   7.331769e-39   0.000000e+00   0.000000e+00
     1800000   1.799999e-05   1.746540e+01   8.044273e+00   3.985601e+01   9.647439e+05  -1.203548e+05   1.175076e+06  -4.398900e-01  -3.526085e+00   4.755259e-22   1.525130e+06   7.076248e-41   0.000000e+00   0.000000e+00
     1808000   1.807999e-05   1.754258e+01   8.034645e+00   3.995002e+01   9.647439e+05  -1.203548e+05   1.175076e+06  -1.682782e+00  -1.348890e+01   5.105271e-21   1.525130e+06   1.035893e-39   0.000000e+00   0.000000e+00
     1816000   1.815999e-05   1.761976e+01   8.025016e+00   4.004403e+01   9.647439e+05  -1.203548e+05   1.175076e+06  -9.800750e-01  -7.856117e+00   4.504878e-21   1.525130e+06   3.511651e-40   0.000000e+00   0.000000e+00
     1824000   1.823999e-05   1.769694e+01   8.015388e+00   4.013803e+01   9.647439e+05  -1.203548e+05   1.175076e+06  -1.929519e+00  -1.546670e+01  -1.793624e-21   1.525130e+06   1.361013e-39   0.000000e+00   0.000000e+00
     1832000   1.831999e-05   1.777412e+01   8.005760e+00   4.023204e+01   9.647439e+05  -1.203548e+05   1.175076e+06  -7.812815e-01  -6.262621e+00   1.544837e-22   1.525130e+06   2.231753e-40   0.000000e+00   0.000000e+00
     1840000   1.839999e-05   1.785130e+01   7.996131e+00   4.032605e+01   9.647439e+05  -1.203548e+05   1.175076e+06  -1.852920e+00  -1.485270e+01   4.070028e-21   1.525130e+06   1.255554e-39   0.000000e+00   0.000000e+00
     1848000   1.847999e-05   1.792848e+01   7.986503e+00   4.042005e+01   9.647439e+05  -1.203548e+05   1.175076e+06   1.077553e+00   8.637482e+00  -1.731339e-21   1.525130e+06   4.246065e-40   0.000000e+00   0.000000e+00
     1856000   1.855999e-05   1.800566e+01   7.976874e+00   4.051406e+01   9.647439e+05  -1.203548e+05   1.175076e+06   2.700565e+00   2.164727e+01  -5.281293e-21   1.525130e+06   2.664851e-39   0.000000e+00   0.000000e+00
     1864000   1.863999e-05   1.808284e+01   7.967246e+00   4.060806e+01   9.647439e+05  -1.203548e+05   1.175076e+06   1.738591e+00   1.393626e+01  -2.762411e-21   1.525130e+06   1.105444e-39   0.000000e+00   0.000000e+00
     1872000   1.871999e-05   1.816002e+01   7.957618e+00   4.070207e+01   9.647439e+05  -1.203548e+05   1.175076e+06   1.836173e+00   1.471846e+01  -2.335184e-21   1.525130e+06   1.232588e-39   0.000000e+00   0.000000e+00
     1880000   1.879999e-05   1.823720e+01   7.947989e+00   4.079608e+01   9.647439e+05  -1.203548e+05   1.175076e+06  -2.943080e-01  -2.359123e+00   4.572078e-22   1.525130e+06   3.160831e-41   0.000000e+00   0.000000e+00
     1888000   1.887999e-05   1.831438e+01   7.938361e+00   4.089008e+01   9.647439e+05  -1.203548e+05   1.175076e+06   1.180240e+00   9.460605e+00   1.250766e-22   1.525130e+06   5.091964e-40   0.000000e+00   0.000000e+00
     1896000   1.895999e-05   1.839156e+01   7.928732e+00   4.098409e+01   9.647439e+05  -1.203548e+05   1.175076e+06   4.753904e+00   3.810650e+01  -2.689794e-20   1.525130e+06   8.260889e-39   0.000000e+00   0.000000e+00
     1904000   1.903999e-05   1.846874e+01   7.919104e+00   4.107809e+01   9.647439e+05  -1.203548e+05   1.175076e+06   3.240446e+00   2.597487e+01   1.929092e-21   1.525130e+06   3.838849e-39   0.000000e+00   0.000000e+00
     1912000   1.911999e-05   1.854592e+01   7.909476e+00   4.117210e+01   9.647439e+05  -1.203548e+05   1.175076e+06   2.980128e+00   2.388821e+01  -3.991867e-21   1.525130e+06   3.247014e-39   0.000000e+00   0.000000e+00
     1920000   1.919999e-05   1.862310e+01   7.899847e+00   4.126611e+01   9.647439e+05  -1.203548e+05   1.175076e+06   5.249697e+00   4.208069e+01  -7.226229e-21   1.525130e+06   1.007247e-38   0.000000e+00   0.000000e+00
     1928000   1.927999e-05   1.870028e+01   7.890219e+00   4.136011e+01   9.647439e+05  -1.203548e+05   1.175076e+06   4.581503e+00   3.672456e+01  -2.510366e-21   1.525130e+06   7.675315e-39   0.000000e+00   0.000000e+00
     1936000   1.935999e-05   1.877746e+01   7.880591e+00   4.145412e+01   9.647439e+05  -1.203548e+05   1.175076e+06  -7.820515e-01  -6.268794e+00   2.474684e-21   1.525130e+06   2.233140e-40   0.000000e+00   0.000000e+00
     1944000   1.943999e-05   1.885464e+01   7.870962e+00   4.154812e+01   9.647439e+05  -1.203548e+05   1.175076e+06   5.476148e+00   4.389588e+01   3.237235e-21   1.525130e+06   1.096104e-38   0.000000e+00   0.000000e+00
     1952000   1.951999e-05   1.893181e+01   7.861334e+00   4.164213e+01   9.647439e+05  -1.203548e+05   1.175076e+06   6.778879e+00   5.433835e+01   2.029210e-20   1.525130e+06   1.679802e-38   0.000000e+00   0.000000e+00
     1960000   1.959999e-05   1.900899e+01   7.851705e+00   4.173614e+01   9.647439e+05  -1.203548e+05   1.175076e+06   5.360084e+00   4.296553e+01  -1.139482e-20   1.525130e+06   1.050388e-38   0.000000e+00   0.000000e+00
     1968000   1.967999e-05   1.908617e+01   7.842077e+00   4.183014e+01   9.647439e+05  -1.203548e+05   1.175076e+06   1.025329e+01   8.218866e+01   5.703364e-21   1.525130e+06   3.843413e-38   0.000000e+00   0.000000e+00
     1976000   1.975999e-05   1.916335e+01   7.832449e+00   4.192415e+01   9.647439e+05  -1.203548e+05   1.175076e+06   7.551188e+00   6.052906e+01  -4.141532e-21   1.525130e+06   2.084655e-38   0.000000e+00   0.000000e+00
     1984000   1.983999e-05   1.924053e+01   7.822820e+00   4.201815e+01   9.647439e+05  -1.203548e+05   1.175076e+06   5.921095e+00   4.746251e+01   1.855627e-20   1.525130e+06   1.281499e-38   0.000000e+00   0.000000e+00
     1992000   1.991999e-05   1.931771e+01   7.813192e+00   4.211216e+01   9.647439e+05  -1.203548e+05   1.175076e+06   9.608602e+00   7.702094e+01   9.938830e-21   1.525130e+06   3.375091e-38   0.000000e+00   0.000000e+00
     2000000   1.999999e-05   1.939489e+01   7.803563e+00   4.220617e+01   9.647439e+05  -1.203548e+05   1.175076e+06   7.869387e+00   6.307969e+01  -5.903997e-21   1.525130e+06   2.264260e-38   0.000000e+00   0.000000e+00
     2008000   2.007999e-05   1.947207e+01   7.793935e+00   4.230017e+01   9.647439e+05  -1.203548e+05   1.175076e+06   1.048777e+01   8.406822e+01  -1.428113e-20   1.525130e+06   4.022038e-38   0.000000e+00   0.000000e+00
     2016000   2.015999e-05   1.954925e+01   7.784307e+00   4.239418e+01   9.647439e+05  -1.203548e+05   1.175076e+06   1.515188e+01   1.214549e+02  -1.954568e-20   1.525130e+06   8.392899e-38   0.000000e+00   0.000000e+00
     2024000   2.023999e-05   1.962643e+01   7.774678e+00   4.248819e+01   9.647439e+05  -1.203548e+05   1.175076e+06   7.459875e+00   5.979711e+01  -6.069013e-21   1.525130e+06   2.034309e-38   0.000000e+00   0.000000e+00
     2032000   2.031999e-05   1.970361e+01   7.765050e+00   4.258219e+01   9.647439e+05  -1.203548e+05   1.175076e+06   9.253218e+00   7.417224e+01   1.921718e-20   1.525130e+06   3.130466e-38   0.000000e+00   0.000000e+00
     2040000   2.039999e-05   1.978079e+01   7.755422e+00   4.267620e+01   9.647439e+05  -1.203548e+05   1.175076e+06   1.199297e+01   9.613364e+01   2.676628e-20   1.525130e+06   5.258626e-38   0.000000e+00   0.000000e+00
     2048000   2.047999e-05   1.985797e+01   7.745793e+00   4.277020e+01   9.647439e+05  -1.203548e+05   1.175076e+06   6.755409e+00   5.415023e+01   6.825393e-21   1.525130e+06   1.668894e-38   0.000000e+00   0.000000e+00
     2056000   2.055999e-05   1.993515e+01   7.736165e+00   4.286421e+01   9.647439e+05  -1.203548e+05   1.175076e+06   1.083901e+01   8.688369e+01  -3.727942e-21   1.525130e+06   4.295324e-38   0.000000e+00   0.000000e+00
     2064000   2.063999e-05   2.001233e+01   7.726536e+00   4.295822e+01   9.647439e+05  -1.203548e+05   1.175076e+06   1.205602e+01   9.663900e+01   3.880953e-20   1.525130e+06   5.314322e-38   0.000000e+00   0.000000e+00
     2072000   2.071999e-05   2.008951e+01   7.716908e+00   4.305222e+01   9.647439e+05  -1.203548e+05   1.175076e+06   1.421488e+01   1.139441e+02   2.843860e-20   1.525130e+06   7.387249e-38   0.000000e+00   0.000000e+00
     2080000   2.079999e-05   2.016669e+01   7.707280e+00   4.314623e+01   9.647439e+05  -1.203548e+05   1.175076e+06   1.335242e+01   1.070308e+02  -2.964826e-20   1.525130e+06   6.518310e-38   0.000000e+00   0.000000e+00
     2088000   2.087999e-05   2.024387e+01   7.697651e+00   4.324023e+01   9.647439e+05  -1.203548e+05   1.175076e+06   7.286702e+00   5.840898e+01   2.978423e-21   1.525130e+06   1.941435e-38   0.000000e+00   0.000000e+00
     2096000   2.095999e-05   2.032105e+01   7.688023e+00   4.333424e+01   9.647439e+05  -1.203548e+05   1.175076e+06   9.205502e+00   7.378976e+01  -2.676671e-20   1.525130e+06   3.098714e-38   0.000000e+00   0.000000e+00
     2104000   2.103999e-05   2.039823e+01   7.678394e+00   4.342825e+01   9.647439e+05  -1.203548e+05   1.175076e+06   2.336249e+01   1.872698e+02   1.986643e-20   1.525130e+06   1.995308e-37   0.000000e+00   0.000000e+00
     2112000   2.111999e-05   2.047541e+01   7.668766e+00   4.352225e+01   9.647439e+05  -1.203548e+05   1.175076e+06   1.632910e+01   1.308913e+02  -3.491981e-20   1.525130e+06   9.748145e-38   0.000000e+00   0.000000e+00
     2120000   2.119999e-05   2.055258e+01   7.659138e+00   4.361626e+01   9.647439e+05  -1.203548e+05   1.175076e+06   1.872365e+01   1.500857e+02  -3.611022e-21   1.525130e+06   1.281669e-37   0.000000e+00   0.000000e+00
     2128000   2.127999e-05   2.062976e+01   7.649509e+00   4.371026e+01   9.647439e+05  -1.203548e+05   1.175076e+06   1.560865e+01   1.251163e+02  -6.596110e-20   1.525130e+06   8.907709e-38   0.000000e+00   0.000000e+00
     2136000   2.135999e-05   2.070694e+01   7.639881e+00   4.380427e+01   9.647439e+05  -1.203548e+05   1.175076e+06   1.531230e+01   1.227408e+02   7.250335e-21   1.525130e+06   8.572158e-38   0.000000e+00   0.000000e+00
     2144000   2.143999e-05   2.078412e+01   7.630253e+00   4.389828e+01   9.647439e+05  -1.203548e+05   1.175076e+06   1.671226e+01   1.339627e+02   2.132761e-20   1.525130e+06   1.021130e-37   0.000000e+00   0.000000e+00
     2152000   2.151999e-05   2.086130e+01   7.620624e+00   4.399228e+01   9.647439e+05  -1.203548e+05   1.175076e+06   1.959254e+01   1.570505e+02  -2.959079e-20   1.525130e+06   1.403387e-37   0.000000e+00   0.000000e+00
     2160000   2.159999e-05   2.093848e+01   7.610996e+00   4.408629e+01   9.647439e+05  -1.203548e+05   1.175076e+06   1.894028e+01   1.518221e+02   6.969772e-20   1.525130e+06   1.311479e-37   0.000000e+00   0.000000e+00
     2168000   2.167999e-05   2.101566e+01   7.601367e+00   4.418029e+01   9.647439e+05  -1.203548e+05   1.175076e+06   1.981224e+01   1.588116e+02  -1.827670e-21   1.525130e+06   1.435091e-37   0.000000e+00   0.000000e+00
     2176000   2.175999e-05   2.109284e+01   7.591739e+00   4.427430e+01   9.647439e+05  -1.203548e+05   1.175076e+06   2.130705e+01   1.707937e+02  -1.045191e-19   1.525130e+06   1.659815e-37   0.000000e+00   0.000000e+00
     2184000   2.183999e-05   2.117002e+01   7.582111e+00   4.436831e+01   9.647439e+05  -1.203548e+05   1.175076e+06   2.288234e+01   1.834210e+02   4.158634e-20   1.525130e+06   1.914269e-37   0.000000e+00   0.000000e+00
     2192000   2.191999e-05   2.124720e+01   7.572482e+00   4.446231e+01   9.647439e+05  -1.203548e+05   1.175076e+06   1.546086e+01   1.239316e+02  -7.539942e-20   1.525130e+06   8.740415e-38   0.000000e+00   0.000000e+00
     2200000   2.199999e-05   2.132438e+01   7.562854e+00   4.455632e+01   9.647439e+05  -1.203548e+05   1.175076e+06   1.717384e+01   1.376626e+02   4.891884e-20   1.525130e+06   1.078313e-37   0.000000e+00   0.000000e+00
     2208000   2.207999e-05   2.140156e+01   7.553225e+00   4.465033e+01   9.647439e+05  -1.203548e+05   1.175076e+06   2.025482e+01   1.623592e+02   1.050120e-19   1.525130e+06   1.499988e-37   0.000000e+00   0.000000e+00
     2216000   2.215999e-05   2.147874e+01   7.543597e+00   4.474433e+01   9.647439e+05  -1.203548e+05   1.175076e+06   2.226237e+01   1.784514e+02   2.954365e-20   1.525130e+06   1.811930e-37   0.000000e+00   0.000000e+00
     2224000   2.223999e-05   2.155592e+01   7.533969e+00   4.483834e+01   9.647439e+05  -1.203548e+05   1.175076e+06   2.226313e+01   1.784575e+02   4.065652e-20   1.525130e+06   1.812021e-37   0.000000e+00   0.000000e+00
     2232000   2.231999e-05   2.163310e+01   7.524340e+00   4.493234e+01   9.647439e+05  -1.203548e+05   1.175076e+06   2.152529e+01   1.725432e+02  -5.297964e-20   1.525130e+06   1.693945e-37   0.000000e+00   0.000000e+00
     2240000   2.239999e-05   2.171028e+01   7.514712e+00   4.502635e+01   9.647439e+05  -1.203548e+05   1.175076e+06   2.023648e+01   1.622122e+02   1.919347e-20   1.525130e+06   1.497199e-37   0.000000e+00   0.000000e+00
     2248000   2.247999e-05   2.178746e+01   7.505084e+00   4.512036e+01   9.647439e+05  -1.203548e+05   1.175076e+06   1.872310e+01   1.500813e+02   2.462822e-20   1.525130e+06   1.281740e-37   0.000000e+00   0.000000e+00
     2256000   2.255999e-05   2.186464e+01   7.495455e+00   4.521436e+01   9.647439e+05  -1.203548e+05   1.175076e+06   1.586836e+01   1.271981e+02  -1.515122e-20   1.525130e+06   9.206829e-38   0.000000e+00   0.000000e+00
     2264000   2.263999e-05   2.194182e+01   7.485827e+00   4.530837e+01   9.647439e+05  -1.203548e+05   1.175076e+06   2.206388e+01   1.768604e+02  -4.277303e-20   1.525130e+06   1.779772e-37   0.000000e+00   0.000000e+00
     2272000   2.271999e-05   2.201900e+01   7.476198e+00   4.540237e+01   9.647439e+05  -1.203548e+05   1.175076e+06   2.607017e+01   2.089741e+02   4.747701e-20   1.525130e+06   2.484731e-37   0.000000e+00   0.000000e+00
     2280000   2.279999e-05   2.209617e+01   7.466570e+00   4.549638e+01   9.647439e+05  -1.203548e+05   1.175076e+06   3.270243e+01   2.621372e+02   1.029575e-20   1.525130e+06   3.909827e-37   0.000000e+00   0.000000e+00
     2288000   2.287999e-05   2.217335e+01   7.456942e+00   4.559039e+01   9.647439e+05  -1.203548e+05   1.175076e+06   2.863986e+01   2.295723e+02  -1.562961e-20   1.525130e+06   2.998699e-37   0.000000e+00   0.000000e+00
     2296000   2.295999e-05   2.225053e+01   7.447313e+00   4.568439e+01   9.647439e+05  -1.203548e+05   1.175076e+06   2.529625e+01   2.027705e+02   2.244388e-20   1.525130e+06   2.339467e-37   0.000000e+00   0.000000e+00
     2304000   2.303999e-05   2.232771e+01   7.437685e+00   4.577840e+01   9.647439e+05  -1.203548e+05   1.175076e+06   2.416562e+01   1.937075e+02  -7.201442e-20   1.525130e+06   2.135077e-37   0.000000e+00   0.000000e+00
     2312000   2.311999e-05   2.240489e+01   7.428057e+00   4.587240e+01   9.647439e+05  -1.203548e+05   1.175076e+06   2.225970e+01   1.784301e+02   1.008840e-19   1.525130e+06   1.811627e-37   0.000000e+00   0.000000e+00
     2320000   2.319999e-05   2.248207e+01   7.418428e+00   4.596641e+01   9.647439e+05  -1.203548e+05   1.175076e+06   2.282667e+01   1.829748e+02   2.965020e-20   1.525130e+06   1.905035e-37   0.000000e+00   0.000000e+00
     2328000   2.327999e-05   2.255925e+01   7.408800e+00   4.606042e+01   9.647439e+05  -1.203548e+05   1.175076e+06   2.509247e+01   2.011371e+02   1.694128e-20   1.525130e+06   2.301898e-37   0.000000e+00   0.000000e+00
     2336000   2.335999e-05   2.263643e+01   7.399171e+00   4.615442e+01   9.647439e+05  -1.203548e+05   1.175076e+06   3.213182e+01   2.575633e+02   1.085782e-19   1.525130e+06   3.774462e-37   0.000000e+00   0.000000e+00
     2344000   2.343999e-05   2.271361e+01   7.389543e+00   4.624843e+01   9.647439e+05  -1.203548e+05   1.175076e+06   1.961084e+01   1.571972e+02   1.847284e-20   1.525130e+06   1.406105e-37   0.000000e+00   0.000000e+00
     2352000   2.351999e-05   2.279079e+01   7.379915e+00   4.634244e+01   9.647439e+05  -1.203548e+05   1.175076e+06   1.255989e+01   1.006780e+02   2.415462e-20   1.525130e+06   5.768337e-38   0.000000e+00   0.000000e+00
     2360000   2.359999e-05   2.286797e+01   7.370286e+00   4.643644e+01   9.647439e+05  -1.203548e+05   1.175076e+06   2.184873e+01   1.751357e+02   4.491881e-22   1.525130e+06   1.745344e-37   0.000000e+00   0.000000e+00
     2368000   2.367999e-05   2.294515e+01   7.360658e+00   4.653045e+01   9.647439e+05  -1.203548e+05   1.175076e+06   2.398526e+01   1.922618e+02   2.121180e-20   1.525130e+06   2.103249e-37   0.000000e+00   0.000000e+00
     2376000   2.375999e-05   2.302233e+01   7.351029e+00   4.662445e+01   9.647439e+05  -1.203548e+05   1.175076e+06   2.365119e+01   1.895840e+02  -2.906364e-20   1.525130e+06   2.045333e-37   0.000000e+00   0.000000e+00
     2384000   2.383999e-05   2.309951e+01   7.341401e+00   4.671846e+01   9.647439e+05  -1.203548e+05   1.175076e+06   2.381317e+01   1.908824e+02  -1.116224e-20   1.525130e+06   2.073223e-37   0.000000e+00   0.000000e+00
     2392000   2.391999e-05   2.317669e+01   7.331773e+00   4.681247e+01   9.647439e+05  -1.203548e+05   1.175076e+06   2.410762e+01   1.932427e+02  -3.067482e-20   1.525130e+06   2.124804e-37   0.000000e+00   0.000000e+00
     2400000   2.399999e-05   2.325387e+01   7.322144e+00   4.690647e+01   9.647439e+05  -1.203548e+05   1.175076e+06   2.404889e+01   1.927719e+02   7.375344e-20   1.525130e+06   2.114545e-37   0.000000e+00   0.000000e+00
     2408000   2.407999e-05   2.333105e+01   7.312516e+00   4.700048e+01   9.647439e+05  -1.203548e+05   1.175076e+06   2.525639e+01   2.024510e+02   6.555337e-20   1.525130e+06   2.332260e-37   0.000000e+00   0.000000e+00
     2416000   2.415999e-05   2.340823e+01   7.302888e+00   4.709448e+01   9.647439e+05  -1.203548e+05   1.175076e+06   2.493469e+01   1.998723e+02  -3.530033e-20   1.525130e+06   2.273059e-37   0.000000e+00   0.000000e+00
     2424000   2.423999e-05   2.348541e+01   7.293259e+00   4.718849e+01   9.647439e+05  -1.203548e+05   1.175076e+06   3.212294e+01   2.574921e+02   6.007263e-20   1.525130e+06   3.772467e-37   0.000000e+00   0.000000e+00
     2432000   2.431999e-05   2.356259e+01   7.283631e+00   4.728250e+01   9.647439e+05  -1.203548e+05   1.175076e+06   2.877985e+01   2.306945e+02  -8.235452e-20   1.525130e+06   3.028213e-37   0.000000e+00   0.000000e+00
     2440000   2.439999e-05   2.363976e+01   7.274002e+00   4.737650e+01   9.647439e+05  -1.203548e+05   1.175076e+06   2.987302e+01   2.394571e+02   2.472241e-20   1.525130e+06   3.262509e-37   0.000000e+00   0.000000e+00
     2448000   2.447999e-05   2.371694e+01   7.264374e+00   4.747051e+01   9.647439e+05  -1.203548e+05   1.175076e+06   2.896453e+01   2.321748e+02  -1.735933e-19   1.525130e+06   3.067196e-37   0.000000e+00   0.000000e+00
     2456000   2.455999e-05   2.379412e+01   7.254746e+00   4.756451e+01   9.647439e+05  -1.203548e+05   1.175076e+06   2.630664e+01   2.108696e+02   8.647525e-20   1.525130e+06   2.530258e-37   0.000000e+00   0.000000e+00
     2464000   2.463999e-05   2.387130e+01   7.245117e+00   4.765852e+01   9.647439e+05  -1.203548e+05   1.175076e+06   2.612571e+01   2.094193e+02   1.120636e-19   1.525130e+06   2.495540e-37   0.000000e+00   0.000000e+00
     2472000   2.471999e-05   2.394848e+01   7.235489e+00   4.775253e+01   9.647439e+05  -1.203548e+05   1.175076e+06   2.794368e+01   2.239919e+02   3.634338e-20   1.525130e+06   2.854937e-37   0.000000e+00   0.000000e+00
     2480000   2.479999e-05   2.402566e+01   7.225860e+00   4.784653e+01   9.647439e+05  -1.203548e+05   1.175076e+06   2.657104e+01   2.129890e+02   2.187074e-20   1.525130e+06   2.581421e-37   0.000000e+00   0.000000e+00
     2488000   2.487999e-05   2.410284e+01   7.216232e+00   4.794054e+01   9.647439e+05  -1.203548e+05   1.175076e+06   2.631007e+01   2.108971e+02   1.015668e-20   1.525130e+06   2.531016e-37   0.000000e+00   0.000000e+00
     2496000   2.495999e-05   2.418002e+01   7.206604e+00   4.803454e+01   9.647439e+05  -1.203548e+05   1.175076e+06   2.974338e+01   2.384180e+02  -1.082401e-19   1.525130e+06   3.234233e-37   0.000000e+00   0.000000e+00
     2504000   2.503999e-05   2.425720e+01   7.196975e+00   4.812855e+01   9.647439e+05  -1.203548e+05   1.175076e+06   2.541962e+01   2.037594e+02  -8.688861e-20   1.525130e+06   2.362400e-37   0.000000e+00   0.000000e+00
     2512000   2.511999e-05   2.433438e+01   7.187347e+00   4.822256e+01   9.647439e+05  -1.203548e+05   1.175076e+06   2.776277e+01   2.225417e+02   4.042154e-20   1.525130e+06   2.818251e-37   0.000000e+00   0.000000e+00
     2520000   2.519999e-05   2.441156e+01   7.177719e+00   4.831656e+01   9.647439e+05  -1.203548e+05   1.175076e+06   2.720403e+01   2.180629e+02   2.100486e-20   1.525130e+06   2.705867e-37   0.000000e+00   0.000000e+00
     2528000   2.527999e-05   2.448874e+01   7.168090e+00   4.841057e+01   9.647439e+05  -1.203548e+05   1.175076e+06   3.173321e+01   2.543681e+02  -2.878605e-20   1.525130e+06   3.681462e-37   0.000000e+00   0.000000e+00
     2536000   2.535999e-05   2.456592e+01   7.158462e+00   4.850458e+01   9.647439e+05  -1.203548e+05   1.175076e+06   2.889858e+01   2.316462e+02   1.932469e-20   1.525130e+06   3.053127e-37   0.000000e+00   0.000000e+00
     2544000   2.543999e-05   2.464310e+01   7.148833e+00   4.859858e+01   9.647439e+05  -1.203548e+05   1.175076e+06   2.314391e+01   1.855177e+02   1.980194e-20   1.525130e+06   1.958460e-37   0.000000e+00   0.000000e+00
     2552000   2.551999e-05   2.472028e+01   7.139205e+00   4.869259e+01   9.647439e+05  -1.203548e+05   1.175076e+06   2.457531e+01   1.969915e+02  -9.927506e-20   1.525130e+06   2.208162e-37   0.000000e+00   0.000000e+00
     2560000   2.559999e-05   2.479746e+01   7.129577e+00   4.878659e+01   9.647439e+05  -1.203548e+05   1.175076e+06   3.250171e+01   2.605283e+02  -1.232819e-19   1.525130e+06   3.861990e-37   0.000000e+00   0.000000e+00
     2568000   2.567999e-05   2.487464e+01   7.119948e+00   4.888060e+01   9.647439e+05  -1.203548e+05   1.175076e+06   3.046726e+01   2.442204e+02  -5.715427e-20   1.525130e+06   3.393656e-37   0.000000e+00   0.000000e+00
     2576000   2.575999e-05   2.495182e+01   7.110320e+00   4.897461e+01   9.647439e+05  -1.203548e+05   1.175076e+06   2.884539e+01   2.312198e+02  -3.684703e-20   1.525130e+06   3.042034e-37   0.000000e+00   0.000000e+00
     2584000   2.583999e-05   2.502900e+01   7.100691e+00   4.906861e+01   9.647439e+05  -1.203548e+05   1.175076e+06   2.761489e+01   2.213563e+02  -2.691072e-20   1.525130e+06   2.788006e-37   0.000000e+00   0.000000e+00
     2592000   2.591999e-05   2.510618e+01   7.091063e+00   4.916262e+01   9.647439e+05  -1.203548e+05   1.175076e+06   2.355918e+01   1.888464e+02   7.186802e-20   1.525130e+06   2.029186e-37   0.000000e+00   0.000000e+00
     2600000   2.599999e-05   2.518336e+01   7.081435e+00   4.925662e+01   9.647439e+05  -1.203548e+05   1.175076e+06   2.617036e+01   2.097772e+02  -1.349719e-19   1.525130e+06   2.504014e-37   0.000000e+00   0.000000e+00
     2608000   2.607999e-05   2.526053e+01   7.071806e+00   4.935063e+01   9.647439e+05  -1.203548e+05   1.175076e+06   2.332859e+01   1.869981e+02  -9.102340e-20   1.525130e+06   1.989889e-37   0.000000e+00   0.000000e+00
     2616000   2.615999e-05   2.533771e+01   7.062178e+00   4.944464e+01   9.647439e+05  -1.203548e+05   1.175076e+06   2.482601e+01   1.990012e+02  -8.263155e-20   1.525130e+06   2.253472e-37   0.000000e+00   0.000000e+00
     2624000   2.623999e-05   2.541489e+01   7.052550e+00   4.953864e+01   9.647439e+05  -1.203548e+05   1.175076e+06   2.495217e+01   2.000125e+02  -1.068332e-20   1.525130e+06   2.276316e-37   0.000000e+00   0.000000e+00
     2632000   2.631999e-05   2.549207e+01   7.042921e+00   4.963265e+01   9.647466e+05  -1.203547e+05   1.175074e+06   1.461295e+08   4.290960e+06  -1.195342e+08   1.525130e+06   1.997045e-25   0.000000e+00   0.000000e+00
     2640000   2.639999e-05   2.556925e+01   7.033293e+00   4.972665e+01   9.647582e+05  -1.203543e+05   1.175064e+06   3.404279e+08   1.251729e+07  -2.782180e+08   1.525130e+06   1.083665e-24   0.000000e+00   0.000000e+00
     2648000   2.647999e-05   2.564644e+01   7.023664e+00   4.982066e+01   9.647849e+05  -1.203533e+05   1.175043e+06   2.621798e+08   1.111310e+07  -2.141281e+08   1.525130e+06   6.429537e-25   0.000000e+00   0.000000e+00
     2656000   2.655999e-05   2.572362e+01   7.014036e+00   4.991466e+01   9.647927e+05  -1.203529e+05   1.175036e+06   0.000000e+00   0.000000e+00   0.000000e+00   1.525130e+06   0.000000e+00   0.000000e+00   0.000000e+00
