     timestep     time              x             y              z              vx             vy             vz             ax             ay             az         v_magnitude      ELoss        Electronic      Nuclear
           0   0.000000e+00   1.000000e-01   1.758203e+01   1.851636e+01   9.002439e+04   1.391804e+06   1.589373e+06   0.000000e+00   0.000000e+00   0.000000e+00   2.114552e+06   0.000000e+00   0.000000e+00   0.000000e+00
        8000   7.999000e-08   1.072020e-01   1.769337e+01   1.864351e+01   9.002439e+04   1.391804e+06   1.589373e+06   0.000000e+00   0.000000e+00   0.000000e+00   2.114552e+06   0.000000e+00   0.000000e+00   0.000000e+00
       16000   1.599900e-07   1.144039e-01   1.780472e+01   1.877066e+01   9.002439e+04   1.391804e+06   1.589373e+06   0.000000e+00   0.000000e+00   0.000000e+00   2.114552e+06   0.000000e+00   0.000000e+00   0.000000e+00
       24000   2.399900e-07   1.216059e-01   1.791606e+01   1.889781e+01   9.002439e+04   1.391804e+06   1.589373e+06   0.000000e+00   0.000000e+00   0.000000e+00   2.114552e+06   0.000000e+00   0.000000e+00   0.000000e+00
       32000   3.199900e-07   1.288078e-01   1.802741e+01   1.902496e+01   9.002439e+04   1.391804e+06   1.589373e+06   0.000000e+00   0.000000e+00   0.000000e+00   2.114552e+06   0.000000e+00   0.000000e+00   0.000000e+00
       40000   3.999900e-07   1.360098e-01   1.813875e+01   1.915211e+01   9.002439e+04   1.391804e+06   1.589373e+06   0.000000e+00   0.000000e+00   0.000000e+00   2.114552e+06   0.000000e+00   0.000000e+00   0.000000e+00
       48000   4.799900e-07   1.432117e-01   1.825009e+01   1.927926e+01   9.002439e+04   1.391804e+06   1.589373e+06   0.000000e+00   0.000000e+00   0.000000e+00   2.114552e+06   0.000000e+00   0.000000e+00   0.000000e+00
       56000   5.599900e-07   1.504137e-01   1.836144e+01   1.940641e+01   9.002439e+04   1.391804e+06   1.589373e+06   0.000000e+00   0.000000e+00   0.000000e+00   2.114552e+06   0.000000e+00   0.000000e+00   0.000000e+00
       64000   6.399900e-07   1.576156e-01   1.847278e+01   1.953356e+01   9.002436e+04   1.391804e+06   1.589373e+06  -3.224065e+06   1.230105e+07  -1.058934e+07   2.114552e+06   2.946805e-27   0.000000e+00   0.000000e+00
       72000   7.199900e-07   1.648175e-01   1.858413e+01   1.966071e+01   9.002306e+04   1.391809e+06   1.589369e+06  -5.445607e+07   2.114044e+08  -1.820422e+08   2.114552e+06   8.698846e-25   0.000000e+00   0.000000e+00
       80000   7.999900e-07   1.720192e-01   1.869547e+01   1.978786e+01   9.001600e+04   1.391834e+06   1.589347e+06  -1.603543e+08   5.255214e+08  -4.511311e+08   2.114552e+06   5.442678e-24   0.000000e+00   0.000000e+00
       88000   8.799900e-07   1.792202e-01   1.880682e+01   1.991500e+01   9.001136e+04   1.391848e+06   1.589336e+06  -4.300121e+07   5.843939e+07  -4.874246e+07   2.114552e+06   8.242527e-26   0.000000e+00   0.000000e+00
       96000   9.599900e-07   1.864209e-01   1.891817e+01   2.004215e+01   9.000671e+04   1.391842e+06   1.589341e+06  -1.114339e+08   6.226383e+05   5.765401e+06   2.114552e+06   1.340344e-25   0.000000e+00   0.000000e+00
      104000   1.039990e-06   1.936212e-01   1.902951e+01   2.016930e+01   9.000037e+04   1.391842e+06   1.589342e+06  -1.641859e+08   1.061671e+07   9.356497e+00   2.114552e+06   2.914351e-25   0.000000e+00   0.000000e+00
      112000   1.119990e-06   2.008210e-01   1.914086e+01   2.029645e+01   8.999774e+04   1.391842e+06   1.589342e+06   1.230871e+07  -7.958921e+05   6.665440e-16   2.114552e+06   1.636046e-27   0.000000e+00   0.000000e+00
      120000   1.199990e-06   2.080208e-01   1.925221e+01   2.042359e+01   8.999618e+04   1.391842e+06   1.589342e+06  -2.455273e+07   1.587574e+06  -3.490036e-15   2.114552e+06   6.515220e-27   0.000000e+00   0.000000e+00
      128000   1.279990e-06   2.152204e-01   1.936356e+01   2.055074e+01   8.999413e+04   1.391842e+06   1.589342e+06  -3.708099e+07   2.397594e+06  -5.145238e-15   2.114552e+06   1.486439e-26   0.000000e+00   0.000000e+00
      136000   1.359990e-06   2.224198e-01   1.947490e+01   2.067789e+01   8.999158e+04   1.391842e+06   1.589342e+06  -4.965074e+07   3.210241e+06  -9.841795e-15   2.114552e+06   2.665341e-26   0.000000e+00   0.000000e+00
      144000   1.439990e-06   2.296190e-01   1.958625e+01   2.080503e+01   8.998904e+04   1.391842e+06   1.589342e+06   6.790325e+06  -4.390259e+05   2.610307e-15   2.114552e+06   4.972480e-28   0.000000e+00   0.000000e+00
      152000   1.519990e-06   2.368181e-01   1.969760e+01   2.093218e+01   8.998784e+04   1.391842e+06   1.589342e+06   2.168983e+07  -1.402329e+06   3.615201e-15   2.114552e+06   5.083729e-27   0.000000e+00   0.000000e+00
      160000   1.599990e-06   2.440171e-01   1.980895e+01   2.105933e+01   8.998693e+04   1.391842e+06   1.589342e+06  -2.231212e+07   1.442548e+06   1.727919e-15   2.114552e+06   5.379884e-27   0.000000e+00   0.000000e+00
      168000   1.679990e-06   2.512160e-01   1.992029e+01   2.118648e+01   8.998631e+04   1.391842e+06   1.589342e+06  -3.495471e+07   2.259915e+06  -4.002964e-15   2.114552e+06   1.320807e-26   0.000000e+00   0.000000e+00
      176000   1.759990e-06   2.584149e-01   2.003164e+01   2.131362e+01   8.998644e+04   1.391842e+06   1.589342e+06   1.196406e+06  -7.735092e+04  -1.354190e-16   2.114552e+06   1.522251e-29   0.000000e+00   0.000000e+00
      184000   1.839990e-06   2.656139e-01   2.014299e+01   2.144077e+01   8.998762e+04   1.391842e+06   1.589342e+06   1.620260e+07  -1.047556e+06   8.646144e-15   2.114552e+06   2.835955e-27   0.000000e+00   0.000000e+00
      192000   1.919990e-06   2.728130e-01   2.025434e+01   2.156792e+01   8.998926e+04   1.391842e+06   1.589342e+06   3.125284e+07  -2.020646e+06  -1.317399e-14   2.114552e+06   1.055770e-26   0.000000e+00   0.000000e+00
      200000   1.999990e-06   2.800121e-01   2.036568e+01   2.169507e+01   8.999073e+04   1.391842e+06   1.589342e+06   4.634587e+07  -2.996531e+06  -2.584944e-14   2.114552e+06   2.322220e-26   0.000000e+00   0.000000e+00
      208000   2.079990e-06   2.872114e-01   2.047703e+01   2.182221e+01   8.999089e+04   1.391842e+06   1.589342e+06  -3.275475e+07   2.117790e+06  -4.886238e-15   2.114552e+06   1.159735e-26   0.000000e+00   0.000000e+00
      216000   2.159990e-06   2.944107e-01   2.058838e+01   2.194936e+01   8.999021e+04   1.391842e+06   1.589342e+06  -4.551699e+07   2.942922e+06  -2.653176e-14   2.114552e+06   2.239907e-26   0.000000e+00   0.000000e+00
      224000   2.239990e-06   3.016099e-01   2.069973e+01   2.207651e+01   8.998974e+04   1.391842e+06   1.589342e+06  -7.194922e+01   4.651887e+00  -1.389512e-21   2.114552e+06   5.599008e-38   0.000000e+00   0.000000e+00
      232000   2.319990e-06   3.088090e-01   2.081107e+01   2.220366e+01   8.998974e+04   1.391842e+06   1.589342e+06  -6.145047e+01   3.973088e+00  -4.977489e-21   2.114552e+06   4.083999e-38   0.000000e+00   0.000000e+00
      240000   2.399990e-06   3.160082e-01   2.092242e+01   2.233080e+01   8.998974e+04   1.391842e+06   1.589342e+06  -6.267143e+01   4.052029e+00  -3.479248e-20   2.114552e+06   4.248566e-38   0.000000e+00   0.000000e+00
      248000   2.479990e-06   3.232074e-01   2.103377e+01   2.245795e+01   8.998974e+04   1.391842e+06   1.589342e+06  -6.538649e+01   4.227572e+00  -1.836669e-20   2.114552e+06   4.623445e-38   0.000000e+00   0.000000e+00
      256000   2.559990e-06   3.304066e-01   2.114511e+01   2.258510e+01   8.998974e+04   1.391842e+06   1.589342e+06  -5.108501e+01   3.302908e+00  -2.356374e-20   2.114552e+06   2.823409e-38   0.000000e+00   0.000000e+00
      264000   2.639990e-06   3.376058e-01   2.125646e+01   2.271224e+01   8.998974e+04   1.391842e+06   1.589342e+06  -6.440887e+01   4.164364e+00   1.270571e-21   2.114552e+06   4.486727e-38   0.000000e+00   0.000000e+00
      272000   2.719990e-06   3.448049e-01   2.136781e+01   2.283939e+01   8.998974e+04   1.391842e+06   1.589342e+06  -6.467717e+01   4.181711e+00  -1.753935e-20   2.114552e+06   4.524425e-38   0.000000e+00   0.000000e+00
      280000   2.799990e-06   3.520041e-01   2.147916e+01   2.296654e+01   8.998974e+04   1.391842e+06   1.589342e+06  -8.071533e+01   5.218660e+00  -1.110201e-20   2.114552e+06   7.046579e-38   0.000000e+00   0.000000e+00
      288000   2.879990e-06   3.592033e-01   2.159050e+01   2.309369e+01   8.998974e+04   1.391842e+06   1.589342e+06  -9.425742e+01   6.094226e+00  -4.762901e-20   2.114552e+06   9.608404e-38   0.000000e+00   0.000000e+00
      296000   2.959990e-06   3.664025e-01   2.170185e+01   2.322083e+01   8.998974e+04   1.391842e+06   1.589342e+06  -6.975080e+01   4.509747e+00  -1.922632e-20   2.114552e+06   5.262558e-38   0.000000e+00   0.000000e+00
      304000   3.039990e-06   3.736016e-01   2.181320e+01   2.334798e+01   8.998974e+04   1.391842e+06   1.589342e+06  -6.804999e+01   4.399781e+00  -2.299399e-20   2.114552e+06   5.008451e-38   0.000000e+00   0.000000e+00
      312000   3.119990e-06   3.808008e-01   2.192455e+01   2.347513e+01   8.998974e+04   1.391842e+06   1.589342e+06  -7.771312e+01   5.024552e+00  -3.940976e-20   2.114552e+06   6.532301e-38   0.000000e+00   0.000000e+00
      320000   3.199990e-06   3.880000e-01   2.203589e+01   2.360228e+01   8.998974e+04   1.391842e+06   1.589342e+06  -6.699315e+01   4.331451e+00  -4.162353e-20   2.114552e+06   4.854290e-38   0.000000e+00   0.000000e+00
      328000   3.279990e-06   3.951992e-01   2.214724e+01   2.372942e+01   8.998974e+04   1.391842e+06   1.589342e+06  -8.445814e+01   5.460652e+00  -1.916370e-20   2.114552e+06   7.714045e-38   0.000000e+00   0.000000e+00
      336000   3.359990e-06   4.023984e-01   2.225859e+01   2.385657e+01   8.998974e+04   1.391842e+06   1.589342e+06  -8.155281e+01   5.272807e+00  -2.391897e-21   2.114552e+06   7.193259e-38   0.000000e+00   0.000000e+00
      344000   3.439990e-06   4.095975e-01   2.236994e+01   2.398372e+01   8.998974e+04   1.391842e+06   1.589342e+06  -7.165019e+01   4.632552e+00  -3.239247e-21   2.114552e+06   5.552532e-38   0.000000e+00   0.000000e+00
      352000   3.519990e-06   4.167967e-01   2.248128e+01   2.411087e+01   8.998974e+04   1.391842e+06   1.589342e+06  -7.198384e+01   4.654125e+00  -9.305811e-21   2.114552e+06   5.604121e-38   0.000000e+00   0.000000e+00
      360000   3.599990e-06   4.239959e-01   2.259263e+01   2.423801e+01   8.998974e+04   1.391842e+06   1.589342e+06  -6.143682e+01   3.972206e+00   7.674208e-21   2.114552e+06   4.083780e-38   0.000000e+00   0.000000e+00
      368000   3.679990e-06   4.311951e-01   2.270398e+01   2.436516e+01   8.998974e+04   1.391842e+06   1.589342e+06  -6.868098e+01   4.440578e+00  -4.830458e-20   2.114552e+06   5.101598e-38   0.000000e+00   0.000000e+00
      376000   3.759990e-06   4.383943e-01   2.281533e+01   2.449231e+01   8.998974e+04   1.391842e+06   1.589342e+06  -9.078998e+01   5.870038e+00  -6.923206e-20   2.114552e+06   8.915939e-38   0.000000e+00   0.000000e+00
      384000   3.839990e-06   4.455934e-01   2.292667e+01   2.461945e+01   8.998974e+04   1.391842e+06   1.589342e+06  -6.747436e+01   4.362563e+00  -4.674253e-21   2.114552e+06   4.923701e-38   0.000000e+00   0.000000e+00
      392000   3.919990e-06   4.527926e-01   2.303802e+01   2.474660e+01   8.998974e+04   1.391842e+06   1.589342e+06  -8.735512e+01   5.647957e+00  -7.545068e-21   2.114552e+06   8.253156e-38   0.000000e+00   0.000000e+00
      400000   3.999990e-06   4.599918e-01   2.314937e+01   2.487375e+01   8.998974e+04   1.391842e+06   1.589342e+06  -4.547877e+01   2.940436e+00  -1.027710e-20   2.114552e+06   2.238097e-38   0.000000e+00   0.000000e+00
      408000   4.079990e-06   4.671910e-01   2.326072e+01   2.500090e+01   8.998974e+04   1.391842e+06   1.589342e+06  -9.622924e+01   6.221714e+00  -2.112551e-20   2.114552e+06   1.001507e-37   0.000000e+00   0.000000e+00
      416000   4.159990e-06   4.743902e-01   2.337206e+01   2.512804e+01   8.998974e+04   1.391842e+06   1.589342e+06  -9.747383e+01   6.302183e+00  -7.026211e-20   2.114552e+06   1.027566e-37   0.000000e+00   0.000000e+00
      424000   4.239990e-06   4.815893e-01   2.348341e+01   2.525519e+01   8.998974e+04   1.391842e+06   1.589342e+06  -8.169303e+01   5.281874e+00  -1.507304e-20   2.114552e+06   7.218551e-38   0.000000e+00   0.000000e+00
      432000   4.319990e-06   4.887885e-01   2.359476e+01   2.538234e+01   8.998974e+04   1.391842e+06   1.589342e+06  -9.214840e+01   5.957867e+00  -2.404889e-20   2.114552e+06   9.184086e-38   0.000000e+00   0.000000e+00
      440000   4.399990e-06   4.959877e-01   2.370610e+01   2.550949e+01   8.998974e+04   1.391842e+06   1.589342e+06  -8.304732e+01   5.369435e+00   2.375523e-21   2.114552e+06   7.460669e-38   0.000000e+00   0.000000e+00
      448000   4.479990e-06   5.031869e-01   2.381745e+01   2.563663e+01   8.998974e+04   1.391842e+06   1.589342e+06  -9.059078e+01   5.857159e+00   1.106806e-20   2.114552e+06   8.877002e-38   0.000000e+00   0.000000e+00
      456000   4.559990e-06   5.103861e-01   2.392880e+01   2.576378e+01   8.998974e+04   1.391842e+06   1.589342e+06  -8.449770e+01   5.463210e+00  -3.656728e-20   2.114552e+06   7.723213e-38   0.000000e+00   0.000000e+00
      464000   4.639990e-06   5.175852e-01   2.404015e+01   2.589093e+01   8.998974e+04   1.391842e+06   1.589342e+06  -8.665102e+01   5.602433e+00  -1.650020e-20   2.114552e+06   8.121500e-38   0.000000e+00   0.000000e+00
      472000   4.719990e-06   5.247844e-01   2.415149e+01   2.601807e+01   8.998974e+04   1.391842e+06   1.589342e+06  -9.275898e+01   5.997344e+00  -5.638622e-20   2.114552e+06   9.305553e-38   0.000000e+00   0.000000e+00
      480000   4.799990e-06   5.319836e-01   2.426284e+01   2.614522e+01   8.998974e+04   1.391842e+06   1.589342e+06  -1.026148e+02   6.634576e+00   1.937167e-21   2.114552e+06   1.138859e-37   0.000000e+00   0.000000e+00
      488000   4.879990e-06   5.391828e-01   2.437419e+01   2.627237e+01   8.998974e+04   1.391842e+06   1.589342e+06  -1.289379e+02   8.336494e+00  -6.065899e-20   2.114552e+06   1.797929e-37   0.000000e+00   0.000000e+00
      496000   4.959990e-06   5.463820e-01   2.448554e+01   2.639952e+01   8.998974e+04   1.391842e+06   1.589342e+06  -9.323115e+01   6.027872e+00  -4.066384e-20   2.114552e+06   9.401544e-38   0.000000e+00   0.000000e+00
      504000   5.039990e-06   5.535811e-01   2.459688e+01   2.652666e+01   8.998974e+04   1.391842e+06   1.589342e+06  -1.084734e+02   7.013362e+00   7.069304e-21   2.114552e+06   1.272562e-37   0.000000e+00   0.000000e+00
      512000   5.119990e-06   5.607803e-01   2.470823e+01   2.665381e+01   8.998974e+04   1.391842e+06   1.589342e+06  -1.015670e+02   6.566828e+00  -1.890932e-20   2.114552e+06   1.115704e-37   0.000000e+00   0.000000e+00
      520000   5.199990e-06   5.679795e-01   2.481958e+01   2.678096e+01   8.998974e+04   1.391842e+06   1.589342e+06  -8.332924e+01   5.387663e+00  -2.089893e-20   2.114552e+06   7.510219e-38   0.000000e+00   0.000000e+00
      528000   5.279990e-06   5.751787e-01   2.493093e+01   2.690811e+01   8.998974e+04   1.391842e+06   1.589342e+06  -9.545402e+01   6.171592e+00  -3.636746e-20   2.114552e+06   9.855799e-38   0.000000e+00   0.000000e+00
      536000   5.359990e-06   5.823778e-01   2.504227e+01   2.703525e+01   8.998974e+04   1.391842e+06   1.589342e+06  -8.371320e+01   5.412488e+00  -7.521347e-22   2.114552e+06   7.580221e-38   0.000000e+00   0.000000e+00
      544000   5.439990e-06   5.895770e-01   2.515362e+01   2.716240e+01   8.998974e+04   1.391842e+06   1.589342e+06  -1.056445e+02   6.830462e+00  -1.089579e-20   2.114552e+06   1.207126e-37   0.000000e+00   0.000000e+00
      552000   5.519990e-06   5.967762e-01   2.526497e+01   2.728955e+01   8.998974e+04   1.391842e+06   1.589342e+06  -8.138960e+01   5.262255e+00  -5.191717e-20   2.114552e+06   7.165502e-38   0.000000e+00   0.000000e+00
      560000   5.599990e-06   6.039754e-01   2.537632e+01   2.741670e+01   8.998974e+04   1.391842e+06   1.589342e+06  -9.773994e+01   6.319389e+00  -6.641433e-21   2.114552e+06   1.032999e-37   0.000000e+00   0.000000e+00
      568000   5.679990e-06   6.111746e-01   2.548766e+01   2.754384e+01   8.998974e+04   1.391842e+06   1.589342e+06  -9.652252e+01   6.240676e+00  -1.378365e-20   2.114552e+06   1.007702e-37   0.000000e+00   0.000000e+00
      576000   5.759990e-06   6.183737e-01   2.559901e+01   2.767099e+01   8.998974e+04   1.391842e+06   1.589342e+06  -9.436020e+01   6.100871e+00  -2.533938e-20   2.114552e+06   9.630196e-38   0.000000e+00   0.000000e+00
      584000   5.839990e-06   6.255729e-01   2.571036e+01   2.779814e+01   8.998974e+04   1.391842e+06   1.589342e+06  -7.971131e+01   5.153745e+00  -1.674060e-20   2.114552e+06   6.873319e-38   0.000000e+00   0.000000e+00
      592000   5.919990e-06   6.327721e-01   2.582170e+01   2.792528e+01   8.998974e+04   1.391842e+06   1.589342e+06  -9.372836e+01   6.060019e+00  -6.849908e-20   2.114552e+06   9.502353e-38   0.000000e+00   0.000000e+00
      600000   5.999990e-06   6.399713e-01   2.593305e+01   2.805243e+01   8.998974e+04   1.391842e+06   1.589342e+06  -9.983567e+01   6.454888e+00  -7.638020e-20   2.114552e+06   1.078058e-37   0.000000e+00   0.000000e+00
      608000   6.079990e-06   6.471705e-01   2.604440e+01   2.817958e+01   8.998974e+04   1.391842e+06   1.589342e+06  -7.874909e+01   5.091533e+00  -7.057413e-20   2.114552e+06   6.708629e-38   0.000000e+00   0.000000e+00
      616000   6.159990e-06   6.543696e-01   2.615575e+01   2.830673e+01   8.998974e+04   1.391842e+06   1.589342e+06  -7.757157e+01   5.015400e+00  -3.411209e-20   2.114552e+06   6.509126e-38   0.000000e+00   0.000000e+00
      624000   6.239990e-06   6.615688e-01   2.626709e+01   2.843387e+01   8.998974e+04   1.391842e+06   1.589342e+06  -7.655265e+01   4.949522e+00   1.937981e-21   2.114552e+06   6.339157e-38   0.000000e+00   0.000000e+00
      632000   6.319990e-06   6.687680e-01   2.637844e+01   2.856102e+01   8.998974e+04   1.391842e+06   1.589342e+06  -7.939862e+01   5.133528e+00  -2.010729e-20   2.114552e+06   6.819276e-38   0.000000e+00   0.000000e+00
      640000   6.399990e-06   6.759672e-01   2.648979e+01   2.868817e+01   8.998974e+04   1.391842e+06   1.589342e+06  -4.815774e+01   3.113645e+00  -1.694419e-20   2.114552e+06   2.509001e-38   0.000000e+00   0.000000e+00
      648000   6.479990e-06   6.831664e-01   2.660114e+01   2.881532e+01   8.998974e+04   1.391842e+06   1.589342e+06  -1.088626e+02   7.038526e+00  -2.134721e-20   2.114552e+06   1.281896e-37   0.000000e+00   0.000000e+00
      656000   6.559990e-06   6.903655e-01   2.671248e+01   2.894246e+01   8.998974e+04   1.391842e+06   1.589342e+06  -6.265219e+01   4.050786e+00  -3.470768e-20   2.114552e+06   4.246149e-38   0.000000e+00   0.000000e+00
      664000   6.639990e-06   6.975647e-01   2.682383e+01   2.906961e+01   8.998974e+04   1.391842e+06   1.589342e+06  -6.865008e+01   4.438580e+00   2.453376e-21   2.114552e+06   5.097536e-38   0.000000e+00   0.000000e+00
      672000   6.719990e-06   7.047639e-01   2.693518e+01   2.919676e+01   8.998974e+04   1.391842e+06   1.589342e+06  -9.657046e+01   6.243775e+00  -3.628137e-20   2.114552e+06   1.008502e-37   0.000000e+00   0.000000e+00
      680000   6.799990e-06   7.119631e-01   2.704653e+01   2.932391e+01   8.998974e+04   1.391842e+06   1.589342e+06  -8.149640e+01   5.269160e+00  -2.754109e-20   2.114552e+06   7.185281e-38   0.000000e+00   0.000000e+00
      688000   6.879990e-06   7.191623e-01   2.715787e+01   2.945105e+01   8.998974e+04   1.391842e+06   1.589342e+06  -7.727690e+01   4.996348e+00  -2.553751e-20   2.114552e+06   6.459149e-38   0.000000e+00   0.000000e+00
      696000   6.959990e-06   7.263614e-01   2.726922e+01   2.957820e+01   8.998974e+04   1.391842e+06   1.589342e+06  -6.954003e+01   4.496120e+00  -4.806704e-20   2.114552e+06   5.231184e-38   0.000000e+00   0.000000e+00
      704000   7.039990e-06   7.335606e-01   2.738057e+01   2.970535e+01   8.998974e+04   1.391842e+06   1.589342e+06  -9.346246e+01   5.515943e+00   4.614118e-01   2.114552e+06   9.441418e-38   0.000000e+00   0.000000e+00
      712000   7.119990e-06   7.407598e-01   2.749192e+01   2.983249e+01   8.998974e+04   1.391842e+06   1.589342e+06  -7.730917e+01   4.984423e+01  -3.927304e+01   2.114552e+06   1.077286e-37   0.000000e+00   0.000000e+00
      720000   7.199990e-06   7.479590e-01   2.760326e+01   2.995964e+01   8.998974e+04   1.391842e+06   1.589342e+06  -8.520947e+01  -1.077746e+01   1.426283e+01   2.114552e+06   8.163342e-38   0.000000e+00   0.000000e+00
      728000   7.279990e-06   7.551582e-01   2.771461e+01   3.008679e+01   8.998974e+04   1.391842e+06   1.589342e+06  -6.600876e+01   1.263560e+01  -7.327968e+00   2.114552e+06   4.923353e-38   0.000000e+00   0.000000e+00
      736000   7.359990e-06   7.623573e-01   2.782596e+01   3.021394e+01   8.998974e+04   1.391842e+06   1.589342e+06  -7.763139e+01   5.019267e+00  -2.083852e-20   2.114552e+06   6.517628e-38   0.000000e+00   0.000000e+00
      744000   7.439990e-06   7.695565e-01   2.793730e+01   3.034108e+01   8.998974e+04   1.391842e+06   1.589342e+06  -8.741939e+01   5.652112e+00  -4.554524e-20   2.114552e+06   8.265772e-38   0.000000e+00   0.000000e+00
      752000   7.519990e-06   7.767557e-01   2.804865e+01   3.046823e+01   8.998974e+04   1.391842e+06   1.589342e+06  -1.040648e+02   6.728323e+00   8.746417e-21   2.114552e+06   1.171154e-37   0.000000e+00   0.000000e+00
      760000   7.599990e-06   7.839549e-01   2.816000e+01   3.059538e+01   8.998974e+04   1.391842e+06   1.589342e+06  -1.002376e+02   6.480878e+00  -3.336709e-20   2.114552e+06   1.086665e-37   0.000000e+00   0.000000e+00
      768000   7.679990e-06   7.911540e-01   2.827135e+01   3.072253e+01   8.998974e+04   1.391842e+06   1.589342e+06  -1.089055e+02   7.041296e+00   1.151341e-20   2.114552e+06   1.282769e-37   0.000000e+00   0.000000e+00
      776000   7.759990e-06   7.983532e-01   2.838269e+01   3.084967e+01   8.998974e+04   1.391842e+06   1.589342e+06  -2.814346e+01   1.819619e+00   1.130820e-21   2.114552e+06   8.573450e-39   0.000000e+00   0.000000e+00
      784000   7.839990e-06   8.055524e-01   2.849404e+01   3.097682e+01   8.998974e+04   1.391842e+06   1.589342e+06  -1.002376e+02   6.480878e+00   2.007298e-20   2.114552e+06   1.086568e-37   0.000000e+00   0.000000e+00
      792000   7.919990e-06   8.127516e-01   2.860539e+01   3.110397e+01   8.998974e+04   1.391842e+06   1.589342e+06  -8.197010e+01   5.299788e+00   3.641116e-20   2.114552e+06   7.267930e-38   0.000000e+00   0.000000e+00
      800000   7.999990e-06   8.199508e-01   2.871674e+01   3.123112e+01   8.998974e+04   1.391842e+06   1.589342e+06  -6.990329e+01   4.519607e+00   1.543483e-20   2.114552e+06   5.286116e-38   0.000000e+00   0.000000e+00
      808000   8.079990e-06   8.271499e-01   2.882808e+01   3.135826e+01   8.998974e+04   1.391842e+06   1.589342e+06  -6.332746e+01   4.094445e+00   5.192278e-21   2.114552e+06   4.337946e-38   0.000000e+00   0.000000e+00
      816000   8.159990e-06   8.343491e-01   2.893943e+01   3.148541e+01   8.998974e+04   1.391842e+06   1.589342e+06  -5.754565e+01   3.720622e+00  -3.326747e-21   2.114552e+06   3.581951e-38   0.000000e+00   0.000000e+00
      824000   8.239990e-06   8.415483e-01   2.905078e+01   3.161256e+01   8.998974e+04   1.391842e+06   1.589342e+06  -8.333358e+01   5.387944e+00   2.572513e-20   2.114552e+06   7.509291e-38   0.000000e+00   0.000000e+00
      832000   8.319990e-06   8.487475e-01   2.916213e+01   3.173970e+01   8.998974e+04   1.391842e+06   1.589342e+06  -1.002812e+02   6.483697e+00  -6.359143e-21   2.114552e+06   1.087528e-37   0.000000e+00   0.000000e+00
      840000   8.399990e-06   8.559467e-01   2.927347e+01   3.186685e+01   8.998974e+04   1.391842e+06   1.589342e+06  -5.387401e+01   3.483231e+00  -1.955264e-20   2.114552e+06   3.139362e-38   0.000000e+00   0.000000e+00
      848000   8.479990e-06   8.631458e-01   2.938482e+01   3.199400e+01   8.998974e+04   1.391842e+06   1.589342e+06  -8.875294e+01   5.738333e+00  -2.002004e-20   2.114552e+06   8.519217e-38   0.000000e+00   0.000000e+00
      856000   8.559990e-06   8.703450e-01   2.949617e+01   3.212115e+01   8.998974e+04   1.391842e+06   1.589342e+06  -3.784408e+01   2.446814e+00  -1.713756e-20   2.114552e+06   1.549408e-38   0.000000e+00   0.000000e+00
      864000   8.639990e-06   8.775442e-01   2.960752e+01   3.224829e+01   8.998974e+04   1.391842e+06   1.589342e+06  -5.977029e+01   3.864456e+00   8.559303e-22   2.114552e+06   3.864775e-38   0.000000e+00   0.000000e+00
      872000   8.719990e-06   8.847434e-01   2.971886e+01   3.237544e+01   8.998974e+04   1.391842e+06   1.589342e+06  -4.381646e+01   2.832959e+00  -6.217049e-21   2.114552e+06   2.076386e-38   0.000000e+00   0.000000e+00
      880000   8.799990e-06   8.919426e-01   2.983021e+01   3.250259e+01   8.998974e+04   1.391842e+06   1.589342e+06  -5.879536e+01   3.801422e+00  -1.373032e-20   2.114552e+06   3.739226e-38   0.000000e+00   0.000000e+00
      888000   8.879990e-06   8.991417e-01   2.994156e+01   3.262974e+01   8.998974e+04   1.391842e+06   1.589342e+06  -6.163887e+01   3.985269e+00   7.758257e-21   2.114552e+06   4.109378e-38   0.000000e+00   0.000000e+00
      896000   8.959990e-06   9.063409e-01   3.005291e+01   3.275688e+01   8.998974e+04   1.391842e+06   1.589342e+06  -3.347425e+01   2.164282e+00  -1.188269e-21   2.114552e+06   1.212153e-38   0.000000e+00   0.000000e+00
      904000   9.039990e-06   9.135401e-01   3.016425e+01   3.288403e+01   8.998974e+04   1.391842e+06   1.589342e+06  -5.900455e+01   3.814947e+00  -3.436741e-20   2.114552e+06   3.765366e-38   0.000000e+00   0.000000e+00
      912000   9.119990e-06   9.207393e-01   3.027560e+01   3.301118e+01   8.998974e+04   1.391842e+06   1.589342e+06  -4.031183e+01   2.606367e+00   5.266387e-21   2.114552e+06   1.758182e-38   0.000000e+00   0.000000e+00
      920000   9.199990e-06   9.279385e-01   3.038695e+01   3.313832e+01   8.998974e+04   1.391842e+06   1.589342e+06  -5.445662e+01   3.520900e+00   7.089886e-21   2.114552e+06   3.207603e-38   0.000000e+00   0.000000e+00
      928000   9.279990e-06   9.351376e-01   3.049829e+01   3.326547e+01   8.998974e+04   1.391842e+06   1.589342e+06  -2.827290e+01   1.827988e+00   6.750887e-21   2.114552e+06   8.648384e-39   0.000000e+00   0.000000e+00
      936000   9.359990e-06   9.423368e-01   3.060964e+01   3.339262e+01   8.998974e+04   1.391842e+06   1.589342e+06  -8.077449e+01   5.222485e+00   1.641496e-20   2.114552e+06   7.057417e-38   0.000000e+00   0.000000e+00
      944000   9.439990e-06   9.495360e-01   3.072099e+01   3.351977e+01   8.998974e+04   1.391842e+06   1.589342e+06  -4.039737e+01   2.611897e+00  -9.256051e-21   2.114552e+06   1.765024e-38   0.000000e+00   0.000000e+00
      952000   9.519990e-06   9.567352e-01   3.083234e+01   3.364691e+01   8.998974e+04   1.391842e+06   1.589342e+06  -5.441793e+01   3.518399e+00   2.771237e-21   2.114552e+06   3.201959e-38   0.000000e+00   0.000000e+00
      960000   9.599990e-06   9.639344e-01   3.094368e+01   3.377406e+01   8.998974e+04   1.391842e+06   1.589342e+06  -2.455245e+01   1.587442e+00   5.627551e-21   2.114552e+06   6.524053e-39   0.000000e+00   0.000000e+00
      968000   9.679990e-06   9.711335e-01   3.105503e+01   3.390121e+01   8.998974e+04   1.391842e+06   1.589342e+06  -7.371923e+01   4.766326e+00  -7.357658e-21   2.114552e+06   5.876610e-38   0.000000e+00   0.000000e+00
      976000   9.759990e-06   9.783327e-01   3.116638e+01   3.402836e+01   8.998974e+04   1.391842e+06   1.589342e+06  -5.206120e+01   3.366023e+00   8.580359e-21   2.114552e+06   2.931568e-38   0.000000e+00   0.000000e+00
      984000   9.839990e-06   9.855319e-01   3.127773e+01   3.415550e+01   8.998974e+04   1.391842e+06   1.589342e+06  -7.893602e+01   5.103618e+00  -2.671250e-20   2.114552e+06   6.738519e-38   0.000000e+00   0.000000e+00
      992000   9.919990e-06   9.927311e-01   3.138907e+01   3.428265e+01   8.998974e+04   1.391842e+06   1.589342e+06  -4.515581e+01   2.919555e+00   8.031609e-21   2.114552e+06   2.205391e-38   0.000000e+00   0.000000e+00
     1000000   9.999990e-06   9.999302e-01   3.150042e+01   3.440980e+01   8.998974e+04   1.391842e+06   1.589342e+06  -3.099362e+01   2.003897e+00   4.203958e-21   2.114552e+06   1.038519e-38   0.000000e+00   0.000000e+00
     1008000   1.007999e-05   1.007129e+00   3.161177e+01   3.453695e+01   8.998974e+04   1.391842e+06   1.589342e+06  -2.681189e+01   1.733526e+00  -8.151760e-21   2.114552e+06   7.774344e-39   0.000000e+00   0.000000e+00
     1016000   1.015999e-05   1.014329e+00   3.172312e+01   3.466409e+01   8.998974e+04   1.391842e+06   1.589342e+06  -4.335470e+01   2.803104e+00   5.518698e-21   2.114552e+06   2.033742e-38   0.000000e+00   0.000000e+00
     1024000   1.023999e-05   1.021528e+00   3.183446e+01   3.479124e+01   8.998974e+04   1.391842e+06   1.589342e+06  -2.603268e+01   1.683146e+00  -7.288313e-21   2.114552e+06   7.331900e-39   0.000000e+00   0.000000e+00
     1032000   1.031999e-05   1.028727e+00   3.194581e+01   3.491839e+01   8.998974e+04   1.391842e+06   1.589342e+06  -3.223017e+01   2.083846e+00   1.809009e-21   2.114552e+06   1.123685e-38   0.000000e+00   0.000000e+00
     1040000   1.039999e-05   1.035926e+00   3.205716e+01   3.504553e+01   8.998974e+04   1.391842e+06   1.589342e+06  -4.910917e+01   3.175160e+00   5.979314e-21   2.114552e+06   2.607793e-38   0.000000e+00   0.000000e+00
     1048000   1.047999e-05   1.043125e+00   3.216851e+01   3.517268e+01   8.998974e+04   1.391842e+06   1.589342e+06  -3.530740e+01   2.282805e+00  -8.057335e-21   2.114552e+06   1.348321e-38   0.000000e+00   0.000000e+00
     1056000   1.055999e-05   1.050325e+00   3.227985e+01   3.529983e+01   8.998974e+04   1.391842e+06   1.589342e+06  -7.028688e+01   4.544408e+00  -7.583913e-21   2.114552e+06   5.341899e-38   0.000000e+00   0.000000e+00
     1064000   1.063999e-05   1.057524e+00   3.239120e+01   3.542698e+01   8.998974e+04   1.391842e+06   1.589342e+06  -2.258673e+01   1.460348e+00  -9.420712e-21   2.114552e+06   5.521559e-39   0.000000e+00   0.000000e+00
     1072000   1.071999e-05   1.064723e+00   3.250255e+01   3.555412e+01   8.998974e+04   1.391842e+06   1.589342e+06  -3.315714e+01   2.143779e+00  -1.718365e-21   2.114552e+06   1.189009e-38   0.000000e+00   0.000000e+00
     1080000   1.079999e-05   1.071922e+00   3.261389e+01   3.568127e+01   8.998974e+04   1.391842e+06   1.589342e+06  -2.585617e+01   1.671734e+00   1.393602e-21   2.114552e+06   7.229739e-39   0.000000e+00   0.000000e+00
     1088000   1.087999e-05   1.079121e+00   3.272524e+01   3.580842e+01   8.998974e+04   1.391842e+06   1.589342e+06  -1.785923e+01   1.154691e+00   7.778225e-21   2.114552e+06   3.451814e-39   0.000000e+00   0.000000e+00
     1096000   1.095999e-05   1.086320e+00   3.283659e+01   3.593557e+01   8.998974e+04   1.391842e+06   1.589342e+06  -3.164490e+01   2.046005e+00  -9.200936e-21   2.114552e+06   1.082980e-38   0.000000e+00   0.000000e+00
     1104000   1.103999e-05   1.093520e+00   3.294794e+01   3.606271e+01   8.998974e+04   1.391842e+06   1.589342e+06   1.963246e+01  -1.269339e+00  -6.218007e-22   2.114552e+06   4.164170e-39   0.000000e+00   0.000000e+00
     1112000   1.111999e-05   1.100719e+00   3.305928e+01   3.618986e+01   8.998974e+04   1.391842e+06   1.589342e+06  -5.607120e+01   3.625291e+00   1.116770e-21   2.114552e+06   3.400021e-38   0.000000e+00   0.000000e+00
     1120000   1.119999e-05   1.107918e+00   3.317063e+01   3.631701e+01   8.998974e+04   1.391842e+06   1.589342e+06  -2.430189e+01   1.571242e+00  -3.125073e-21   2.114552e+06   6.393395e-39   0.000000e+00   0.000000e+00
     1128000   1.127999e-05   1.115117e+00   3.328198e+01   3.644416e+01   8.998974e+04   1.391842e+06   1.589342e+06  -2.076742e+01   1.342720e+00  -1.784130e-21   2.114552e+06   4.662349e-39   0.000000e+00   0.000000e+00
     1136000   1.135999e-05   1.122316e+00   3.339333e+01   3.657130e+01   8.998974e+04   1.391842e+06   1.589342e+06  -5.362662e+01   3.467236e+00   6.841306e-21   2.114552e+06   3.109186e-38   0.000000e+00   0.000000e+00
     1144000   1.143999e-05   1.129515e+00   3.350467e+01   3.669845e+01   8.998974e+04   1.391842e+06   1.589342e+06   2.592285e-01  -1.676045e-02  -2.870856e-23   2.114552e+06   7.027188e-43   0.000000e+00   0.000000e+00
     1152000   1.151999e-05   1.136715e+00   3.361602e+01   3.682560e+01   8.998974e+04   1.391842e+06   1.589342e+06  -1.293978e+01   8.366233e-01  -5.504689e-22   2.114552e+06   1.809597e-39   0.000000e+00   0.000000e+00
     1160000   1.159999e-05   1.143914e+00   3.372737e+01   3.695274e+01   8.998974e+04   1.391842e+06   1.589342e+06  -1.498915e+01   9.691254e-01  -3.785607e-21   2.114552e+06   2.430947e-39   0.000000e+00   0.000000e+00
     1168000   1.167999e-05   1.151113e+00   3.383872e+01   3.707989e+01   8.998974e+04   1.391842e+06   1.589342e+06  -6.265083e+00   4.050698e-01  -2.222766e-21   2.114552e+06   4.249274e-40   0.000000e+00   0.000000e+00
     1176000   1.175999e-05   1.158312e+00   3.395006e+01   3.720704e+01   8.998974e+04   1.391842e+06   1.589342e+06   4.440924e-01  -2.871285e-02  -1.133057e-22   2.114552e+06   2.134714e-42   0.000000e+00   0.000000e+00
     1184000   1.183999e-05   1.165511e+00   3.406141e+01   3.733419e+01   8.998974e+04   1.391842e+06   1.589342e+06  -3.512336e+00   2.270906e-01  -1.797054e-21   2.114552e+06   1.333311e-40   0.000000e+00   0.000000e+00
     1192000   1.191999e-05   1.172711e+00   3.417276e+01   3.746133e+01   8.998974e+04   1.391842e+06   1.589342e+06  -4.274388e+00   2.763611e-01  -4.258400e-23   2.114552e+06   1.977773e-40   0.000000e+00   0.000000e+00
     1200000   1.199999e-05   1.179910e+00   3.428411e+01   3.758848e+01   8.998974e+04   1.391842e+06   1.589342e+06   3.301489e+01  -2.134582e+00   8.750486e-21   2.114552e+06   1.178426e-38   0.000000e+00   0.000000e+00
     1208000   1.207999e-05   1.187109e+00   3.439545e+01   3.771563e+01   8.998974e+04   1.391842e+06   1.589342e+06  -1.967666e+01   1.272197e+00   3.757205e-21   2.114552e+06   4.185376e-39   0.000000e+00   0.000000e+00
     1216000   1.215999e-05   1.194308e+00   3.450680e+01   3.784278e+01   8.998974e+04   1.391842e+06   1.589342e+06  -1.945867e+01   1.258103e+00  -4.092630e-21   2.114552e+06   4.098954e-39   0.000000e+00   0.000000e+00
     1224000   1.223999e-05   1.201507e+00   3.461815e+01   3.796992e+01   8.998974e+04   1.391842e+06   1.589342e+06  -1.451668e+01   9.385780e-01  -2.229128e-21   2.114552e+06   2.277900e-39   0.000000e+00   0.000000e+00
     1232000   1.231999e-05   1.208706e+00   3.472949e+01   3.809707e+01   8.998974e+04   1.391842e+06   1.589342e+06  -1.343575e+01   8.686903e-01  -7.771465e-21   2.114552e+06   1.953720e-39   0.000000e+00   0.000000e+00
     1240000   1.239999e-05   1.215906e+00   3.484084e+01   3.822422e+01   8.998974e+04   1.391842e+06   1.589342e+06   8.725958e+00  -5.641780e-01   8.537046e-22   2.114552e+06   8.235445e-40   0.000000e+00   0.000000e+00
     1248000   1.247999e-05   1.223105e+00   3.495219e+01   3.835137e+01   8.998974e+04   1.391842e+06   1.589342e+06   1.422697e+01  -9.198464e-01   4.859258e-21   2.114552e+06   2.186037e-39   0.000000e+00   0.000000e+00
     1256000   1.255999e-05   1.230304e+00   3.506354e+01   3.847851e+01   8.998974e+04   1.391842e+06   1.589342e+06  -8.134355e+00   5.259278e-01  -5.955691e-22   2.114552e+06   7.150260e-40   0.000000e+00   0.000000e+00
     1264000   1.263999e-05   1.237503e+00   3.517488e+01   3.860566e+01   8.998974e+04   1.391842e+06   1.589342e+06   2.600123e+01  -1.681113e+00  -4.655300e-21   2.114552e+06   7.310281e-39   0.000000e+00   0.000000e+00
     1272000   1.271999e-05   1.244702e+00   3.528623e+01   3.873281e+01   8.998974e+04   1.391842e+06   1.589342e+06  -4.485791e+01   2.900294e+00  -7.184124e-21   2.114552e+06   2.175073e-38   0.000000e+00   0.000000e+00
     1280000   1.279999e-05   1.251902e+00   3.539758e+01   3.885995e+01   8.998974e+04   1.391842e+06   1.589342e+06   5.854472e+00  -3.785216e-01   6.983840e-22   2.114552e+06   3.709723e-40   0.000000e+00   0.000000e+00
     1288000   1.287999e-05   1.259101e+00   3.550893e+01   3.898710e+01   8.998974e+04   1.391842e+06   1.589342e+06   1.291187e+00  -8.348185e-02  -5.783370e-22   2.114552e+06   1.808780e-41   0.000000e+00   0.000000e+00
     1296000   1.295999e-05   1.266300e+00   3.562027e+01   3.911425e+01   8.998974e+04   1.391842e+06   1.589342e+06   8.599981e+00  -5.560329e-01  -2.066567e-21   2.114552e+06   7.987699e-40   0.000000e+00   0.000000e+00
     1304000   1.303999e-05   1.273499e+00   3.573162e+01   3.924140e+01   8.998974e+04   1.391842e+06   1.589342e+06  -1.219562e+01   7.885095e-01  -3.040308e-21   2.114552e+06   1.606384e-39   0.000000e+00   0.000000e+00
     1312000   1.311999e-05   1.280698e+00   3.584297e+01   3.936854e+01   8.998974e+04   1.391842e+06   1.589342e+06   3.150131e+01  -2.036721e+00   5.804060e-21   2.114552e+06   1.073199e-38   0.000000e+00   0.000000e+00
     1320000   1.319999e-05   1.287897e+00   3.595432e+01   3.949569e+01   8.998974e+04   1.391842e+06   1.589342e+06   3.688311e+01  -2.384683e+00   6.204997e-21   2.114552e+06   1.471121e-38   0.000000e+00   0.000000e+00
     1328000   1.327999e-05   1.295097e+00   3.606566e+01   3.962284e+01   8.998974e+04   1.391842e+06   1.589342e+06   4.749726e+01  -3.070942e+00   1.768127e-20   2.114552e+06   2.439353e-38   0.000000e+00   0.000000e+00
     1336000   1.335999e-05   1.302296e+00   3.617701e+01   3.974999e+01   8.998974e+04   1.391842e+06   1.589342e+06  -2.265931e+00   1.465041e-01  -1.066140e-21   2.114552e+06   5.540503e-41   0.000000e+00   0.000000e+00
     1344000   1.343999e-05   1.309495e+00   3.628836e+01   3.987713e+01   8.998974e+04   1.391842e+06   1.589342e+06   6.793559e+01  -4.392384e+00  -1.036650e-21   2.114552e+06   4.989302e-38   0.000000e+00   0.000000e+00
     1352000   1.351999e-05   1.316694e+00   3.639971e+01   4.000428e+01   8.998974e+04   1.391842e+06   1.589342e+06  -2.790517e+01   1.804212e+00   2.725627e-21   2.114552e+06   8.416409e-39   0.000000e+00   0.000000e+00
     1360000   1.359999e-05   1.323893e+00   3.651105e+01   4.013143e+01   8.998974e+04   1.391842e+06   1.589342e+06   3.795700e+01  -2.454115e+00   7.542559e-21   2.114552e+06   1.559049e-38   0.000000e+00   0.000000e+00
     1368000   1.367999e-05   1.331092e+00   3.662240e+01   4.025858e+01   8.998974e+04   1.391842e+06   1.589342e+06   2.137813e+01  -1.382205e+00   4.627408e-21   2.114552e+06   4.942093e-39   0.000000e+00   0.000000e+00
     1376000   1.375999e-05   1.338292e+00   3.673375e+01   4.038572e+01   8.998974e+04   1.391842e+06   1.589342e+06   4.097678e+01  -2.649359e+00   7.990441e-21   2.114552e+06   1.815208e-38   0.000000e+00   0.000000e+00
     1384000   1.383999e-05   1.345491e+00   3.684510e+01   4.051287e+01   8.998974e+04   1.391842e+06   1.589342e+06   8.012667e+00  -5.180601e-01   1.647432e-21   2.114552e+06   6.958705e-40   0.000000e+00   0.000000e+00
     1392000   1.391999e-05   1.352690e+00   3.695644e+01   4.064002e+01   8.998974e+04   1.391842e+06   1.589342e+06  -3.236049e+00   2.092272e-01  -1.131876e-21   2.114552e+06   1.123237e-40   0.000000e+00   0.000000e+00
     1400000   1.399999e-05   1.359889e+00   3.706779e+01   4.076716e+01   8.998974e+04   1.391842e+06   1.589342e+06  -8.325290e+00   5.382727e-01   3.385389e-21   2.114552e+06   7.482961e-40   0.000000e+00   0.000000e+00
     1408000   1.407999e-05   1.367088e+00   3.717914e+01   4.089431e+01   8.998974e+04   1.391842e+06   1.589342e+06  -1.589421e+01   1.027643e+00   4.917097e-21   2.114552e+06   2.729548e-39   0.000000e+00   0.000000e+00
     1416000   1.415999e-05   1.374288e+00   3.729048e+01   4.102146e+01   8.998974e+04   1.391842e+06   1.589342e+06   4.684445e+01  -3.028734e+00   6.139483e-21   2.114552e+06   2.372635e-38   0.000000e+00   0.000000e+00
     1424000   1.423999e-05   1.381487e+00   3.740183e+01   4.114861e+01   8.998974e+04   1.391842e+06   1.589342e+06  -1.730615e+01   1.118931e+00  -2.130362e-21   2.114552e+06   3.237519e-39   0.000000e+00   0.000000e+00
     1432000   1.431999e-05   1.388686e+00   3.751318e+01   4.127575e+01   8.998974e+04   1.391842e+06   1.589342e+06   6.726095e+01  -4.348765e+00  -1.959825e-20   2.114552e+06   4.894138e-38   0.000000e+00   0.000000e+00
     1440000   1.439999e-05   1.395885e+00   3.762453e+01   4.140290e+01   8.998974e+04   1.391842e+06   1.589342e+06   4.419351e+01  -2.857337e+00  -1.589904e-20   2.114552e+06   2.111141e-38   0.000000e+00   0.000000e+00
     1448000   1.447999e-05   1.403084e+00   3.773587e+01   4.153005e+01   8.998974e+04   1.391842e+06   1.589342e+06   1.458519e+01  -9.430073e-01   3.700730e-21   2.114552e+06   2.303345e-39   0.000000e+00   0.000000e+00
     1456000   1.455999e-05   1.410283e+00   3.784722e+01   4.165720e+01   8.998974e+04   1.391842e+06   1.589342e+06   5.496674e+01  -3.553882e+00   3.161354e-20   2.114552e+06   3.266476e-38   0.000000e+00   0.000000e+00
     1464000   1.463999e-05   1.417483e+00   3.795857e+01   4.178434e+01   8.998974e+04   1.391842e+06   1.589342e+06   3.250443e+01  -2.101578e+00  -8.488548e-21   2.114552e+06   1.143501e-38   0.000000e+00   0.000000e+00
     1472000   1.471999e-05   1.424682e+00   3.806992e+01   4.191149e+01   8.998974e+04   1.391842e+06   1.589342e+06   2.780979e+01  -1.798046e+00   4.920776e-21   2.114552e+06   8.364533e-39   0.000000e+00   0.000000e+00
     1480000   1.479999e-05   1.431881e+00   3.818126e+01   4.203864e+01   8.998974e+04   1.391842e+06   1.589342e+06   6.728308e+01  -4.350196e+00  -1.458963e-20   2.114552e+06   4.895159e-38   0.000000e+00   0.000000e+00
     1488000   1.487999e-05   1.439080e+00   3.829261e+01   4.216578e+01   8.998974e+04   1.391842e+06   1.589342e+06   5.210017e+01  -3.368543e+00   8.887517e-21   2.114552e+06   2.935394e-38   0.000000e+00   0.000000e+00
     1496000   1.495999e-05   1.446279e+00   3.840396e+01   4.229293e+01   8.998974e+04   1.391842e+06   1.589342e+06   1.298296e+00  -8.394150e-02  -4.260305e-22   2.114552e+06   1.843686e-41   0.000000e+00   0.000000e+00
     1504000   1.503999e-05   1.453479e+00   3.851531e+01   4.242008e+01   8.998974e+04   1.391842e+06   1.589342e+06   4.075189e+01  -2.634819e+00   7.865694e-21   2.114552e+06   1.796319e-38   0.000000e+00   0.000000e+00
     1512000   1.511999e-05   1.460678e+00   3.862665e+01   4.254723e+01   8.998974e+04   1.391842e+06   1.589342e+06   3.235984e+01  -2.092230e+00   5.178856e-21   2.114552e+06   1.132690e-38   0.000000e+00   0.000000e+00
     1520000   1.519999e-05   1.467877e+00   3.873800e+01   4.267437e+01   8.998974e+04   1.391842e+06   1.589342e+06   5.303424e+01  -3.428936e+00  -8.125827e-21   2.114552e+06   3.041492e-38   0.000000e+00   0.000000e+00
     1528000   1.527999e-05   1.475076e+00   3.884935e+01   4.280152e+01   8.998974e+04   1.391842e+06   1.589342e+06   2.572254e+01  -1.663094e+00   7.952672e-21   2.114552e+06   7.158078e-39   0.000000e+00   0.000000e+00
     1536000   1.535999e-05   1.482275e+00   3.896070e+01   4.292867e+01   8.998974e+04   1.391842e+06   1.589342e+06   1.863816e+01  -1.205052e+00   7.336648e-21   2.114552e+06   3.756469e-39   0.000000e+00   0.000000e+00
     1544000   1.543999e-05   1.489474e+00   3.907204e+01   4.305582e+01   8.998974e+04   1.391842e+06   1.589342e+06   2.983010e+01  -1.928669e+00   7.388002e-22   2.114552e+06   9.624691e-39   0.000000e+00   0.000000e+00
     1552000   1.551999e-05   1.496674e+00   3.918339e+01   4.318296e+01   8.998974e+04   1.391842e+06   1.589342e+06   5.235266e+01  -3.384868e+00  -7.686997e-22   2.114552e+06   2.963816e-38   0.000000e+00   0.000000e+00
     1560000   1.559999e-05   1.503873e+00   3.929474e+01   4.331011e+01   8.998974e+04   1.391842e+06   1.589342e+06   1.439860e+01  -9.309432e-01  -6.467129e-22   2.114552e+06   2.243200e-39   0.000000e+00   0.000000e+00
     1568000   1.567999e-05   1.511072e+00   3.940608e+01   4.343726e+01   8.998974e+04   1.391842e+06   1.589342e+06   2.934421e+01  -1.897253e+00   4.056425e-21   2.114552e+06   9.310269e-39   0.000000e+00   0.000000e+00
     1576000   1.575999e-05   1.518271e+00   3.951743e+01   4.356441e+01   8.998974e+04   1.391842e+06   1.589342e+06   4.838527e+01  -3.128356e+00  -2.098835e-20   2.114552e+06   2.532781e-38   0.000000e+00   0.000000e+00
     1584000   1.583999e-05   1.525470e+00   3.962878e+01   4.369155e+01   8.998974e+04   1.391842e+06   1.589342e+06   2.481008e+01  -1.604099e+00   3.125350e-21   2.114552e+06   6.656947e-39   0.000000e+00   0.000000e+00
     1592000   1.591999e-05   1.532670e+00   3.974013e+01   4.381870e+01   8.998974e+04   1.391842e+06   1.589342e+06   3.322745e+01  -2.148325e+00  -5.461424e-21   2.114552e+06   1.193942e-38   0.000000e+00   0.000000e+00
     1600000   1.599999e-05   1.539869e+00   3.985147e+01   4.394585e+01   8.998974e+04   1.391842e+06   1.589342e+06   1.013545e+01  -6.553086e-01   3.539468e-23   2.114552e+06   1.113637e-39   0.000000e+00   0.000000e+00
     1608000   1.607999e-05   1.547068e+00   3.996282e+01   4.407299e+01   8.998974e+04   1.391842e+06   1.589342e+06   2.279009e+00  -1.473496e-01  -6.239943e-22   2.114552e+06   5.664813e-41   0.000000e+00   0.000000e+00
     1616000   1.615999e-05   1.554267e+00   4.007417e+01   4.420014e+01   8.998974e+04   1.391842e+06   1.589342e+06   3.308157e+01  -2.138893e+00  -5.044464e-21   2.114552e+06   1.183532e-38   0.000000e+00   0.000000e+00
     1624000   1.623999e-05   1.561466e+00   4.018552e+01   4.432729e+01   8.998974e+04   1.391842e+06   1.589342e+06   1.845141e+01  -1.192978e+00   2.039926e-21   2.114552e+06   3.683731e-39   0.000000e+00   0.000000e+00
     1632000   1.631999e-05   1.568665e+00   4.029686e+01   4.445444e+01   8.998974e+04   1.391842e+06   1.589342e+06   9.501239e+01  -6.143039e+00   1.521746e-20   2.114552e+06   9.761257e-38   0.000000e+00   0.000000e+00
     1640000   1.639999e-05   1.575865e+00   4.040821e+01   4.458158e+01   8.998974e+04   1.391842e+06   1.589342e+06   2.265626e+01  -1.464843e+00   1.391069e-21   2.114552e+06   5.553825e-39   0.000000e+00   0.000000e+00
     1648000   1.647999e-05   1.583064e+00   4.051956e+01   4.470873e+01   8.998974e+04   1.391842e+06   1.589342e+06   3.687462e+01  -2.384133e+00  -4.796751e-23   2.114552e+06   1.471084e-38   0.000000e+00   0.000000e+00
     1656000   1.655999e-05   1.590263e+00   4.063091e+01   4.483588e+01   8.998974e+04   1.391842e+06   1.589342e+06   7.777016e+01  -5.028240e+00   7.535642e-21   2.114552e+06   6.539855e-38   0.000000e+00   0.000000e+00
     1664000   1.663999e-05   1.597462e+00   4.074225e+01   4.496303e+01   8.998974e+04   1.391842e+06   1.589342e+06   3.235784e+01  -2.092101e+00  -3.207531e-21   2.114552e+06   1.131945e-38   0.000000e+00   0.000000e+00
     1672000   1.671999e-05   1.604661e+00   4.085360e+01   4.509017e+01   8.998974e+04   1.391842e+06   1.589342e+06   7.053938e+01  -4.560733e+00   8.942710e-21   2.114552e+06   5.381099e-38   0.000000e+00   0.000000e+00
     1680000   1.679999e-05   1.611860e+00   4.096495e+01   4.521732e+01   8.998974e+04   1.391842e+06   1.589342e+06   3.576853e+01  -2.312619e+00   7.616492e-21   2.114552e+06   1.385262e-38   0.000000e+00   0.000000e+00
     1688000   1.687999e-05   1.619060e+00   4.107630e+01   4.534447e+01   8.998974e+04   1.391842e+06   1.589342e+06   4.258302e+01  -2.753211e+00   1.229722e-20   2.114552e+06   1.960836e-38   0.000000e+00   0.000000e+00
     1696000   1.695999e-05   1.626259e+00   4.118764e+01   4.547162e+01   8.998974e+04   1.391842e+06   1.589342e+06   3.900861e+01  -2.522107e+00   1.061348e-20   2.114552e+06   1.645626e-38   0.000000e+00   0.000000e+00
     1704000   1.703999e-05   1.633458e+00   4.129899e+01   4.559876e+01   8.998974e+04   1.391842e+06   1.589342e+06   4.149323e-01  -2.682750e-02   2.017676e-23   2.114552e+06   1.926462e-42   0.000000e+00   0.000000e+00
     1712000   1.711999e-05   1.640657e+00   4.141034e+01   4.572591e+01   8.998974e+04   1.391842e+06   1.589342e+06   3.035143e+01  -1.962375e+00   1.240634e-20   2.114552e+06   9.963580e-39   0.000000e+00   0.000000e+00
     1720000   1.719999e-05   1.647856e+00   4.152169e+01   4.585306e+01   8.998974e+04   1.391842e+06   1.589342e+06   3.469630e+01  -2.243294e+00   3.407245e-21   2.114552e+06   1.302225e-38   0.000000e+00   0.000000e+00
     1728000   1.727999e-05   1.655056e+00   4.163303e+01   4.598020e+01   8.998974e+04   1.391842e+06   1.589342e+06   1.680010e+01  -1.086212e+00   1.991571e-22   2.114552e+06   3.054400e-39   0.000000e+00   0.000000e+00
     1736000   1.735999e-05   1.662255e+00   4.174438e+01   4.610735e+01   8.998974e+04   1.391842e+06   1.589342e+06   4.747322e+01  -3.069387e+00   7.337255e-21   2.114552e+06   2.436351e-38   0.000000e+00   0.000000e+00
     1744000   1.743999e-05   1.669454e+00   4.185573e+01   4.623450e+01   8.998974e+04   1.391842e+06   1.589342e+06   4.509953e+01  -2.915916e+00   2.855911e-20   2.114552e+06   2.199905e-38   0.000000e+00   0.000000e+00
     1752000   1.751999e-05   1.676653e+00   4.196707e+01   4.636165e+01   8.998974e+04   1.391842e+06   1.589342e+06   3.963495e+01  -2.562603e+00  -1.678676e-20   2.114552e+06   1.699240e-38   0.000000e+00   0.000000e+00
     1760000   1.759999e-05   1.683852e+00   4.207842e+01   4.648879e+01   8.998974e+04   1.391842e+06   1.589342e+06   5.212580e+01  -3.370200e+00  -2.629405e-20   2.114552e+06   2.938435e-38   0.000000e+00   0.000000e+00
     1768000   1.767999e-05   1.691051e+00   4.218977e+01   4.661594e+01   8.998974e+04   1.391842e+06   1.589342e+06   1.822770e+01  -1.178515e+00   4.112311e-21   2.114552e+06   3.595240e-39   0.000000e+00   0.000000e+00
     1776000   1.775999e-05   1.698251e+00   4.230112e+01   4.674309e+01   8.998974e+04   1.391842e+06   1.589342e+06   8.022475e+01  -5.186942e+00   1.479444e-20   2.114552e+06   6.960002e-38   0.000000e+00   0.000000e+00
     1784000   1.783999e-05   1.705450e+00   4.241246e+01   4.687024e+01   8.998974e+04   1.391842e+06   1.589342e+06   3.365916e+01  -2.176237e+00  -4.060808e-21   2.114552e+06   1.225610e-38   0.000000e+00   0.000000e+00
     1792000   1.791999e-05   1.712649e+00   4.252381e+01   4.699738e+01   8.998974e+04   1.391842e+06   1.589342e+06   3.309139e+01  -2.139528e+00   3.173875e-21   2.114552e+06   1.184740e-38   0.000000e+00   0.000000e+00
     1800000   1.799999e-05   1.719848e+00   4.263516e+01   4.712453e+01   8.998974e+04   1.391842e+06   1.589342e+06   2.273255e+01  -1.469776e+00   9.945512e-21   2.114552e+06   5.588034e-39   0.000000e+00   0.000000e+00
     1808000   1.807999e-05   1.727047e+00   4.274651e+01   4.725168e+01   8.998974e+04   1.391842e+06   1.589342e+06   1.851275e+01  -1.196945e+00   3.398795e-21   2.114552e+06   3.709232e-39   0.000000e+00   0.000000e+00
     1816000   1.815999e-05   1.734247e+00   4.285785e+01   4.737883e+01   8.998974e+04   1.391842e+06   1.589342e+06   4.087037e+01  -2.642479e+00  -1.021298e-20   2.114552e+06   1.806406e-38   0.000000e+00   0.000000e+00
     1824000   1.823999e-05   1.741446e+00   4.296920e+01   4.750597e+01   8.998974e+04   1.391842e+06   1.589342e+06   3.461730e+01  -2.238186e+00  -4.811302e-22   2.114552e+06   1.295976e-38   0.000000e+00   0.000000e+00
     1832000   1.831999e-05   1.748645e+00   4.308055e+01   4.763312e+01   8.998974e+04   1.391842e+06   1.589342e+06   3.591110e+01  -2.321837e+00   3.966824e-21   2.114552e+06   1.394810e-38   0.000000e+00   0.000000e+00
     1840000   1.839999e-05   1.755844e+00   4.319190e+01   4.776027e+01   8.998974e+04   1.391842e+06   1.589342e+06  -1.027639e+00   6.644216e-02   1.951621e-24   2.114552e+06   1.128123e-41   0.000000e+00   0.000000e+00
     1848000   1.847999e-05   1.763043e+00   4.330324e+01   4.788741e+01   8.998974e+04   1.391842e+06   1.589342e+06   2.475688e+01  -1.600660e+00  -2.387127e-21   2.114552e+06   6.627702e-39   0.000000e+00   0.000000e+00
     1856000   1.855999e-05   1.770242e+00   4.341459e+01   4.801456e+01   8.998974e+04   1.391842e+06   1.589342e+06   3.157814e+01  -2.041689e+00  -7.270144e-22   2.114552e+06   1.078965e-38   0.000000e+00   0.000000e+00
     1864000   1.863999e-05   1.777442e+00   4.352594e+01   4.814171e+01   8.998974e+04   1.391842e+06   1.589342e+06   4.206283e+01  -2.719578e+00   1.110890e-20   2.114552e+06   1.913665e-38   0.000000e+00   0.000000e+00
     1872000   1.871999e-05   1.784641e+00   4.363729e+01   4.826886e+01   8.998974e+04   1.391842e+06   1.589342e+06   4.916193e+01  -3.178571e+00   2.052319e-20   2.114552e+06   2.613939e-38   0.000000e+00   0.000000e+00
     1880000   1.879999e-05   1.791840e+00   4.374863e+01   4.839600e+01   8.998974e+04   1.391842e+06   1.589342e+06   3.068171e+01  -1.983730e+00   3.962796e-21   2.114552e+06   1.018300e-38   0.000000e+00   0.000000e+00
     1888000   1.887999e-05   1.799039e+00   4.385998e+01   4.852315e+01   8.998974e+04   1.391842e+06   1.589342e+06   8.170912e+01  -5.282914e+00   1.283296e-20   2.114552e+06   7.218659e-38   0.000000e+00   0.000000e+00
     1896000   1.895999e-05   1.806238e+00   4.397133e+01   4.865030e+01   8.998974e+04   1.391842e+06   1.589342e+06   2.591395e+01  -1.675470e+00   4.779364e-21   2.114552e+06   7.268319e-39   0.000000e+00   0.000000e+00
     1904000   1.903999e-05   1.813438e+00   4.408267e+01   4.877745e+01   8.998974e+04   1.391842e+06   1.589342e+06   3.895939e+01  -2.518925e+00   1.109682e-20   2.114552e+06   1.641431e-38   0.000000e+00   0.000000e+00
     1912000   1.911999e-05   1.820637e+00   4.419402e+01   4.890459e+01   8.998974e+04   1.391842e+06   1.589342e+06   3.476888e+01  -2.247986e+00  -4.880845e-21   2.114552e+06   1.307577e-38   0.000000e+00   0.000000e+00
     1920000   1.919999e-05   1.827836e+00   4.430537e+01   4.903174e+01   8.998974e+04   1.391842e+06   1.589342e+06   4.112091e+01  -2.658678e+00  -5.406487e-21   2.114552e+06   1.829197e-38   0.000000e+00   0.000000e+00
     1928000   1.927999e-05   1.835035e+00   4.441672e+01   4.915889e+01   8.998974e+04   1.391842e+06   1.589342e+06   4.230859e+01  -2.735467e+00   1.625007e-20   2.114552e+06   1.936384e-38   0.000000e+00   0.000000e+00
     1936000   1.935999e-05   1.842234e+00   4.452806e+01   4.928604e+01   8.998974e+04   1.391842e+06   1.589342e+06   4.915487e+01  -3.178114e+00   1.978176e-20   2.114552e+06   2.613285e-38   0.000000e+00   0.000000e+00
     1944000   1.943999e-05   1.849433e+00   4.463941e+01   4.941318e+01   8.998974e+04   1.391842e+06   1.589342e+06   3.761432e+01  -2.431959e+00   7.359066e-21   2.114552e+06   1.530372e-38   0.000000e+00   0.000000e+00
     1952000   1.951999e-05   1.856633e+00   4.475076e+01   4.954033e+01   8.998963e+04   1.391842e+06   1.589342e+06  -8.381515e+06  -9.778470e+06   9.037916e+06   2.114552e+06   2.664302e-27   0.000000e+00   0.000000e+00
     1960000   1.959999e-05   1.863832e+00   4.486211e+01   4.966748e+01   8.998620e+04   1.391838e+06   1.589345e+06  -1.247971e+08  -1.447229e+08   1.338041e+08   2.114552e+06   5.859428e-25   0.000000e+00   0.000000e+00
     1968000   1.967999e-05   1.871030e+00   4.497345e+01   4.979463e+01   8.997207e+04   1.391822e+06   1.589360e+06  -2.841529e+08  -3.270577e+08   3.024940e+08   2.114552e+06   3.006798e-24   0.000000e+00   0.000000e+00
     1976000   1.975999e-05   1.878227e+00   4.508480e+01   4.992177e+01   8.996590e+04   1.391815e+06   1.589367e+06   0.000000e+00   0.000000e+00   0.000000e+00   2.114552e+06   0.000000e+00   0.000000e+00   0.000000e+00
