     timestep     time              x             y              z              vx             vy             vz             ax             ay             az         v_magnitude      ELoss        Electronic      Nuclear
           0  1.273197e-313   1.000000e-01   1.247107e+01   2.063805e+01   4.701746e+05   3.110653e+05   2.038015e+06   0.000000e+00   0.000000e+00   0.000000e+00   2.114552e+06   0.000000e+00   0.000000e+00   0.000000e+00
        8000   7.999000e-08   1.376139e-01   1.249596e+01   2.080109e+01   4.701721e+05   3.110692e+05   2.038015e+06  -3.080877e+06   4.656657e+06   4.797578e-15   2.114552e+06   3.374903e-28   0.000000e+00   0.000000e+00
       16000   1.599900e-07   1.752276e-01   1.252084e+01   2.096413e+01   4.701710e+05   3.110708e+05   2.038015e+06   1.013518e+07  -1.531892e+07  -1.981791e-14   2.114552e+06   3.628506e-27   0.000000e+00   0.000000e+00
       24000   2.399900e-07   2.128413e-01   1.254573e+01   2.112717e+01   4.701705e+05   3.110716e+05   2.038015e+06  -4.459174e+06   6.739837e+06   1.194664e-14   2.114552e+06   7.030024e-28   0.000000e+00   0.000000e+00
       32000   3.199900e-07   2.504549e-01   1.257061e+01   2.129021e+01   4.701704e+05   3.110718e+05   2.038015e+06   6.794010e+06  -1.026883e+07  -1.095768e-14   2.114552e+06   1.632147e-27   0.000000e+00   0.000000e+00
       40000   3.999900e-07   2.880685e-01   1.259550e+01   2.145325e+01   4.701702e+05   3.110721e+05   2.038015e+06   8.353788e+06  -1.262634e+07  -1.453907e-14   2.114552e+06   2.467824e-27   0.000000e+00   0.000000e+00
       48000   4.799900e-07   3.256822e-01   1.262038e+01   2.161629e+01   4.701703e+05   3.110720e+05   2.038015e+06   2.910618e+00  -4.399259e+00  -9.012251e-21   2.114552e+06   2.994293e-40   0.000000e+00   0.000000e+00
       56000   5.599900e-07   3.632958e-01   1.264527e+01   2.177933e+01   4.701703e+05   3.110720e+05   2.038015e+06  -5.804671e+00   8.773481e+00   8.268741e-21   2.114552e+06   1.191385e-39   0.000000e+00   0.000000e+00
       64000   6.399900e-07   4.009094e-01   1.267016e+01   2.194237e+01   4.701703e+05   3.110720e+05   2.038015e+06   6.156818e+00  -9.305733e+00   1.117912e-20   2.114552e+06   1.340528e-39   0.000000e+00   0.000000e+00
       72000   7.199900e-07   4.385230e-01   1.269504e+01   2.210542e+01   4.701703e+05   3.110720e+05   2.038015e+06   4.729209e+00  -7.147971e+00   2.917386e-21   2.114552e+06   7.908440e-40   0.000000e+00   0.000000e+00
       80000   7.999900e-07   4.761366e-01   1.271993e+01   2.226846e+01   4.701703e+05   3.110720e+05   2.038015e+06   2.143665e+00  -3.240046e+00   1.946055e-21   2.114552e+06   1.626650e-40   0.000000e+00   0.000000e+00
       88000   8.799900e-07   5.137503e-01   1.274481e+01   2.243150e+01   4.701703e+05   3.110720e+05   2.038015e+06   6.425362e+00  -9.711625e+00  -1.144672e-22   2.114552e+06   1.459738e-39   0.000000e+00   0.000000e+00
       96000   9.599900e-07   5.513639e-01   1.276970e+01   2.259454e+01   4.701703e+05   3.110720e+05   2.038015e+06  -2.328507e+00   3.519426e+00   6.407667e-23   2.114552e+06   1.914774e-40   0.000000e+00   0.000000e+00
      104000   1.039990e-06   5.889775e-01   1.279458e+01   2.275758e+01   4.701703e+05   3.110720e+05   2.038015e+06  -2.728151e+00   4.123468e+00  -5.573805e-21   2.114552e+06   2.629124e-40   0.000000e+00   0.000000e+00
      112000   1.119990e-06   6.265911e-01   1.281947e+01   2.292062e+01   4.701703e+05   3.110720e+05   2.038015e+06   6.090769e-02  -9.205904e-02   2.224366e-22   2.114552e+06   1.254645e-43   0.000000e+00   0.000000e+00
      120000   1.199990e-06   6.642047e-01   1.284436e+01   2.308366e+01   4.701703e+05   3.110720e+05   2.038015e+06  -2.932453e+00   4.432261e+00  -8.289796e-21   2.114552e+06   3.040237e-40   0.000000e+00   0.000000e+00
      128000   1.279990e-06   7.018184e-01   1.286924e+01   2.324670e+01   4.701703e+05   3.110720e+05   2.038015e+06   6.323022e+00  -9.556942e+00  -4.283684e-21   2.114552e+06   1.414200e-39   0.000000e+00   0.000000e+00
      136000   1.359990e-06   7.394320e-01   1.289413e+01   2.340974e+01   4.701703e+05   3.110720e+05   2.038015e+06   9.442209e+00  -1.427144e+01   1.423079e-20   2.114552e+06   3.153771e-39   0.000000e+00   0.000000e+00
      144000   1.439990e-06   7.770456e-01   1.291901e+01   2.357279e+01   4.701703e+05   3.110720e+05   2.038015e+06   6.500007e-01  -9.824447e-01  -1.522971e-22   2.114552e+06   1.502139e-41   0.000000e+00   0.000000e+00
      152000   1.519990e-06   8.146592e-01   1.294390e+01   2.373583e+01   4.701703e+05   3.110720e+05   2.038015e+06   2.276239e+00  -3.440425e+00  -8.560061e-22   2.114552e+06   1.832885e-40   0.000000e+00   0.000000e+00
      160000   1.599990e-06   8.522728e-01   1.296878e+01   2.389887e+01   4.701703e+05   3.110720e+05   2.038015e+06   4.343473e-01  -6.564950e-01   4.605496e-22   2.114552e+06   6.694326e-42   0.000000e+00   0.000000e+00
      168000   1.679990e-06   8.898865e-01   1.299367e+01   2.406191e+01   4.701703e+05   3.110720e+05   2.038015e+06  -1.132092e+00   1.711102e+00  -3.730345e-22   2.114552e+06   4.528853e-41   0.000000e+00   0.000000e+00
      176000   1.759990e-06   9.275001e-01   1.301856e+01   2.422495e+01   4.701703e+05   3.110720e+05   2.038015e+06   6.473720e+00  -9.784716e+00   6.485721e-21   2.114552e+06   1.482399e-39   0.000000e+00   0.000000e+00
      184000   1.839990e-06   9.651137e-01   1.304344e+01   2.438799e+01   4.701703e+05   3.110720e+05   2.038015e+06  -5.109272e+00   7.722418e+00   3.864964e-21   2.114552e+06   9.227849e-40   0.000000e+00   0.000000e+00
      192000   1.919990e-06   1.002727e+00   1.306833e+01   2.455103e+01   4.701703e+05   3.110720e+05   2.038015e+06   4.959297e+00  -7.495738e+00   4.674067e-21   2.114552e+06   8.701096e-40   0.000000e+00   0.000000e+00
      200000   1.999990e-06   1.040341e+00   1.309321e+01   2.471407e+01   4.701703e+05   3.110720e+05   2.038015e+06   3.474566e+00  -5.251638e+00  -6.719842e-21   2.114552e+06   4.271080e-40   0.000000e+00   0.000000e+00
      208000   2.079990e-06   1.077955e+00   1.311810e+01   2.487712e+01   4.701703e+05   3.110720e+05   2.038015e+06   6.197558e+00  -9.367309e+00  -1.566713e-20   2.114552e+06   1.358569e-39   0.000000e+00   0.000000e+00
      216000   2.159990e-06   1.115568e+00   1.314298e+01   2.504016e+01   4.701703e+05   3.110720e+05   2.038015e+06   7.458463e+00  -1.127311e+01  -1.911692e-20   2.114552e+06   1.967042e-39   0.000000e+00   0.000000e+00
      224000   2.239990e-06   1.153182e+00   1.316787e+01   2.520320e+01   4.701703e+05   3.110720e+05   2.038015e+06   6.219136e+00  -9.399925e+00   6.393123e-22   2.114552e+06   1.367518e-39   0.000000e+00   0.000000e+00
      232000   2.319990e-06   1.190795e+00   1.319276e+01   2.536624e+01   4.701703e+05   3.110720e+05   2.038015e+06  -1.231181e+01   1.860871e+01   4.237311e-22   2.114552e+06   5.360413e-39   0.000000e+00   0.000000e+00
      240000   2.399990e-06   1.228409e+00   1.321764e+01   2.552928e+01   4.701703e+05   3.110720e+05   2.038015e+06  -2.346604e-02   3.546778e-02   3.048555e-23   2.114552e+06   2.147427e-44   0.000000e+00   0.000000e+00
      248000   2.479990e-06   1.266023e+00   1.324253e+01   2.569232e+01   4.701703e+05   3.110720e+05   2.038015e+06  -2.371956e+00   3.585098e+00   8.082574e-21   2.114552e+06   1.988732e-40   0.000000e+00   0.000000e+00
      256000   2.559990e-06   1.303636e+00   1.326741e+01   2.585536e+01   4.701703e+05   3.110720e+05   2.038015e+06   9.908174e+00  -1.497573e+01   1.018554e-20   2.114552e+06   3.472578e-39   0.000000e+00   0.000000e+00
      264000   2.639990e-06   1.341250e+00   1.329230e+01   2.601840e+01   4.701703e+05   3.110720e+05   2.038015e+06   1.812727e+01  -2.739850e+01  -1.264381e-20   2.114552e+06   1.162406e-38   0.000000e+00   0.000000e+00
      272000   2.719990e-06   1.378864e+00   1.331719e+01   2.618144e+01   4.701703e+05   3.110720e+05   2.038015e+06  -2.208731e+00   3.338390e+00  -4.031162e-21   2.114552e+06   1.723960e-40   0.000000e+00   0.000000e+00
      280000   2.799990e-06   1.416477e+00   1.334207e+01   2.634449e+01   4.701703e+05   3.110720e+05   2.038015e+06   2.483158e+00  -3.753174e+00  -3.503058e-21   2.114552e+06   2.179274e-40   0.000000e+00   0.000000e+00
      288000   2.879990e-06   1.454091e+00   1.336696e+01   2.650753e+01   4.701703e+05   3.110720e+05   2.038015e+06   3.898637e+00  -5.892602e+00  -7.425694e-21   2.114552e+06   5.373814e-40   0.000000e+00   0.000000e+00
      296000   2.959990e-06   1.491704e+00   1.339184e+01   2.667057e+01   4.701703e+05   3.110720e+05   2.038015e+06   7.548100e+00  -1.140859e+01   1.491086e-20   2.114552e+06   2.015854e-39   0.000000e+00   0.000000e+00
      304000   3.039990e-06   1.529318e+00   1.341673e+01   2.683361e+01   4.701703e+05   3.110720e+05   2.038015e+06   8.132716e-01  -1.229221e+00   1.327924e-21   2.114552e+06   2.341075e-41   0.000000e+00   0.000000e+00
      312000   3.119990e-06   1.566932e+00   1.344161e+01   2.699665e+01   4.701703e+05   3.110720e+05   2.038015e+06  -5.545228e+00   8.381345e+00   2.831466e-21   2.114552e+06   1.087450e-39   0.000000e+00   0.000000e+00
      320000   3.199990e-06   1.604545e+00   1.346650e+01   2.715969e+01   4.701703e+05   3.110720e+05   2.038015e+06  -3.332071e+00   5.036265e+00  -6.756818e-21   2.114552e+06   3.926037e-40   0.000000e+00   0.000000e+00
      328000   3.279990e-06   1.642159e+00   1.349139e+01   2.732273e+01   4.701703e+05   3.110720e+05   2.038015e+06  -8.200463e-01   1.239460e+00   1.453335e-21   2.114552e+06   2.374582e-41   0.000000e+00   0.000000e+00
      336000   3.359990e-06   1.679772e+00   1.351627e+01   2.748577e+01   4.701703e+05   3.110720e+05   2.038015e+06  -3.406735e+00   5.149115e+00   1.031234e-20   2.114552e+06   4.102584e-40   0.000000e+00   0.000000e+00
      344000   3.439990e-06   1.717386e+00   1.354116e+01   2.764882e+01   4.701703e+05   3.110720e+05   2.038015e+06   1.062193e+01  -1.605454e+01   3.315750e-20   2.114552e+06   3.989203e-39   0.000000e+00   0.000000e+00
      352000   3.519990e-06   1.755000e+00   1.356604e+01   2.781186e+01   4.701703e+05   3.110720e+05   2.038015e+06   1.086112e+01  -1.641606e+01   1.944209e-20   2.114552e+06   4.170938e-39   0.000000e+00   0.000000e+00
      360000   3.599990e-06   1.792613e+00   1.359093e+01   2.797490e+01   4.701703e+05   3.110720e+05   2.038015e+06  -3.620417e+00   5.472086e+00  -7.869876e-21   2.114552e+06   4.630196e-40   0.000000e+00   0.000000e+00
      368000   3.679990e-06   1.830227e+00   1.361581e+01   2.813794e+01   4.701703e+05   3.110720e+05   2.038015e+06   1.896889e+00  -2.867056e+00   5.423255e-21   2.114552e+06   1.268447e-40   0.000000e+00   0.000000e+00
      376000   3.759990e-06   1.867841e+00   1.364070e+01   2.830098e+01   4.701703e+05   3.110720e+05   2.038015e+06   7.577412e+00  -1.145289e+01  -7.365113e-21   2.114552e+06   2.029475e-39   0.000000e+00   0.000000e+00
      384000   3.839990e-06   1.905454e+00   1.366559e+01   2.846402e+01   4.701703e+05   3.110720e+05   2.038015e+06   1.167093e+01  -1.764005e+01   3.555079e-20   2.114552e+06   4.817169e-39   0.000000e+00   0.000000e+00
      392000   3.919990e-06   1.943068e+00   1.369047e+01   2.862706e+01   4.701703e+05   3.110720e+05   2.038015e+06   1.480023e+01  -2.236983e+01   3.453008e-21   2.114552e+06   7.747269e-39   0.000000e+00   0.000000e+00
      400000   3.999990e-06   1.980681e+00   1.371536e+01   2.879010e+01   4.701703e+05   3.110720e+05   2.038015e+06  -7.693388e-01   1.162818e+00   7.798728e-22   2.114552e+06   2.084493e-41   0.000000e+00   0.000000e+00
      408000   4.079990e-06   2.018295e+00   1.374024e+01   2.895314e+01   4.701703e+05   3.110720e+05   2.038015e+06   2.241095e+00  -3.387307e+00  -3.344237e-21   2.114552e+06   1.776096e-40   0.000000e+00   0.000000e+00
      416000   4.159990e-06   2.055909e+00   1.376513e+01   2.911619e+01   4.701703e+05   3.110720e+05   2.038015e+06   1.789354e+00  -2.704522e+00   2.788725e-21   2.114552e+06   1.132122e-40   0.000000e+00   0.000000e+00
      424000   4.239990e-06   2.093522e+00   1.379001e+01   2.927923e+01   4.701703e+05   3.110720e+05   2.038015e+06   1.073154e-02  -1.622020e-02  -1.703707e-23   2.114552e+06   4.480844e-45   0.000000e+00   0.000000e+00
      432000   4.319990e-06   2.131136e+00   1.381490e+01   2.944227e+01   4.701703e+05   3.110720e+05   2.038015e+06   2.723695e+00  -4.116734e+00  -4.895974e-21   2.114552e+06   2.625415e-40   0.000000e+00   0.000000e+00
      440000   4.399990e-06   2.168750e+00   1.383979e+01   2.960531e+01   4.701703e+05   3.110720e+05   2.038015e+06  -6.695973e-01   1.012064e+00   1.303031e-21   2.114552e+06   1.583895e-41   0.000000e+00   0.000000e+00
      448000   4.479990e-06   2.206363e+00   1.386467e+01   2.976835e+01   4.701703e+05   3.110720e+05   2.038015e+06   1.164020e+00  -9.524915e-01  -1.231562e-01   2.114552e+06   2.458199e-41   0.000000e+00   0.000000e+00
      456000   4.559990e-06   2.243977e+00   1.388956e+01   2.993139e+01   4.701703e+05   3.110720e+05   2.038015e+06  -2.546064e+00   3.390469e+00   6.987374e-02   2.114552e+06   1.936588e-40   0.000000e+00   0.000000e+00
      464000   4.639990e-06   2.281590e+00   1.391444e+01   3.009443e+01   4.701703e+05   3.110720e+05   2.038015e+06   2.108150e+01  -2.357048e+01  -1.265828e+00   2.114552e+06   1.078899e-38   0.000000e+00   0.000000e+00
      472000   4.719990e-06   2.319204e+00   1.393933e+01   3.025747e+01   4.701703e+05   3.110720e+05   2.038015e+06  -5.012860e-02   7.576695e-02   1.367744e-22   2.114552e+06   8.516371e-44   0.000000e+00   0.000000e+00
      480000   4.799990e-06   2.356818e+00   1.396421e+01   3.042052e+01   4.701703e+05   3.110720e+05   2.038015e+06  -1.782141e-01   2.693620e-01  -2.666158e-22   2.114552e+06   1.110215e-42   0.000000e+00   0.000000e+00
      488000   4.879990e-06   2.394431e+00   1.398910e+01   3.058356e+01   4.701703e+05   3.110720e+05   2.038015e+06   9.375746e+00  -1.417099e+01  -2.071189e-20   2.114552e+06   3.109088e-39   0.000000e+00   0.000000e+00
      496000   4.959990e-06   2.432045e+00   1.401399e+01   3.074660e+01   4.701703e+05   3.110720e+05   2.038015e+06   7.801574e+00  -1.179170e+01   2.442407e-20   2.114552e+06   2.153224e-39   0.000000e+00   0.000000e+00
      504000   5.039990e-06   2.469659e+00   1.403887e+01   3.090964e+01   4.701703e+05   3.110720e+05   2.038015e+06   2.465886e+00  -3.727068e+00   8.872129e-21   2.114552e+06   2.151128e-40   0.000000e+00   0.000000e+00
      512000   5.119990e-06   2.507272e+00   1.406376e+01   3.107268e+01   4.701703e+05   3.110720e+05   2.038015e+06   3.672134e+00  -5.550253e+00  -2.829275e-21   2.114552e+06   4.769762e-40   0.000000e+00   0.000000e+00
      520000   5.199990e-06   2.544886e+00   1.408864e+01   3.123572e+01   4.701703e+05   3.110720e+05   2.038015e+06   5.623731e+00  -8.499998e+00  -2.138372e-21   2.114552e+06   1.118747e-39   0.000000e+00   0.000000e+00
      528000   5.279990e-06   2.582499e+00   1.411353e+01   3.139876e+01   4.701703e+05   3.110720e+05   2.038015e+06   9.036187e+00  -1.365776e+01  -1.486155e-20   2.114552e+06   2.887781e-39   0.000000e+00   0.000000e+00
      536000   5.359990e-06   2.620113e+00   1.413842e+01   3.156180e+01   4.701703e+05   3.110720e+05   2.038015e+06   7.822405e+00  -1.182319e+01   3.395565e-21   2.114552e+06   2.164144e-39   0.000000e+00   0.000000e+00
      544000   5.439990e-06   2.657727e+00   1.416330e+01   3.172484e+01   4.701703e+05   3.110720e+05   2.038015e+06   4.934582e+00  -7.458383e+00  -5.733063e-21   2.114552e+06   8.610640e-40   0.000000e+00   0.000000e+00
      552000   5.519990e-06   2.695340e+00   1.418819e+01   3.188789e+01   4.701703e+05   3.110720e+05   2.038015e+06  -1.292066e+01   1.952896e+01  -1.354301e-20   2.114552e+06   5.904255e-39   0.000000e+00   0.000000e+00
      560000   5.599990e-06   2.732954e+00   1.421307e+01   3.205093e+01   4.701703e+05   3.110720e+05   2.038015e+06   2.140708e+00  -3.235576e+00  -4.184805e-21   2.114552e+06   1.621441e-40   0.000000e+00   0.000000e+00
      568000   5.679990e-06   2.770567e+00   1.423796e+01   3.221397e+01   4.701703e+05   3.110720e+05   2.038015e+06   4.839922e+00  -7.315309e+00  -2.720644e-21   2.114552e+06   8.287620e-40   0.000000e+00   0.000000e+00
      576000   5.759990e-06   2.808181e+00   1.426284e+01   3.237701e+01   4.701703e+05   3.110720e+05   2.038015e+06   4.618772e+00  -6.981051e+00  -1.297200e-21   2.114552e+06   7.546842e-40   0.000000e+00   0.000000e+00
      584000   5.839990e-06   2.845795e+00   1.428773e+01   3.254005e+01   4.701703e+05   3.110720e+05   2.038015e+06   3.869955e+00  -5.849250e+00  -1.600682e-21   2.114552e+06   5.298113e-40   0.000000e+00   0.000000e+00
      592000   5.919990e-06   2.883408e+00   1.431262e+01   3.270309e+01   4.701703e+05   3.110720e+05   2.038015e+06   3.093504e+00  -4.675683e+00  -1.237829e-21   2.114552e+06   3.385548e-40   0.000000e+00   0.000000e+00
      600000   5.999990e-06   2.921022e+00   1.433750e+01   3.286613e+01   4.701703e+05   3.110720e+05   2.038015e+06   3.820363e+00  -5.774294e+00   1.359546e-20   2.114552e+06   5.163827e-40   0.000000e+00   0.000000e+00
      608000   6.079990e-06   2.958636e+00   1.436239e+01   3.302917e+01   4.701703e+05   3.110720e+05   2.038015e+06   4.986412e+00  -7.536722e+00  -9.192346e-21   2.114552e+06   8.796916e-40   0.000000e+00   0.000000e+00
      616000   6.159990e-06   2.996249e+00   1.438727e+01   3.319222e+01   4.701703e+05   3.110720e+05   2.038015e+06   1.564443e+01  -2.364579e+01   4.694637e-20   2.114552e+06   8.657770e-39   0.000000e+00   0.000000e+00
      624000   6.239990e-06   3.033863e+00   1.441216e+01   3.335526e+01   4.701703e+05   3.110720e+05   2.038015e+06   3.369382e+00  -5.092658e+00   3.533777e-21   2.114552e+06   4.014399e-40   0.000000e+00   0.000000e+00
      632000   6.319990e-06   3.071476e+00   1.443704e+01   3.351830e+01   4.701703e+05   3.110720e+05   2.038015e+06   7.772404e+00  -1.174761e+01  -3.709957e-20   2.114552e+06   2.136721e-39   0.000000e+00   0.000000e+00
      640000   6.399990e-06   3.109090e+00   1.446193e+01   3.368134e+01   4.701703e+05   3.110720e+05   2.038015e+06   5.221395e+00  -7.891887e+00   5.171171e-22   2.114552e+06   9.643422e-40   0.000000e+00   0.000000e+00
      648000   6.479990e-06   3.146704e+00   1.448682e+01   3.384438e+01   4.701703e+05   3.110720e+05   2.038015e+06   6.314169e+00  -9.543561e+00  -2.743671e-21   2.114552e+06   1.410270e-39   0.000000e+00   0.000000e+00
      656000   6.559990e-06   3.184317e+00   1.451170e+01   3.400742e+01   4.701703e+05   3.110720e+05   2.038015e+06   3.266541e+00  -4.937220e+00   8.075994e-21   2.114552e+06   3.774641e-40   0.000000e+00   0.000000e+00
      664000   6.639990e-06   3.221931e+00   1.453659e+01   3.417046e+01   4.701703e+05   3.110720e+05   2.038015e+06   5.352248e+00  -8.089665e+00   1.035903e-20   2.114552e+06   1.013273e-39   0.000000e+00   0.000000e+00
      672000   6.719990e-06   3.259545e+00   1.456147e+01   3.433350e+01   4.701703e+05   3.110720e+05   2.038015e+06   6.460335e+00  -9.764485e+00   1.415053e-20   2.114552e+06   1.476306e-39   0.000000e+00   0.000000e+00
      680000   6.799990e-06   3.297158e+00   1.458636e+01   3.449654e+01   4.701703e+05   3.110720e+05   2.038015e+06   4.242899e+00  -6.412938e+00  -9.908449e-22   2.114552e+06   6.369203e-40   0.000000e+00   0.000000e+00
      688000   6.879990e-06   3.334772e+00   1.461124e+01   3.465959e+01   4.701703e+05   3.110720e+05   2.038015e+06   7.497885e+00  -1.133269e+01  -1.370801e-21   2.114552e+06   1.989961e-39   0.000000e+00   0.000000e+00
      696000   6.959990e-06   3.372385e+00   1.463613e+01   3.482263e+01   4.701703e+05   3.110720e+05   2.038015e+06   5.165525e+00  -7.807442e+00  -1.582455e-20   2.114552e+06   9.447229e-40   0.000000e+00   0.000000e+00
      704000   7.039990e-06   3.409999e+00   1.466102e+01   3.498567e+01   4.701703e+05   3.110720e+05   2.038015e+06   7.390584e+00  -1.117051e+01  -1.348055e-21   2.114552e+06   1.932221e-39   0.000000e+00   0.000000e+00
      712000   7.119990e-06   3.447613e+00   1.468590e+01   3.514871e+01   4.701703e+05   3.110720e+05   2.038015e+06   4.555223e+00  -6.885000e+00   4.239593e-22   2.114552e+06   7.340091e-40   0.000000e+00   0.000000e+00
      720000   7.199990e-06   3.485226e+00   1.471079e+01   3.531175e+01   4.701703e+05   3.110720e+05   2.038015e+06   2.335968e+00  -3.530703e+00  -3.129646e-21   2.114552e+06   1.933845e-40   0.000000e+00   0.000000e+00
      728000   7.279990e-06   3.522840e+00   1.473567e+01   3.547479e+01   4.701703e+05   3.110720e+05   2.038015e+06   7.467048e+00  -1.128608e+01   8.524048e-21   2.114552e+06   1.972412e-39   0.000000e+00   0.000000e+00
      736000   7.359990e-06   3.560453e+00   1.476056e+01   3.563783e+01   4.701703e+05   3.110720e+05   2.038015e+06   1.277369e+01  -1.930681e+01  -1.409565e-21   2.114552e+06   5.772228e-39   0.000000e+00   0.000000e+00
      744000   7.439990e-06   3.598067e+00   1.478544e+01   3.580087e+01   4.701703e+05   3.110720e+05   2.038015e+06   1.808033e+01  -2.732754e+01  -4.822352e-20   2.114552e+06   1.156453e-38   0.000000e+00   0.000000e+00
      752000   7.519990e-06   3.635681e+00   1.481033e+01   3.596392e+01   4.701703e+05   3.110720e+05   2.038015e+06   9.001622e-01  -1.360552e+00   5.231542e-22   2.114552e+06   2.880724e-41   0.000000e+00   0.000000e+00
      760000   7.599990e-06   3.673294e+00   1.483522e+01   3.612696e+01   4.701703e+05   3.110720e+05   2.038015e+06   1.358410e+00  -2.053172e+00  -1.401863e-21   2.114552e+06   6.549421e-41   0.000000e+00   0.000000e+00
      768000   7.679990e-06   3.710908e+00   1.486010e+01   3.629000e+01   4.701703e+05   3.110720e+05   2.038015e+06   4.422429e+00  -6.684288e+00   8.817787e-21   2.114552e+06   6.916438e-40   0.000000e+00   0.000000e+00
      776000   7.759990e-06   3.748522e+00   1.488499e+01   3.645304e+01   4.701703e+05   3.110720e+05   2.038015e+06   5.775853e+00  -8.729923e+00  -2.066222e-20   2.114552e+06   1.179864e-39   0.000000e+00   0.000000e+00
      784000   7.839990e-06   3.786135e+00   1.490987e+01   3.661608e+01   4.701703e+05   3.110720e+05   2.038015e+06   2.184554e+00  -3.301847e+00  -2.942209e-21   2.114552e+06   1.688750e-40   0.000000e+00   0.000000e+00
      792000   7.919990e-06   3.823749e+00   1.493476e+01   3.677912e+01   4.701703e+05   3.110720e+05   2.038015e+06   3.675611e+00  -5.555509e+00  -1.329926e-20   2.114552e+06   4.780914e-40   0.000000e+00   0.000000e+00
      800000   7.999990e-06   3.861362e+00   1.495964e+01   3.694216e+01   4.701703e+05   3.110720e+05   2.038015e+06   5.841911e+00  -8.829766e+00  -1.113296e-20   2.114552e+06   1.207578e-39   0.000000e+00   0.000000e+00
      808000   8.079990e-06   3.898976e+00   1.498453e+01   3.710520e+01   4.701703e+05   3.110720e+05   2.038015e+06   8.008210e+00  -1.210402e+01  -3.674730e-20   2.114552e+06   2.269107e-39   0.000000e+00   0.000000e+00
      816000   8.159990e-06   3.936590e+00   1.500942e+01   3.726824e+01   4.701703e+05   3.110720e+05   2.038015e+06   3.205272e+00  -4.844615e+00   3.742278e-21   2.114552e+06   3.635568e-40   0.000000e+00   0.000000e+00
      824000   8.239990e-06   3.974203e+00   1.503430e+01   3.743129e+01   4.701703e+05   3.110720e+05   2.038015e+06   3.710760e+00  -5.608634e+00  -2.282473e-21   2.114552e+06   4.872505e-40   0.000000e+00   0.000000e+00
      832000   8.319990e-06   4.011817e+00   1.505919e+01   3.759433e+01   4.701703e+05   3.110720e+05   2.038015e+06   3.554537e+00  -5.372512e+00  -7.502467e-21   2.114552e+06   4.471790e-40   0.000000e+00   0.000000e+00
      840000   8.399990e-06   4.049431e+00   1.508407e+01   3.775737e+01   4.701703e+05   3.110720e+05   2.038015e+06   3.549410e+00  -5.364762e+00   1.109290e-21   2.114552e+06   4.458901e-40   0.000000e+00   0.000000e+00
      848000   8.479990e-06   4.087044e+00   1.510896e+01   3.792041e+01   4.701703e+05   3.110720e+05   2.038015e+06   8.274078e-01  -1.250587e+00   5.281836e-22   2.114552e+06   2.425066e-41   0.000000e+00   0.000000e+00
      856000   8.559990e-06   4.124658e+00   1.513385e+01   3.808345e+01   4.701703e+05   3.110720e+05   2.038015e+06   4.802279e+00  -7.258414e+00  -8.441341e-23   2.114552e+06   8.156051e-40   0.000000e+00   0.000000e+00
      864000   8.639990e-06   4.162271e+00   1.515873e+01   3.824649e+01   4.701703e+05   3.110720e+05   2.038015e+06   8.838809e+00  -1.335943e+01   4.099832e-20   2.114552e+06   2.763358e-39   0.000000e+00   0.000000e+00
      872000   8.719990e-06   4.199885e+00   1.518362e+01   3.840953e+01   4.701703e+05   3.110720e+05   2.038015e+06   1.287534e+01  -1.946045e+01  -7.179257e-22   2.114552e+06   5.863961e-39   0.000000e+00   0.000000e+00
      880000   8.799990e-06   4.237499e+00   1.520850e+01   3.857257e+01   4.701703e+05   3.110720e+05   2.038015e+06   2.656220e+00  -4.014748e+00  -1.398314e-21   2.114552e+06   2.497149e-40   0.000000e+00   0.000000e+00
      888000   8.879990e-06   4.275112e+00   1.523339e+01   3.873561e+01   4.701703e+05   3.110720e+05   2.038015e+06   8.590665e-01  -1.298438e+00   6.534280e-22   2.114552e+06   2.614367e-41   0.000000e+00   0.000000e+00
      896000   8.959990e-06   4.312726e+00   1.525827e+01   3.889866e+01   4.701703e+05   3.110720e+05   2.038015e+06   6.696646e+00  -1.012166e+01   8.793393e-21   2.114552e+06   1.586201e-39   0.000000e+00   0.000000e+00
      904000   9.039990e-06   4.350340e+00   1.528316e+01   3.906170e+01   4.701703e+05   3.110720e+05   2.038015e+06   1.153331e+01  -1.743205e+01  -2.889814e-20   2.114552e+06   4.705290e-39   0.000000e+00   0.000000e+00
      912000   9.119990e-06   4.387953e+00   1.530805e+01   3.922474e+01   4.701703e+05   3.110720e+05   2.038015e+06   4.555836e+00  -6.885926e+00   7.272183e-21   2.114552e+06   7.343521e-40   0.000000e+00   0.000000e+00
      920000   9.199990e-06   4.425567e+00   1.533293e+01   3.938778e+01   4.701703e+05   3.110720e+05   2.038015e+06   3.400082e+00  -5.139059e+00  -6.194717e-21   2.114552e+06   4.090557e-40   0.000000e+00   0.000000e+00
      928000   9.279990e-06   4.463180e+00   1.535782e+01   3.955082e+01   4.701703e+05   3.110720e+05   2.038015e+06   2.627239e+00  -3.970945e+00  -6.515959e-21   2.114552e+06   2.442449e-40   0.000000e+00   0.000000e+00
      936000   9.359990e-06   4.500794e+00   1.538270e+01   3.971386e+01   4.701703e+05   3.110720e+05   2.038015e+06   7.994502e+00  -1.208330e+01   1.713933e-20   2.114552e+06   2.260767e-39   0.000000e+00   0.000000e+00
      944000   9.439990e-06   4.538408e+00   1.540759e+01   3.987690e+01   4.701703e+05   3.110720e+05   2.038015e+06   5.698322e+00  -8.612739e+00   1.838203e-21   2.114552e+06   1.148709e-39   0.000000e+00   0.000000e+00
      952000   9.519990e-06   4.576021e+00   1.543247e+01   4.003994e+01   4.701703e+05   3.110720e+05   2.038015e+06   1.990613e+00  -3.008715e+00  -1.788478e-21   2.114552e+06   1.401749e-40   0.000000e+00   0.000000e+00
      960000   9.599990e-06   4.613635e+00   1.545736e+01   4.020299e+01   4.701703e+05   3.110720e+05   2.038015e+06   5.062765e+00  -7.652125e+00  -4.497933e-21   2.114552e+06   9.066540e-40   0.000000e+00   0.000000e+00
      968000   9.679990e-06   4.651248e+00   1.548225e+01   4.036603e+01   4.701703e+05   3.110720e+05   2.038015e+06   3.840530e+00  -5.804776e+00  -9.834409e-21   2.114552e+06   5.218079e-40   0.000000e+00   0.000000e+00
      976000   9.759990e-06   4.688862e+00   1.550713e+01   4.052907e+01   4.701703e+05   3.110720e+05   2.038015e+06   7.613533e+00  -1.150749e+01  -2.260452e-20   2.114552e+06   2.050250e-39   0.000000e+00   0.000000e+00
      984000   9.839990e-06   4.726476e+00   1.553202e+01   4.069211e+01   4.701703e+05   3.110720e+05   2.038015e+06   2.290188e+00  -3.461508e+00   1.201861e-21   2.114552e+06   1.857048e-40   0.000000e+00   0.000000e+00
      992000   9.919990e-06   4.764089e+00   1.555690e+01   4.085515e+01   4.701703e+05   3.110720e+05   2.038015e+06  -2.455703e+00   3.711676e+00   6.837946e-21   2.114552e+06   2.131805e-40   0.000000e+00   0.000000e+00
     1000000   9.999990e-06   4.801703e+00   1.558179e+01   4.101819e+01   4.701703e+05   3.110720e+05   2.038015e+06   6.537995e+00  -9.881864e+00  -6.154867e-21   2.114552e+06   1.511479e-39   0.000000e+00   0.000000e+00
     1008000   1.007999e-05   4.839317e+00   1.560667e+01   4.118123e+01   4.701703e+05   3.110720e+05   2.038015e+06   8.253437e+00  -1.247467e+01   7.404927e-21   2.114552e+06   2.409698e-39   0.000000e+00   0.000000e+00
     1016000   1.015999e-05   4.876930e+00   1.563156e+01   4.134427e+01   4.701703e+05   3.110720e+05   2.038015e+06   9.362661e+00  -1.415121e+01   6.420637e-21   2.114552e+06   3.100956e-39   0.000000e+00   0.000000e+00
     1024000   1.023999e-05   4.914544e+00   1.565645e+01   4.150731e+01   4.701703e+05   3.110720e+05   2.038015e+06   4.273628e+00  -6.459383e+00  -1.447308e-20   2.114552e+06   6.459630e-40   0.000000e+00   0.000000e+00
     1032000   1.031999e-05   4.952157e+00   1.568133e+01   4.167036e+01   4.701703e+05   3.110720e+05   2.038015e+06   9.701663e-01  -1.466360e+00  -2.598598e-22   2.114552e+06   3.339923e-41   0.000000e+00   0.000000e+00
     1040000   1.039999e-05   4.989771e+00   1.570622e+01   4.183340e+01   4.701703e+05   3.110720e+05   2.038015e+06  -7.662679e+00   1.158177e+01  -2.064575e-20   2.114552e+06   2.076284e-39   0.000000e+00   0.000000e+00
     1048000   1.047999e-05   5.027385e+00   1.573110e+01   4.199644e+01   4.701703e+05   3.110720e+05   2.038015e+06  -5.591817e+00   8.451762e+00   3.616736e-21   2.114552e+06   1.105531e-39   0.000000e+00   0.000000e+00
     1056000   1.055999e-05   5.064998e+00   1.575599e+01   4.215948e+01   4.701703e+05   3.110720e+05   2.038015e+06  -1.655173e+00   2.501714e+00  -5.045498e-21   2.114552e+06   9.672298e-41   0.000000e+00   0.000000e+00
     1064000   1.063999e-05   5.102612e+00   1.578087e+01   4.232252e+01   4.701703e+05   3.110720e+05   2.038015e+06   1.146891e+00  -1.733470e+00   2.336175e-21   2.114552e+06   4.651604e-41   0.000000e+00   0.000000e+00
     1072000   1.071999e-05   5.140226e+00   1.580576e+01   4.248556e+01   4.701703e+05   3.110720e+05   2.038015e+06   2.625632e-01  -3.968515e-01   5.810822e-22   2.114552e+06   2.491763e-42   0.000000e+00   0.000000e+00
     1080000   1.079999e-05   5.177839e+00   1.583065e+01   4.264860e+01   4.701703e+05   3.110720e+05   2.038015e+06   4.840982e-01  -7.316910e-01  -6.589569e-22   2.114552e+06   8.387969e-42   0.000000e+00   0.000000e+00
     1088000   1.087999e-05   5.215453e+00   1.585553e+01   4.281164e+01   4.701703e+05   3.110720e+05   2.038015e+06   1.580345e+00  -2.388615e+00  -2.346435e-21   2.114552e+06   8.819358e-41   0.000000e+00   0.000000e+00
     1096000   1.095999e-05   5.253066e+00   1.588042e+01   4.297469e+01   4.701703e+05   3.110720e+05   2.038015e+06  -9.953145e+00   1.504370e+01  -6.798806e-21   2.114552e+06   3.502287e-39   0.000000e+00   0.000000e+00
     1104000   1.103999e-05   5.290680e+00   1.590530e+01   4.313773e+01   4.701703e+05   3.110720e+05   2.038015e+06  -9.472434e+00   1.431713e+01  -2.610383e-21   2.114552e+06   3.173078e-39   0.000000e+00   0.000000e+00
     1112000   1.111999e-05   5.328294e+00   1.593019e+01   4.330077e+01   4.701703e+05   3.110720e+05   2.038015e+06   2.678779e+00  -4.048846e+00   6.326603e-21   2.114552e+06   2.532085e-40   0.000000e+00   0.000000e+00
     1120000   1.119999e-05   5.365907e+00   1.595508e+01   4.346381e+01   4.701703e+05   3.110720e+05   2.038015e+06   5.701033e+00  -8.616836e+00   2.859716e-20   2.114552e+06   1.150394e-39   0.000000e+00   0.000000e+00
     1128000   1.127999e-05   5.403521e+00   1.597996e+01   4.362685e+01   4.701703e+05   3.110720e+05   2.038015e+06   6.358893e+00  -9.611160e+00  -1.078360e-21   2.114552e+06   1.430316e-39   0.000000e+00   0.000000e+00
     1136000   1.135999e-05   5.441135e+00   1.600485e+01   4.378989e+01   4.701703e+05   3.110720e+05   2.038015e+06   1.925904e+00  -2.910911e+00  -2.734059e-21   2.114552e+06   1.315404e-40   0.000000e+00   0.000000e+00
     1144000   1.143999e-05   5.478748e+00   1.602973e+01   4.395293e+01   4.701703e+05   3.110720e+05   2.038015e+06  -9.673350e-01   1.462080e+00   1.043921e-21   2.114552e+06   3.294274e-41   0.000000e+00   0.000000e+00
     1152000   1.151999e-05   5.516362e+00   1.605462e+01   4.411597e+01   4.701703e+05   3.110720e+05   2.038015e+06   9.468708e-01  -1.431150e+00  -1.543220e-21   2.114552e+06   3.179348e-41   0.000000e+00   0.000000e+00
     1160000   1.159999e-05   5.553975e+00   1.607950e+01   4.427901e+01   4.701703e+05   3.110720e+05   2.038015e+06   8.532806e+00  -1.289693e+01  -3.214710e-20   2.114552e+06   2.574943e-39   0.000000e+00   0.000000e+00
     1168000   1.167999e-05   5.591589e+00   1.610439e+01   4.444206e+01   4.701703e+05   3.110720e+05   2.038015e+06   5.592759e+00  -8.453185e+00   8.807097e-21   2.114552e+06   1.106909e-39   0.000000e+00   0.000000e+00
     1176000   1.175999e-05   5.629203e+00   1.612928e+01   4.460510e+01   4.701703e+05   3.110720e+05   2.038015e+06   4.020272e+00  -6.076448e+00   4.704103e-21   2.114552e+06   5.721487e-40   0.000000e+00   0.000000e+00
     1184000   1.183999e-05   5.666816e+00   1.615416e+01   4.476814e+01   4.701703e+05   3.110720e+05   2.038015e+06   5.366708e+00  -8.111521e+00  -4.068962e-21   2.114552e+06   1.018672e-39   0.000000e+00   0.000000e+00
     1192000   1.191999e-05   5.704430e+00   1.617905e+01   4.493118e+01   4.701703e+05   3.110720e+05   2.038015e+06  -2.699754e+00   4.080547e+00   2.359096e-21   2.114552e+06   2.576711e-40   0.000000e+00   0.000000e+00
     1200000   1.199999e-05   5.742043e+00   1.620393e+01   4.509422e+01   4.701703e+05   3.110720e+05   2.038015e+06  -1.005947e+00   1.520440e+00   3.507228e-21   2.114552e+06   3.572580e-41   0.000000e+00   0.000000e+00
     1208000   1.207999e-05   5.779657e+00   1.622882e+01   4.525726e+01   4.701703e+05   3.110720e+05   2.038015e+06   4.348173e+00  -6.572054e+00   6.167432e-21   2.114552e+06   6.691865e-40   0.000000e+00   0.000000e+00
     1216000   1.215999e-05   5.817271e+00   1.625370e+01   4.542030e+01   4.701703e+05   3.110720e+05   2.038015e+06   2.644615e+00  -3.997207e+00  -9.931757e-23   2.114552e+06   2.475014e-40   0.000000e+00   0.000000e+00
     1224000   1.223999e-05   5.854884e+00   1.627859e+01   4.558334e+01   4.701703e+05   3.110720e+05   2.038015e+06   1.978571e+00  -2.990514e+00  -5.883034e-21   2.114552e+06   1.385046e-40   0.000000e+00   0.000000e+00
     1232000   1.231999e-05   5.892498e+00   1.630348e+01   4.574639e+01   4.701703e+05   3.110720e+05   2.038015e+06   1.541428e+00  -2.329794e+00   2.767538e-21   2.114552e+06   8.407946e-41   0.000000e+00   0.000000e+00
     1240000   1.239999e-05   5.930112e+00   1.632836e+01   4.590943e+01   4.701703e+05   3.110720e+05   2.038015e+06   7.415544e+00  -1.120824e+01   1.050094e-20   2.114552e+06   1.944946e-39   0.000000e+00   0.000000e+00
     1248000   1.247999e-05   5.967725e+00   1.635325e+01   4.607247e+01   4.701703e+05   3.110720e+05   2.038015e+06   9.498219e+00  -1.435610e+01  -4.737487e-21   2.114552e+06   3.191573e-39   0.000000e+00   0.000000e+00
     1256000   1.255999e-05   6.005339e+00   1.637813e+01   4.623551e+01   4.701703e+05   3.110720e+05   2.038015e+06   6.408155e+00  -9.685617e+00   8.200765e-21   2.114552e+06   1.452899e-39   0.000000e+00   0.000000e+00
     1264000   1.263999e-05   6.042952e+00   1.640302e+01   4.639855e+01   4.701703e+05   3.110720e+05   2.038015e+06   6.439278e+00  -9.732659e+00  -1.522297e-20   2.114552e+06   1.466270e-39   0.000000e+00   0.000000e+00
     1272000   1.271999e-05   6.080566e+00   1.642790e+01   4.656159e+01   4.701703e+05   3.110720e+05   2.038015e+06   5.170575e+00  -7.815075e+00  -1.654411e-20   2.114552e+06   9.453041e-40   0.000000e+00   0.000000e+00
     1280000   1.279999e-05   6.118180e+00   1.645279e+01   4.672463e+01   4.701703e+05   3.110720e+05   2.038015e+06   5.134764e+00  -7.760949e+00  -2.236021e-20   2.114552e+06   9.330322e-40   0.000000e+00   0.000000e+00
     1288000   1.287999e-05   6.155793e+00   1.647768e+01   4.688767e+01   4.701703e+05   3.110720e+05   2.038015e+06   1.129523e+01  -1.707220e+01  -3.149212e-21   2.114552e+06   4.512089e-39   0.000000e+00   0.000000e+00
     1296000   1.295999e-05   6.193407e+00   1.650256e+01   4.705071e+01   4.701703e+05   3.110720e+05   2.038015e+06   1.516291e+01  -2.291800e+01   4.098476e-20   2.114552e+06   8.131406e-39   0.000000e+00   0.000000e+00
     1304000   1.303999e-05   6.231021e+00   1.652745e+01   4.721376e+01   4.701703e+05   3.110720e+05   2.038015e+06   3.202053e+00  -4.839749e+00  -1.376409e-21   2.114552e+06   3.631602e-40   0.000000e+00   0.000000e+00
     1312000   1.311999e-05   6.268634e+00   1.655233e+01   4.737680e+01   4.701703e+05   3.110720e+05   2.038015e+06   8.016914e+00  -1.211718e+01   9.763875e-21   2.114552e+06   2.273268e-39   0.000000e+00   0.000000e+00
     1320000   1.319999e-05   6.306248e+00   1.657722e+01   4.753984e+01   4.701703e+05   3.110720e+05   2.038015e+06   6.606427e+00  -9.985296e+00  -7.011863e-21   2.114552e+06   1.544481e-39   0.000000e+00   0.000000e+00
     1328000   1.327999e-05   6.343861e+00   1.660210e+01   4.770288e+01   4.701703e+05   3.110720e+05   2.038015e+06   5.482588e+00  -8.286667e+00   5.453186e-21   2.114552e+06   1.064179e-39   0.000000e+00   0.000000e+00
     1336000   1.335999e-05   6.381475e+00   1.662699e+01   4.786592e+01   4.701703e+05   3.110720e+05   2.038015e+06   1.330730e+01  -2.011334e+01  -2.226669e-20   2.114552e+06   6.262957e-39   0.000000e+00   0.000000e+00
     1344000   1.343999e-05   6.419089e+00   1.665188e+01   4.802896e+01   4.701703e+05   3.110720e+05   2.038015e+06   1.576186e+00  -2.382328e+00  -1.334106e-21   2.114552e+06   8.811026e-41   0.000000e+00   0.000000e+00
     1352000   1.351999e-05   6.456702e+00   1.667676e+01   4.819200e+01   4.701703e+05   3.110720e+05   2.038015e+06   1.408471e+01  -2.128836e+01  -2.289391e-20   2.114552e+06   7.016384e-39   0.000000e+00   0.000000e+00
     1360000   1.359999e-05   6.494316e+00   1.670165e+01   4.835504e+01   4.701703e+05   3.110720e+05   2.038015e+06  -4.747689e-01   7.175902e-01   2.926919e-21   2.114552e+06   7.946396e-42   0.000000e+00   0.000000e+00
     1368000   1.367999e-05   6.531930e+00   1.672653e+01   4.851809e+01   4.701703e+05   3.110720e+05   2.038015e+06   5.926236e-01  -8.957220e-01  -4.379041e-23   2.114552e+06   1.239556e-41   0.000000e+00   0.000000e+00
     1376000   1.375999e-05   6.569543e+00   1.675142e+01   4.868113e+01   4.701703e+05   3.110720e+05   2.038015e+06   2.838304e+00  -4.289960e+00  -4.422580e-21   2.114552e+06   2.851978e-40   0.000000e+00   0.000000e+00
     1384000   1.383999e-05   6.607157e+00   1.677631e+01   4.884417e+01   4.701703e+05   3.110720e+05   2.038015e+06   2.935987e+00  -4.437603e+00   2.887613e-21   2.114552e+06   3.052142e-40   0.000000e+00   0.000000e+00
     1392000   1.391999e-05   6.644770e+00   1.680119e+01   4.900721e+01   4.701703e+05   3.110720e+05   2.038015e+06   4.453567e+00  -6.731352e+00   2.398780e-21   2.114552e+06   7.016593e-40   0.000000e+00   0.000000e+00
     1400000   1.399999e-05   6.682384e+00   1.682608e+01   4.917025e+01   4.701703e+05   3.110720e+05   2.038015e+06  -5.466940e+00   8.263016e+00  -1.716779e-20   2.114552e+06   1.056763e-39   0.000000e+00   0.000000e+00
     1408000   1.407999e-05   6.719998e+00   1.685096e+01   4.933329e+01   4.701703e+05   3.110720e+05   2.038015e+06   1.557698e-01  -2.354386e-01  -9.195745e-24   2.114552e+06   8.483004e-43   0.000000e+00   0.000000e+00
     1416000   1.415999e-05   6.757611e+00   1.687585e+01   4.949633e+01   4.701703e+05   3.110720e+05   2.038015e+06   3.568691e+00  -5.393904e+00   1.120488e-20   2.114552e+06   4.506537e-40   0.000000e+00   0.000000e+00
     1424000   1.423999e-05   6.795225e+00   1.690073e+01   4.965937e+01   4.701710e+05   3.110703e+05   2.038015e+06   1.295236e+08  -2.943685e+08   1.504947e+07   2.114552e+06   1.115827e-24   0.000000e+00   0.000000e+00
     1432000   1.431999e-05   6.832839e+00   1.692562e+01   4.982241e+01   4.701838e+05   3.110412e+05   2.038016e+06   1.754220e+08  -3.976189e+08   2.021342e+07   2.114552e+06   2.039704e-24   0.000000e+00   0.000000e+00
     1440000   1.439999e-05   6.870454e+00   1.695050e+01   4.998546e+01   4.701876e+05   3.110326e+05   2.038017e+06   0.000000e+00   0.000000e+00   0.000000e+00   2.114552e+06   0.000000e+00   0.000000e+00   0.000000e+00
