     timestep     time              x             y              z              vx             vy             vz             ax             ay             az         v_magnitude      ELoss        Electronic      Nuclear
           0   0.000000e+00   1.000000e-01   1.300484e+01   2.070680e+01   1.561992e+05   2.361485e+05   1.143354e+06   0.000000e+00   0.000000e+00   0.000000e+00   1.177889e+06   0.000000e+00   0.000000e+00   0.000000e+00
        8000   7.999000e-08   1.124959e-01   1.302374e+01   2.079827e+01   1.561971e+05   2.361499e+05   1.143354e+06  -3.606646e+07   2.385552e+07  -1.048299e-14   1.177889e+06   6.248202e-27   0.000000e+00   0.000000e+00
       16000   1.599900e-07   1.249916e-01   1.304263e+01   2.088974e+01   1.561961e+05   2.361505e+05   1.143354e+06   1.326944e+05  -8.776754e+04   6.911164e-18   1.177889e+06   8.065995e-32   0.000000e+00   0.000000e+00
       24000   2.399900e-07   1.374872e-01   1.306152e+01   2.098121e+01   1.561941e+05   2.361519e+05   1.143354e+06  -3.763767e+07   2.489407e+07  -9.749874e-15   1.177889e+06   6.804380e-27   0.000000e+00   0.000000e+00
       32000   3.199900e-07   1.499827e-01   1.308041e+01   2.107268e+01   1.561936e+05   2.361522e+05   1.143354e+06   1.229202e+07  -8.130075e+06  -3.504780e-15   1.177889e+06   7.254791e-28   0.000000e+00   0.000000e+00
       40000   3.999900e-07   1.624781e-01   1.309930e+01   2.116415e+01   1.561922e+05   2.361531e+05   1.143354e+06  -3.920887e+07   2.593283e+07  -1.583387e-14   1.177889e+06   7.384301e-27   0.000000e+00   0.000000e+00
       48000   4.799900e-07   1.749735e-01   1.311820e+01   2.125561e+01   1.561914e+05   2.361536e+05   1.143354e+06  -2.109408e+07   1.395158e+07   3.460295e-15   1.177889e+06   2.137043e-27   0.000000e+00   0.000000e+00
       56000   5.599900e-07   1.874688e-01   1.313709e+01   2.134708e+01   1.561907e+05   2.361541e+05   1.143354e+06   1.174886e+07  -7.770612e+06   1.013928e-14   1.177889e+06   6.627530e-28   0.000000e+00   0.000000e+00
       64000   6.399900e-07   1.999641e-01   1.315598e+01   2.143855e+01   1.561909e+05   2.361540e+05   1.143354e+06  -2.266991e+07   1.499375e+07  -6.176384e-15   1.177889e+06   2.468297e-27   0.000000e+00   0.000000e+00
       72000   7.199900e-07   2.124593e-01   1.317487e+01   2.153002e+01   1.561909e+05   2.361540e+05   1.143354e+06  -4.965851e+06   3.284386e+06  -2.356721e-15   1.177889e+06   1.184310e-28   0.000000e+00   0.000000e+00
       80000   7.999900e-07   2.249546e-01   1.319377e+01   2.162149e+01   1.561905e+05   2.361542e+05   1.143354e+06   1.898906e+06  -1.255921e+06  -9.391162e-16   1.177889e+06   1.730876e-29   0.000000e+00   0.000000e+00
       88000   8.799900e-07   2.374498e-01   1.321266e+01   2.171296e+01   1.561904e+05   2.361543e+05   1.143354e+06  -1.751079e+06   1.158148e+06   3.078922e-16   1.177889e+06   1.474223e-29   0.000000e+00   0.000000e+00
       96000   9.599900e-07   2.499451e-01   1.323155e+01   2.180442e+01   1.561904e+05   2.361543e+05   1.143354e+06  -1.708805e+06   1.130189e+06   1.578424e-16   1.177889e+06   1.401662e-29   0.000000e+00   0.000000e+00
      104000   1.039990e-06   2.624403e-01   1.325044e+01   2.189589e+01   1.561901e+05   2.361545e+05   1.143354e+06  -6.941526e+06   4.591052e+06  -9.783622e-16   1.177889e+06   2.314292e-28   0.000000e+00   0.000000e+00
      112000   1.119990e-06   2.749355e-01   1.326934e+01   2.198736e+01   1.561903e+05   2.361543e+05   1.143354e+06   6.237316e+06  -4.125304e+06   2.946766e-15   1.177889e+06   1.868464e-28   0.000000e+00   0.000000e+00
      120000   1.199990e-06   2.874307e-01   1.328823e+01   2.207883e+01   1.561900e+05   2.361546e+05   1.143354e+06  -7.929001e+06   5.244154e+06  -1.864188e-16   1.177889e+06   3.019640e-28   0.000000e+00   0.000000e+00
      128000   1.279990e-06   2.999259e-01   1.330712e+01   2.217030e+01   1.561899e+05   2.361546e+05   1.143354e+06  -3.680477e+06   2.434225e+06  -1.712114e-15   1.177889e+06   6.504936e-29   0.000000e+00   0.000000e+00
      136000   1.359990e-06   3.124211e-01   1.332601e+01   2.226177e+01   1.561899e+05   2.361546e+05   1.143354e+06  -1.198893e+00   7.929341e-01  -8.545775e-23   1.177889e+06   6.902379e-42   0.000000e+00   0.000000e+00
      144000   1.439990e-06   3.249163e-01   1.334490e+01   2.235323e+01   1.561899e+05   2.361546e+05   1.143354e+06   1.244137e+00  -8.228580e-01   1.391886e-22   1.177889e+06   7.431897e-42   0.000000e+00   0.000000e+00
      152000   1.519990e-06   3.374115e-01   1.336380e+01   2.244470e+01   1.561899e+05   2.361546e+05   1.143354e+06  -9.554090e-01   6.318965e-01   5.709389e-22   1.177889e+06   4.383065e-42   0.000000e+00   0.000000e+00
      160000   1.599990e-06   3.499067e-01   1.338269e+01   2.253617e+01   1.561899e+05   2.361546e+05   1.143354e+06   2.840583e+00  -1.878729e+00   5.764165e-22   1.177889e+06   3.875300e-41   0.000000e+00   0.000000e+00
      168000   1.679990e-06   3.624019e-01   1.340158e+01   2.262764e+01   1.561899e+05   2.361546e+05   1.143354e+06   3.313904e+00  -2.191778e+00   1.685098e-22   1.177889e+06   5.274379e-41   0.000000e+00   0.000000e+00
      176000   1.759990e-06   3.748971e-01   1.342047e+01   2.271911e+01   1.561899e+05   2.361546e+05   1.143354e+06   6.518035e+00  -4.310953e+00  -5.586453e-21   1.177889e+06   2.040870e-40   0.000000e+00   0.000000e+00
      184000   1.839990e-06   3.873923e-01   1.343937e+01   2.281058e+01   1.561899e+05   2.361546e+05   1.143354e+06   6.126088e+00  -4.051724e+00  -4.482423e-22   1.177889e+06   1.802616e-40   0.000000e+00   0.000000e+00
      192000   1.919990e-06   3.998875e-01   1.345826e+01   2.290204e+01   1.561899e+05   2.361546e+05   1.143354e+06   1.062152e+01  -7.024953e+00   2.597007e-21   1.177889e+06   5.419492e-40   0.000000e+00   0.000000e+00
      200000   1.999990e-06   4.123827e-01   1.347715e+01   2.299351e+01   1.561899e+05   2.361546e+05   1.143354e+06  -1.357109e-01   8.975760e-02  -2.285574e-23   1.177889e+06   8.784705e-44   0.000000e+00   0.000000e+00
      208000   2.079990e-06   4.248779e-01   1.349604e+01   2.308498e+01   1.561899e+05   2.361546e+05   1.143354e+06  -3.223533e-02   2.132008e-02   7.822612e-24   1.177889e+06   5.014590e-45   0.000000e+00   0.000000e+00
      216000   2.159990e-06   4.373731e-01   1.351494e+01   2.317645e+01   1.561899e+05   2.361546e+05   1.143354e+06  -3.051491e+00   2.018221e+00   1.099604e-21   1.177889e+06   4.471618e-41   0.000000e+00   0.000000e+00
      224000   2.239990e-06   4.498682e-01   1.353383e+01   2.326792e+01   1.561899e+05   2.361546e+05   1.143354e+06   2.517559e+00  -1.665085e+00   4.617134e-23   1.177889e+06   3.043675e-41   0.000000e+00   0.000000e+00
      232000   2.319990e-06   4.623634e-01   1.355272e+01   2.335939e+01   1.561899e+05   2.361546e+05   1.143354e+06  -5.196150e+00   3.436674e+00   1.377389e-21   1.177889e+06   1.296777e-40   0.000000e+00   0.000000e+00
      240000   2.399990e-06   4.748586e-01   1.357161e+01   2.345085e+01   1.561899e+05   2.361546e+05   1.143354e+06   3.263574e+00  -2.158490e+00  -2.799214e-21   1.177889e+06   5.115174e-41   0.000000e+00   0.000000e+00
      248000   2.479990e-06   4.873538e-01   1.359051e+01   2.354232e+01   1.561899e+05   2.361546e+05   1.143354e+06  -7.340808e+00   4.855126e+00   2.797883e-21   1.177889e+06   2.588305e-40   0.000000e+00   0.000000e+00
      256000   2.559990e-06   4.998490e-01   1.360940e+01   2.363379e+01   1.561899e+05   2.361546e+05   1.143354e+06   2.180685e+00  -1.442280e+00  -1.278302e-21   1.177889e+06   2.284527e-41   0.000000e+00   0.000000e+00
      264000   2.639990e-06   5.123442e-01   1.362829e+01   2.372526e+01   1.561899e+05   2.361546e+05   1.143354e+06   2.999044e+00  -1.983533e+00  -1.696297e-21   1.177889e+06   4.321733e-41   0.000000e+00   0.000000e+00
      272000   2.719990e-06   5.248394e-01   1.364718e+01   2.381673e+01   1.561899e+05   2.361546e+05   1.143354e+06   2.844248e+00  -1.881153e+00  -1.926237e-21   1.177889e+06   3.885493e-41   0.000000e+00   0.000000e+00
      280000   2.799990e-06   5.373346e-01   1.366608e+01   2.390820e+01   1.561899e+05   2.361546e+05   1.143354e+06   1.672206e+00  -1.105978e+00   8.412882e-23   1.177889e+06   1.343858e-41   0.000000e+00   0.000000e+00
      288000   2.879990e-06   5.498298e-01   1.368497e+01   2.399966e+01   1.561899e+05   2.361546e+05   1.143354e+06  -1.159202e+00   7.666827e-01  -8.786560e-23   1.177889e+06   6.451230e-42   0.000000e+00   0.000000e+00
      296000   2.959990e-06   5.623250e-01   1.370386e+01   2.409113e+01   1.561899e+05   2.361546e+05   1.143354e+06   1.728034e+00  -1.142901e+00  -3.302791e-22   1.177889e+06   1.434584e-41   0.000000e+00   0.000000e+00
      304000   3.039990e-06   5.748202e-01   1.372275e+01   2.418260e+01   1.561899e+05   2.361546e+05   1.143354e+06  -3.957270e+00   2.617293e+00   6.558136e-22   1.177889e+06   7.521585e-41   0.000000e+00   0.000000e+00
      312000   3.119990e-06   5.873154e-01   1.374164e+01   2.427407e+01   1.561899e+05   2.361546e+05   1.143354e+06  -1.241832e+00   8.213334e-01  -1.857847e-22   1.177889e+06   7.407488e-42   0.000000e+00   0.000000e+00
      320000   3.199990e-06   5.998106e-01   1.376054e+01   2.436554e+01   1.561899e+05   2.361546e+05   1.143354e+06  -7.234599e+00   4.784881e+00   1.901475e-21   1.177889e+06   2.514082e-40   0.000000e+00   0.000000e+00
      328000   3.279990e-06   6.123058e-01   1.377943e+01   2.445701e+01   1.561899e+05   2.361546e+05   1.143354e+06   2.948947e+00  -1.950400e+00   4.982731e-22   1.177889e+06   4.178310e-41   0.000000e+00   0.000000e+00
      336000   3.359990e-06   6.248010e-01   1.379832e+01   2.454847e+01   1.561899e+05   2.361546e+05   1.143354e+06   5.909704e+00  -3.908610e+00   1.940204e-21   1.177889e+06   1.677259e-40   0.000000e+00   0.000000e+00
      344000   3.439990e-06   6.372962e-01   1.381721e+01   2.463994e+01   1.561899e+05   2.361546e+05   1.143354e+06  -1.296146e-01   8.572561e-02  -6.586014e-23   1.177889e+06   7.944254e-44   0.000000e+00   0.000000e+00
      352000   3.519990e-06   6.497914e-01   1.383611e+01   2.473141e+01   1.561899e+05   2.361546e+05   1.143354e+06  -1.536289e+00   1.016084e+00  -4.370627e-23   1.177889e+06   1.134473e-41   0.000000e+00   0.000000e+00
      360000   3.599990e-06   6.622866e-01   1.385500e+01   2.482288e+01   1.561899e+05   2.361546e+05   1.143354e+06  -5.667916e+00   3.748694e+00   1.865150e-21   1.177889e+06   1.542697e-40   0.000000e+00   0.000000e+00
      368000   3.679990e-06   6.747818e-01   1.387389e+01   2.491435e+01   1.561899e+05   2.361546e+05   1.143354e+06  -4.969096e+00   3.286503e+00   1.527154e-21   1.177889e+06   1.186381e-40   0.000000e+00   0.000000e+00
      376000   3.759990e-06   6.872770e-01   1.389278e+01   2.500582e+01   1.561899e+05   2.361546e+05   1.143354e+06  -1.120622e+01   7.411663e+00   5.527960e-21   1.177889e+06   6.031549e-40   0.000000e+00   0.000000e+00
      384000   3.839990e-06   6.997721e-01   1.391168e+01   2.509728e+01   1.561899e+05   2.361546e+05   1.143354e+06   5.016027e+00  -3.317543e+00  -1.291282e-21   1.177889e+06   1.208210e-40   0.000000e+00   0.000000e+00
      392000   3.919990e-06   7.122673e-01   1.393057e+01   2.518875e+01   1.561899e+05   2.361546e+05   1.143354e+06  -7.032718e-01   4.651359e-01   2.083207e-22   1.177889e+06   2.373179e-42   0.000000e+00   0.000000e+00
      400000   3.999990e-06   7.247625e-01   1.394946e+01   2.528022e+01   1.561899e+05   2.361546e+05   1.143354e+06   9.920253e+00  -6.561141e+00  -1.847235e-21   1.177889e+06   4.726687e-40   0.000000e+00   0.000000e+00
      408000   4.079990e-06   7.372577e-01   1.396835e+01   2.537169e+01   1.561899e+05   2.361546e+05   1.143354e+06   9.777789e-01  -6.466917e-01  -4.955775e-23   1.177889e+06   4.596577e-42   0.000000e+00   0.000000e+00
      416000   4.159990e-06   7.497529e-01   1.398725e+01   2.546316e+01   1.561899e+05   2.361546e+05   1.143354e+06   1.600323e+01  -1.058435e+01   5.010944e-21   1.177889e+06   1.230145e-39   0.000000e+00   0.000000e+00
      424000   4.239990e-06   7.622481e-01   1.400614e+01   2.555463e+01   1.561899e+05   2.361546e+05   1.143354e+06   3.615557e+00  -2.391288e+00   4.108335e-22   1.177889e+06   6.276548e-41   0.000000e+00   0.000000e+00
      432000   4.319990e-06   7.747433e-01   1.402503e+01   2.564609e+01   1.561899e+05   2.361546e+05   1.143354e+06  -6.286456e+00   4.157789e+00  -3.370840e-21   1.177889e+06   1.897550e-40   0.000000e+00   0.000000e+00
      440000   4.399990e-06   7.872385e-01   1.404392e+01   2.573756e+01   1.561899e+05   2.361546e+05   1.143354e+06   7.465094e-01  -4.937327e-01   3.097911e-22   1.177889e+06   2.670534e-42   0.000000e+00   0.000000e+00
      448000   4.479990e-06   7.997337e-01   1.406281e+01   2.582903e+01   1.561899e+05   2.361546e+05   1.143354e+06  -1.291806e+01   8.543859e+00  -1.726641e-21   1.177889e+06   8.014627e-40   0.000000e+00   0.000000e+00
      456000   4.559990e-06   8.122289e-01   1.408171e+01   2.592050e+01   1.561899e+05   2.361546e+05   1.143354e+06   1.252996e+00  -8.287172e-01  -1.719625e-22   1.177889e+06   7.538193e-42   0.000000e+00   0.000000e+00
      464000   4.639990e-06   8.247241e-01   1.410060e+01   2.601197e+01   1.561899e+05   2.361546e+05   1.143354e+06  -3.382445e+00   2.237110e+00  -5.931882e-22   1.177889e+06   5.500286e-41   0.000000e+00   0.000000e+00
      472000   4.719990e-06   8.372193e-01   1.411949e+01   2.610344e+01   1.561899e+05   2.361546e+05   1.143354e+06   4.833673e-01  -3.196936e-01   1.324899e-22   1.177889e+06   1.126509e-42   0.000000e+00   0.000000e+00
      480000   4.799990e-06   8.497145e-01   1.413838e+01   2.619490e+01   1.561899e+05   2.361546e+05   1.143354e+06  -6.602949e+00   4.367115e+00  -2.086825e-21   1.177889e+06   2.093867e-40   0.000000e+00   0.000000e+00
      488000   4.879990e-06   8.622097e-01   1.415728e+01   2.628637e+01   1.561899e+05   2.361546e+05   1.143354e+06   1.199210e+01  -7.931439e+00   9.548931e-21   1.177889e+06   6.906947e-40   0.000000e+00   0.000000e+00
      496000   4.959990e-06   8.747049e-01   1.417617e+01   2.637784e+01   1.561899e+05   2.361546e+05   1.143354e+06  -4.920380e+00   3.254283e+00  -1.456323e-21   1.177889e+06   1.162601e-40   0.000000e+00   0.000000e+00
      504000   5.039990e-06   8.872001e-01   1.419506e+01   2.646931e+01   1.561899e+05   2.361546e+05   1.143354e+06   1.695673e+01  -1.121499e+01   7.931544e-21   1.177889e+06   1.381044e-39   0.000000e+00   0.000000e+00
      512000   5.119990e-06   8.996953e-01   1.421395e+01   2.656078e+01   1.561899e+05   2.361546e+05   1.143354e+06   6.375877e+00  -4.216932e+00  -5.674950e-22   1.177889e+06   1.952777e-40   0.000000e+00   0.000000e+00
      520000   5.199990e-06   9.121905e-01   1.423285e+01   2.665225e+01   1.561899e+05   2.361546e+05   1.143354e+06   3.221919e+00  -2.130940e+00   5.376300e-22   1.177889e+06   4.988692e-41   0.000000e+00   0.000000e+00
      528000   5.279990e-06   9.246857e-01   1.425174e+01   2.674371e+01   1.561899e+05   2.361546e+05   1.143354e+06   2.052673e+00  -1.357614e+00   9.217831e-22   1.177889e+06   2.024026e-41   0.000000e+00   0.000000e+00
      536000   5.359990e-06   9.371809e-01   1.427063e+01   2.683518e+01   1.561899e+05   2.361546e+05   1.143354e+06  -1.745017e+00   1.154134e+00   1.885307e-22   1.177889e+06   1.461772e-41   0.000000e+00   0.000000e+00
      544000   5.439990e-06   9.496761e-01   1.428952e+01   2.692665e+01   1.561899e+05   2.361546e+05   1.143354e+06  -2.430805e+00   1.607706e+00  -2.614429e-22   1.177889e+06   2.838579e-41   0.000000e+00   0.000000e+00
      552000   5.519990e-06   9.621712e-01   1.430842e+01   2.701812e+01   1.561899e+05   2.361546e+05   1.143354e+06  -1.821455e+00   1.204690e+00   4.467644e-22   1.177889e+06   1.593562e-41   0.000000e+00   0.000000e+00
      560000   5.599990e-06   9.746664e-01   1.432731e+01   2.710959e+01   1.561899e+05   2.361546e+05   1.143354e+06   1.386877e+00  -9.172643e-01   1.075603e-21   1.177889e+06   9.237809e-42   0.000000e+00   0.000000e+00
      568000   5.679990e-06   9.871616e-01   1.434620e+01   2.720106e+01   1.561899e+05   2.361546e+05   1.143354e+06  -3.095773e+00   2.047509e+00  -1.244382e-21   1.177889e+06   4.603562e-41   0.000000e+00   0.000000e+00
      576000   5.759990e-06   9.996568e-01   1.436509e+01   2.729252e+01   1.561899e+05   2.361546e+05   1.143354e+06  -4.066587e+00   2.689594e+00   9.983456e-22   1.177889e+06   7.943721e-41   0.000000e+00   0.000000e+00
      584000   5.839990e-06   1.012152e+00   1.438399e+01   2.738399e+01   1.561899e+05   2.361546e+05   1.143354e+06  -8.269403e-01   5.469288e-01  -2.394531e-22   1.177889e+06   3.282905e-42   0.000000e+00   0.000000e+00
      592000   5.919990e-06   1.024647e+00   1.440288e+01   2.747546e+01   1.561899e+05   2.361546e+05   1.143354e+06   1.305246e+00  -8.632749e-01   6.558981e-22   1.177889e+06   8.187748e-42   0.000000e+00   0.000000e+00
      600000   5.999990e-06   1.037142e+00   1.442177e+01   2.756693e+01   1.561899e+05   2.361546e+05   1.143354e+06   1.672086e+00  -1.105898e+00   1.554368e-21   1.177889e+06   1.342780e-41   0.000000e+00   0.000000e+00
      608000   6.079990e-06   1.049638e+00   1.444066e+01   2.765840e+01   1.561899e+05   2.361546e+05   1.143354e+06   4.895631e-01  -3.237914e-01   2.326509e-22   1.177889e+06   1.152691e-42   0.000000e+00   0.000000e+00
      616000   6.159990e-06   1.062133e+00   1.445955e+01   2.774987e+01   1.561899e+05   2.361546e+05   1.143354e+06   1.064692e+00  -7.041753e-01   4.557758e-22   1.177889e+06   5.443495e-42   0.000000e+00   0.000000e+00
      624000   6.239990e-06   1.074628e+00   1.447845e+01   2.784133e+01   1.561899e+05   2.361546e+05   1.143354e+06  -3.261202e-01   2.156922e-01  -4.455800e-23   1.177889e+06   5.100177e-43   0.000000e+00   0.000000e+00
      632000   6.319990e-06   1.087123e+00   1.449734e+01   2.793280e+01   1.561899e+05   2.361546e+05   1.143354e+06   4.572990e-01  -3.024523e-01  -6.644006e-23   1.177889e+06   1.003731e-42   0.000000e+00   0.000000e+00
      640000   6.399990e-06   1.099618e+00   1.451623e+01   2.802427e+01   1.561899e+05   2.361546e+05   1.143354e+06   1.768460e+00  -1.169639e+00   3.908308e-23   1.177889e+06   1.502151e-41   0.000000e+00   0.000000e+00
      648000   6.479990e-06   1.112114e+00   1.453512e+01   2.811574e+01   1.561899e+05   2.361546e+05   1.143354e+06  -1.424176e-01   9.419336e-02   4.236315e-24   1.177889e+06   9.726661e-44   0.000000e+00   0.000000e+00
      656000   6.559990e-06   1.124609e+00   1.455402e+01   2.820721e+01   1.561899e+05   2.361546e+05   1.143354e+06   9.167661e-01  -6.063385e-01   9.842604e-23   1.177889e+06   4.038086e-42   0.000000e+00   0.000000e+00
      664000   6.639990e-06   1.137104e+00   1.457291e+01   2.829868e+01   1.561899e+05   2.361546e+05   1.143354e+06   3.359392e-01  -2.221863e-01   1.003891e-22   1.177889e+06   5.423740e-43   0.000000e+00   0.000000e+00
      672000   6.719990e-06   1.149599e+00   1.459180e+01   2.839014e+01   1.561899e+05   2.361546e+05   1.143354e+06  -3.615913e+00   2.391523e+00  -1.056863e-21   1.177889e+06   6.280525e-41   0.000000e+00   0.000000e+00
      680000   6.799990e-06   1.162094e+00   1.461069e+01   2.848161e+01   1.561899e+05   2.361546e+05   1.143354e+06   1.076287e+00  -7.118440e-01   4.902245e-22   1.177889e+06   5.567232e-42   0.000000e+00   0.000000e+00
      688000   6.879990e-06   1.174590e+00   1.462959e+01   2.857308e+01   1.561899e+05   2.361546e+05   1.143354e+06   8.317733e+00  -5.501253e+00  -3.290717e-21   1.177889e+06   3.323140e-40   0.000000e+00   0.000000e+00
      696000   6.959990e-06   1.187085e+00   1.464848e+01   2.866455e+01   1.561899e+05   2.361546e+05   1.143354e+06   2.069287e+00  -1.368603e+00  -1.358773e-22   1.177889e+06   2.057461e-41   0.000000e+00   0.000000e+00
      704000   7.039990e-06   1.199580e+00   1.466737e+01   2.875602e+01   1.561899e+05   2.361546e+05   1.143354e+06   1.132710e+01  -7.491615e+00   1.918985e-21   1.177889e+06   6.162966e-40   0.000000e+00   0.000000e+00
      712000   7.119990e-06   1.212075e+00   1.468626e+01   2.884749e+01   1.561899e+05   2.361546e+05   1.143354e+06  -1.357520e+00   8.978482e-01  -1.146414e-21   1.177889e+06   8.855878e-42   0.000000e+00   0.000000e+00
      720000   7.199990e-06   1.224570e+00   1.470516e+01   2.893895e+01   1.561899e+05   2.361546e+05   1.143354e+06  -3.548491e+00   2.346931e+00  -2.059282e-21   1.177889e+06   6.051983e-41   0.000000e+00   0.000000e+00
      728000   7.279990e-06   1.237066e+00   1.472405e+01   2.903042e+01   1.561899e+05   2.361546e+05   1.143354e+06  -1.272660e+00   8.417229e-01   4.366806e-23   1.177889e+06   7.778571e-42   0.000000e+00   0.000000e+00
      736000   7.359990e-06   1.249561e+00   1.474294e+01   2.912189e+01   1.561899e+05   2.361546e+05   1.143354e+06   3.195341e+00  -2.113361e+00  -3.900241e-22   1.177889e+06   4.902065e-41   0.000000e+00   0.000000e+00
      744000   7.439990e-06   1.262056e+00   1.476183e+01   2.921336e+01   1.561899e+05   2.361546e+05   1.143354e+06   3.705193e+00  -2.450572e+00  -1.573217e-21   1.177889e+06   6.595547e-41   0.000000e+00   0.000000e+00
      752000   7.519990e-06   1.274551e+00   1.478072e+01   2.930483e+01   1.561899e+05   2.361546e+05   1.143354e+06   9.939172e+00  -6.573654e+00   9.263590e-21   1.177889e+06   4.744729e-40   0.000000e+00   0.000000e+00
      760000   7.599990e-06   1.287046e+00   1.479962e+01   2.939630e+01   1.561899e+05   2.361546e+05   1.143354e+06   1.714688e+01  -1.134075e+01   8.350614e-21   1.177889e+06   1.412259e-39   0.000000e+00   0.000000e+00
      768000   7.679990e-06   1.299542e+00   1.481851e+01   2.948776e+01   1.561899e+05   2.361546e+05   1.143354e+06  -6.660184e-01   4.404969e-01  -8.467334e-23   1.177889e+06   2.131510e-42   0.000000e+00   0.000000e+00
      776000   7.759990e-06   1.312037e+00   1.483740e+01   2.957923e+01   1.561899e+05   2.361546e+05   1.143354e+06  -2.656758e+00   1.757149e+00   1.833310e-22   1.177889e+06   3.390262e-41   0.000000e+00   0.000000e+00
      784000   7.839990e-06   1.324532e+00   1.485629e+01   2.967070e+01   1.561899e+05   2.361546e+05   1.143354e+06   1.666326e+00  -1.102089e+00   2.082727e-22   1.177889e+06   1.333495e-41   0.000000e+00   0.000000e+00
      792000   7.919990e-06   1.337027e+00   1.487519e+01   2.976217e+01   1.561899e+05   2.361546e+05   1.143354e+06  -1.634243e+01   2.513263e+01  -2.958544e+00   1.177889e+06   3.031667e-39   0.000000e+00   0.000000e+00
      800000   7.999990e-06   1.349522e+00   1.489408e+01   2.985364e+01   1.561899e+05   2.361546e+05   1.143354e+06   3.008028e+01  -5.458468e+01   7.165046e+00   1.177889e+06   1.314936e-38   0.000000e+00   0.000000e+00
      808000   8.079990e-06   1.362017e+00   1.491297e+01   2.994511e+01   1.561899e+05   2.361546e+05   1.143354e+06  -4.784011e-01   5.221676e+00  -1.013161e+00   1.177889e+06   9.525655e-41   0.000000e+00   0.000000e+00
      816000   8.159990e-06   1.374513e+00   1.493186e+01   3.003657e+01   1.561899e+05   2.361546e+05   1.143354e+06  -3.516948e+00   1.249578e+00   2.223442e-01   1.177889e+06   4.673251e-41   0.000000e+00   0.000000e+00
      824000   8.239990e-06   1.387008e+00   1.495076e+01   3.012804e+01   1.561899e+05   2.361546e+05   1.143354e+06   4.162851e+00  -5.123772e+00   4.896180e-01   1.177889e+06   1.463840e-40   0.000000e+00   0.000000e+00
      832000   8.319990e-06   1.399503e+00   1.496965e+01   3.021951e+01   1.561899e+05   2.361546e+05   1.143354e+06  -3.193100e+00   2.111880e+00  -8.731729e-22   1.177889e+06   4.895689e-41   0.000000e+00   0.000000e+00
      840000   8.399990e-06   1.411998e+00   1.498854e+01   3.031098e+01   1.561899e+05   2.361546e+05   1.143354e+06   1.766071e+00  -1.168059e+00   3.762894e-22   1.177889e+06   1.498153e-41   0.000000e+00   0.000000e+00
      848000   8.479990e-06   1.424493e+00   1.500743e+01   3.040245e+01   1.561899e+05   2.361546e+05   1.143354e+06   1.802272e+00  -1.192002e+00  -2.245032e-22   1.177889e+06   1.561010e-41   0.000000e+00   0.000000e+00
      856000   8.559990e-06   1.436989e+00   1.502633e+01   3.049392e+01   1.561899e+05   2.361546e+05   1.143354e+06  -1.104678e+00   7.306213e-01   3.929022e-22   1.177889e+06   5.858350e-42   0.000000e+00   0.000000e+00
      864000   8.639990e-06   1.449484e+00   1.504522e+01   3.058538e+01   1.561899e+05   2.361546e+05   1.143354e+06   1.008057e+00  -6.667175e-01  -2.077074e-22   1.177889e+06   4.880178e-42   0.000000e+00   0.000000e+00
      872000   8.719990e-06   1.461979e+00   1.506411e+01   3.067685e+01   1.561899e+05   2.361546e+05   1.143354e+06  -3.225822e+00   2.133522e+00   1.157646e-21   1.177889e+06   4.997729e-41   0.000000e+00   0.000000e+00
      880000   8.799990e-06   1.474474e+00   1.508300e+01   3.076832e+01   1.561899e+05   2.361546e+05   1.143354e+06  -3.724042e-01   2.463038e-01  -1.796077e-22   1.177889e+06   6.667388e-43   0.000000e+00   0.000000e+00
      888000   8.879990e-06   1.486969e+00   1.510190e+01   3.085979e+01   1.561899e+05   2.361546e+05   1.143354e+06   1.081834e+00  -7.155125e-01  -1.578779e-23   1.177889e+06   5.621235e-42   0.000000e+00   0.000000e+00
      896000   8.959990e-06   1.499465e+00   1.512079e+01   3.095126e+01   1.561899e+05   2.361546e+05   1.143354e+06   1.946534e+00  -1.287415e+00   9.512773e-22   1.177889e+06   1.820271e-41   0.000000e+00   0.000000e+00
      904000   9.039990e-06   1.511960e+00   1.513968e+01   3.104273e+01   1.561899e+05   2.361546e+05   1.143354e+06   4.065046e-01  -2.688574e-01  -1.918658e-23   1.177889e+06   7.933148e-43   0.000000e+00   0.000000e+00
      912000   9.119990e-06   1.524455e+00   1.515857e+01   3.113419e+01   1.561899e+05   2.361546e+05   1.143354e+06   1.212170e-01  -8.017156e-02   2.951865e-23   1.177889e+06   7.084678e-44   0.000000e+00   0.000000e+00
      920000   9.199990e-06   1.536950e+00   1.517746e+01   3.122566e+01   1.561899e+05   2.361546e+05   1.143354e+06  -4.541896e-01   3.003958e-01   5.633610e-23   1.177889e+06   9.915401e-43   0.000000e+00   0.000000e+00
      928000   9.279990e-06   1.549445e+00   1.519636e+01   3.131713e+01   1.561899e+05   2.361546e+05   1.143354e+06  -5.414337e-01   3.580980e-01  -7.717439e-23   1.177889e+06   1.407087e-42   0.000000e+00   0.000000e+00
      936000   9.359990e-06   1.561941e+00   1.521525e+01   3.140860e+01   1.561899e+05   2.361546e+05   1.143354e+06  -2.550602e+00   1.686939e+00  -3.944542e-22   1.177889e+06   3.125583e-41   0.000000e+00   0.000000e+00
      944000   9.439990e-06   1.574436e+00   1.523414e+01   3.150007e+01   1.561899e+05   2.361546e+05   1.143354e+06  -4.416137e+00   2.920782e+00  -5.837475e-22   1.177889e+06   9.367453e-41   0.000000e+00   0.000000e+00
      952000   9.519990e-06   1.586931e+00   1.525303e+01   3.159154e+01   1.561899e+05   2.361546e+05   1.143354e+06  -6.579899e+00   4.351870e+00   3.059845e-21   1.177889e+06   2.079661e-40   0.000000e+00   0.000000e+00
      960000   9.599990e-06   1.599426e+00   1.527193e+01   3.168300e+01   1.561899e+05   2.361546e+05   1.143354e+06  -1.310969e+00   8.670599e-01  -7.681323e-22   1.177889e+06   8.258165e-42   0.000000e+00   0.000000e+00
      968000   9.679990e-06   1.611921e+00   1.529082e+01   3.177447e+01   1.561899e+05   2.361546e+05   1.143354e+06  -1.846537e+00   1.221278e+00   5.061973e-22   1.177889e+06   1.638440e-41   0.000000e+00   0.000000e+00
      976000   9.759990e-06   1.624417e+00   1.530971e+01   3.186594e+01   1.561899e+05   2.361546e+05   1.143354e+06  -1.749508e+00   1.157105e+00   1.930698e-22   1.177889e+06   1.470145e-41   0.000000e+00   0.000000e+00
      984000   9.839990e-06   1.636912e+00   1.532860e+01   3.195741e+01   1.561899e+05   2.361546e+05   1.143354e+06   2.766901e+00  -1.829996e+00  -4.231329e-22   1.177889e+06   3.676357e-41   0.000000e+00   0.000000e+00
      992000   9.919990e-06   1.649407e+00   1.534750e+01   3.204888e+01   1.561899e+05   2.361546e+05   1.143354e+06   1.875838e-01  -1.240658e-01  -1.084365e-23   1.177889e+06   1.692606e-43   0.000000e+00   0.000000e+00
     1000000   9.999990e-06   1.661902e+00   1.536639e+01   3.214035e+01   1.561899e+05   2.361546e+05   1.143354e+06   6.952129e+00  -4.598058e+00   1.158004e-21   1.177889e+06   2.321464e-40   0.000000e+00   0.000000e+00
     1008000   1.007999e-05   1.674397e+00   1.538528e+01   3.223181e+01   1.561899e+05   2.361546e+05   1.143354e+06   2.124676e+00  -1.405236e+00   6.213020e-22   1.177889e+06   2.168832e-41   0.000000e+00   0.000000e+00
     1016000   1.015999e-05   1.686893e+00   1.540417e+01   3.232328e+01   1.561899e+05   2.361546e+05   1.143354e+06  -3.001664e+00   1.985266e+00  -4.992121e-22   1.177889e+06   4.326944e-41   0.000000e+00   0.000000e+00
     1024000   1.023999e-05   1.699388e+00   1.542307e+01   3.241475e+01   1.561899e+05   2.361546e+05   1.143354e+06  -2.798849e+00   1.851127e+00   4.687193e-22   1.177889e+06   3.763504e-41   0.000000e+00   0.000000e+00
     1032000   1.031999e-05   1.711883e+00   1.544196e+01   3.250622e+01   1.561899e+05   2.361546e+05   1.143354e+06  -3.506555e+00   2.319195e+00   1.013424e-21   1.177889e+06   5.906756e-41   0.000000e+00   0.000000e+00
     1040000   1.039999e-05   1.724378e+00   1.546085e+01   3.259769e+01   1.561899e+05   2.361546e+05   1.143354e+06  -3.572108e+00   2.362551e+00  -1.678110e-21   1.177889e+06   6.129668e-41   0.000000e+00   0.000000e+00
     1048000   1.047999e-05   1.736873e+00   1.547974e+01   3.268916e+01   1.561899e+05   2.361546e+05   1.143354e+06  -1.845271e+00   1.220441e+00   2.903217e-23   1.177889e+06   1.635788e-41   0.000000e+00   0.000000e+00
     1056000   1.055999e-05   1.749369e+00   1.549863e+01   3.278062e+01   1.561899e+05   2.361546e+05   1.143354e+06  -3.966568e+00   2.623442e+00  -1.494916e-21   1.177889e+06   7.558187e-41   0.000000e+00   0.000000e+00
     1064000   1.063999e-05   1.761864e+00   1.551753e+01   3.287209e+01   1.561899e+05   2.361546e+05   1.143354e+06  -1.434840e+00   9.489869e-01   6.413495e-22   1.177889e+06   9.889322e-42   0.000000e+00   0.000000e+00
     1072000   1.071999e-05   1.774359e+00   1.553642e+01   3.296356e+01   1.561899e+05   2.361546e+05   1.143354e+06   2.065607e+00  -1.366169e+00   8.581908e-22   1.177889e+06   2.049130e-41   0.000000e+00   0.000000e+00
     1080000   1.079999e-05   1.786854e+00   1.555531e+01   3.305503e+01   1.561899e+05   2.361546e+05   1.143354e+06   2.339935e-01  -1.547606e-01   8.927875e-23   1.177889e+06   2.631378e-43   0.000000e+00   0.000000e+00
     1088000   1.087999e-05   1.799349e+00   1.557420e+01   3.314650e+01   1.561899e+05   2.361546e+05   1.143354e+06   3.998492e+00  -2.644557e+00  -1.339341e-21   1.177889e+06   7.679314e-41   0.000000e+00   0.000000e+00
     1096000   1.095999e-05   1.811845e+00   1.559310e+01   3.323797e+01   1.561899e+05   2.361546e+05   1.143354e+06   2.128486e-01  -1.407756e-01  -6.084788e-23   1.177889e+06   2.171833e-43   0.000000e+00   0.000000e+00
     1104000   1.103999e-05   1.824340e+00   1.561199e+01   3.332943e+01   1.561899e+05   2.361546e+05   1.143354e+06  -8.527617e-01   5.640068e-01  -1.233762e-22   1.177889e+06   3.493498e-42   0.000000e+00   0.000000e+00
     1112000   1.111999e-05   1.836835e+00   1.563088e+01   3.342090e+01   1.561899e+05   2.361546e+05   1.143354e+06  -2.148621e-01   1.421074e-01   1.251324e-22   1.177889e+06   2.217303e-43   0.000000e+00   0.000000e+00
     1120000   1.119999e-05   1.849330e+00   1.564977e+01   3.351237e+01   1.561899e+05   2.361546e+05   1.143354e+06  -1.263533e+00   8.356863e-01  -2.372724e-22   1.177889e+06   7.669614e-42   0.000000e+00   0.000000e+00
     1128000   1.127999e-05   1.861825e+00   1.566867e+01   3.360384e+01   1.561899e+05   2.361546e+05   1.143354e+06   1.048585e-01  -6.935220e-02  -2.375455e-23   1.177889e+06   5.284086e-44   0.000000e+00   0.000000e+00
     1136000   1.135999e-05   1.874320e+00   1.568756e+01   3.369531e+01   1.561899e+05   2.361546e+05   1.143354e+06  -6.225060e-02   4.117183e-02  -7.536219e-24   1.177889e+06   1.860310e-44   0.000000e+00   0.000000e+00
     1144000   1.143999e-05   1.886816e+00   1.570645e+01   3.378678e+01   1.561899e+05   2.361546e+05   1.143354e+06   1.483665e+00  -9.812792e-01  -2.353605e-22   1.177889e+06   1.057178e-41   0.000000e+00   0.000000e+00
     1152000   1.151999e-05   1.899311e+00   1.572534e+01   3.387824e+01   1.561899e+05   2.361546e+05   1.143354e+06   2.523499e+00  -1.669013e+00  -2.952259e-22   1.177889e+06   3.059226e-41   0.000000e+00   0.000000e+00
     1160000   1.159999e-05   1.911806e+00   1.574424e+01   3.396971e+01   1.561899e+05   2.361546e+05   1.143354e+06   2.889912e+00  -1.911355e+00  -6.683992e-22   1.177889e+06   4.011244e-41   0.000000e+00   0.000000e+00
     1168000   1.167999e-05   1.924301e+00   1.576313e+01   3.406118e+01   1.561899e+05   2.361546e+05   1.143354e+06  -1.616860e+00   1.069372e+00  -1.026393e-21   1.177889e+06   1.255125e-41   0.000000e+00   0.000000e+00
     1176000   1.175999e-05   1.936796e+00   1.578202e+01   3.415265e+01   1.561899e+05   2.361546e+05   1.143354e+06   2.377542e+00  -1.572479e+00  -3.512830e-22   1.177889e+06   2.714871e-41   0.000000e+00   0.000000e+00
     1184000   1.183999e-05   1.949292e+00   1.580091e+01   3.424412e+01   1.561899e+05   2.361546e+05   1.143354e+06   1.956962e+00  -1.294312e+00   3.466817e-22   1.177889e+06   1.839645e-41   0.000000e+00   0.000000e+00
     1192000   1.191999e-05   1.961787e+00   1.581981e+01   3.433559e+01   1.561899e+05   2.361546e+05   1.143354e+06  -6.471291e-01   4.280037e-01  -2.960043e-22   1.177889e+06   2.009492e-42   0.000000e+00   0.000000e+00
     1200000   1.199999e-05   1.974282e+00   1.583870e+01   3.442705e+01   1.561899e+05   2.361546e+05   1.143354e+06   6.378335e-01  -4.218558e-01  -3.466979e-23   1.177889e+06   1.954074e-42   0.000000e+00   0.000000e+00
     1208000   1.207999e-05   1.986777e+00   1.585759e+01   3.451852e+01   1.561899e+05   2.361546e+05   1.143354e+06  -4.367178e+00   2.888401e+00  -7.379455e-22   1.177889e+06   9.160510e-41   0.000000e+00   0.000000e+00
     1216000   1.215999e-05   1.999272e+00   1.587648e+01   3.460999e+01   1.561899e+05   2.361546e+05   1.143354e+06  -6.812951e-01   4.506007e-01  -4.177513e-22   1.177889e+06   2.230075e-42   0.000000e+00   0.000000e+00
     1224000   1.223999e-05   2.011768e+00   1.589537e+01   3.470146e+01   1.561899e+05   2.361546e+05   1.143354e+06   5.897061e-01  -3.900248e-01  -2.393450e-22   1.177889e+06   1.670177e-42   0.000000e+00   0.000000e+00
     1232000   1.231999e-05   2.024263e+00   1.591427e+01   3.479293e+01   1.561899e+05   2.361546e+05   1.143354e+06  -3.508827e+00   2.320698e+00  -1.608174e-21   1.177889e+06   5.912983e-41   0.000000e+00   0.000000e+00
     1240000   1.239999e-05   2.036758e+00   1.593316e+01   3.488440e+01   1.561899e+05   2.361546e+05   1.143354e+06  -3.784120e-01   2.502773e-01  -6.153523e-24   1.177889e+06   6.893201e-43   0.000000e+00   0.000000e+00
     1248000   1.247999e-05   2.049253e+00   1.595205e+01   3.497586e+01   1.561899e+05   2.361546e+05   1.143354e+06  -3.585264e+00   2.371252e+00   9.626813e-23   1.177889e+06   6.173438e-41   0.000000e+00   0.000000e+00
     1256000   1.255999e-05   2.061748e+00   1.597094e+01   3.506733e+01   1.561899e+05   2.361546e+05   1.143354e+06  -9.359592e-01   6.190327e-01  -3.466213e-22   1.177889e+06   4.211804e-42   0.000000e+00   0.000000e+00
     1264000   1.263999e-05   2.074244e+00   1.598984e+01   3.515880e+01   1.561899e+05   2.361546e+05   1.143354e+06  -3.661700e+00   2.421806e+00  -1.647201e-21   1.177889e+06   6.439507e-41   0.000000e+00   0.000000e+00
     1272000   1.271999e-05   2.086739e+00   1.600873e+01   3.525027e+01   1.561899e+05   2.361546e+05   1.143354e+06   3.205393e+00  -2.120010e+00   7.926405e-22   1.177889e+06   4.934973e-41   0.000000e+00   0.000000e+00
     1280000   1.279999e-05   2.099234e+00   1.602762e+01   3.534174e+01   1.561899e+05   2.361546e+05   1.143354e+06  -4.295219e+00   2.840809e+00  -6.052102e-22   1.177889e+06   8.860674e-41   0.000000e+00   0.000000e+00
     1288000   1.287999e-05   2.111729e+00   1.604651e+01   3.543321e+01   1.561899e+05   2.361546e+05   1.143354e+06  -3.190960e+00   2.110464e+00  -5.474956e-22   1.177889e+06   4.888939e-41   0.000000e+00   0.000000e+00
     1296000   1.295999e-05   2.124224e+00   1.606541e+01   3.552467e+01   1.561899e+05   2.361546e+05   1.143354e+06  -8.814313e-01   5.829685e-01  -1.314143e-22   1.177889e+06   3.736924e-42   0.000000e+00   0.000000e+00
     1304000   1.303999e-05   2.136720e+00   1.608430e+01   3.561614e+01   1.561899e+05   2.361546e+05   1.143354e+06  -6.608181e+00   4.370575e+00  -4.986121e-21   1.177889e+06   2.097242e-40   0.000000e+00   0.000000e+00
     1312000   1.311999e-05   2.149215e+00   1.610319e+01   3.570761e+01   1.561899e+05   2.361546e+05   1.143354e+06  -3.215936e+00   2.126983e+00  -1.999096e-21   1.177889e+06   4.967637e-41   0.000000e+00   0.000000e+00
     1320000   1.319999e-05   2.161710e+00   1.612208e+01   3.579908e+01   1.561899e+05   2.361546e+05   1.143354e+06  -4.838347e+00   3.200027e+00  -1.123555e-21   1.177889e+06   1.124469e-40   0.000000e+00   0.000000e+00
     1328000   1.327999e-05   2.174205e+00   1.614098e+01   3.589055e+01   1.561899e+05   2.361546e+05   1.143354e+06   2.614274e+00  -1.729051e+00   1.127459e-21   1.177889e+06   3.281898e-41   0.000000e+00   0.000000e+00
     1336000   1.335999e-05   2.186700e+00   1.615987e+01   3.598202e+01   1.561899e+05   2.361546e+05   1.143354e+06  -3.568059e+00   2.359873e+00  -3.421533e-22   1.177889e+06   6.115110e-41   0.000000e+00   0.000000e+00
     1344000   1.343999e-05   2.199196e+00   1.617876e+01   3.607348e+01   1.561899e+05   2.361546e+05   1.143354e+06   6.134584e+00  -4.057344e+00  -1.214485e-21   1.177889e+06   1.807544e-40   0.000000e+00   0.000000e+00
     1352000   1.351999e-05   2.211691e+00   1.619765e+01   3.616495e+01   1.561899e+05   2.361546e+05   1.143354e+06   6.453937e-01  -4.268560e-01   1.986731e-22   1.177889e+06   1.999678e-42   0.000000e+00   0.000000e+00
     1360000   1.359999e-05   2.224186e+00   1.621654e+01   3.625642e+01   1.561899e+05   2.361546e+05   1.143354e+06  -1.621660e+00   1.072548e+00  -8.021024e-22   1.177889e+06   1.263625e-41   0.000000e+00   0.000000e+00
     1368000   1.367999e-05   2.236681e+00   1.623544e+01   3.634789e+01   1.561899e+05   2.361546e+05   1.143354e+06  -3.398980e+00   2.248046e+00   5.514465e-22   1.177889e+06   5.548621e-41   0.000000e+00   0.000000e+00
     1376000   1.375999e-05   2.249176e+00   1.625433e+01   3.643936e+01   1.561899e+05   2.361546e+05   1.143354e+06  -2.899904e+00   1.917963e+00   2.864094e-22   1.177889e+06   4.040339e-41   0.000000e+00   0.000000e+00
     1384000   1.383999e-05   2.261672e+00   1.627322e+01   3.653083e+01   1.561899e+05   2.361546e+05   1.143354e+06  -5.243565e+00   3.468034e+00  -2.521307e-21   1.177889e+06   1.320618e-40   0.000000e+00   0.000000e+00
     1392000   1.391999e-05   2.274167e+00   1.629211e+01   3.662229e+01   1.561899e+05   2.361546e+05   1.143354e+06  -4.178148e+00   2.763379e+00  -1.518543e-21   1.177889e+06   8.386862e-41   0.000000e+00   0.000000e+00
     1400000   1.399999e-05   2.286662e+00   1.631101e+01   3.671376e+01   1.561899e+05   2.361546e+05   1.143354e+06  -2.582708e+00   1.708173e+00  -1.210924e-21   1.177889e+06   3.205085e-41   0.000000e+00   0.000000e+00
     1408000   1.407999e-05   2.299157e+00   1.632990e+01   3.680523e+01   1.561899e+05   2.361546e+05   1.143354e+06   6.916810e-01  -4.574698e-01   4.035925e-22   1.177889e+06   2.298468e-42   0.000000e+00   0.000000e+00
     1416000   1.415999e-05   2.311652e+00   1.634879e+01   3.689670e+01   1.561899e+05   2.361546e+05   1.143354e+06  -3.664040e+00   2.423354e+00  -1.025085e-21   1.177889e+06   6.447990e-41   0.000000e+00   0.000000e+00
     1424000   1.423999e-05   2.324148e+00   1.636768e+01   3.698817e+01   1.561899e+05   2.361546e+05   1.143354e+06   8.401369e-01  -5.556569e-01   4.925323e-22   1.177889e+06   3.387604e-42   0.000000e+00   0.000000e+00
     1432000   1.431999e-05   2.336643e+00   1.638658e+01   3.707964e+01   1.561899e+05   2.361546e+05   1.143354e+06  -3.759349e+00   2.486390e+00  -1.383322e-22   1.177889e+06   6.787839e-41   0.000000e+00   0.000000e+00
     1440000   1.439999e-05   2.349138e+00   1.640547e+01   3.717110e+01   1.561899e+05   2.361546e+05   1.143354e+06  -1.959340e+00   1.295885e+00  -1.439303e-22   1.177889e+06   1.844105e-41   0.000000e+00   0.000000e+00
     1448000   1.447999e-05   2.361633e+00   1.642436e+01   3.726257e+01   1.561899e+05   2.361546e+05   1.143354e+06  -5.805616e-01   3.839768e-01  -1.884680e-22   1.177889e+06   1.619356e-42   0.000000e+00   0.000000e+00
     1456000   1.455999e-05   2.374128e+00   1.644325e+01   3.735404e+01   1.561899e+05   2.361546e+05   1.143354e+06  -2.666343e+00   1.763489e+00  -4.812320e-22   1.177889e+06   3.415107e-41   0.000000e+00   0.000000e+00
     1464000   1.463999e-05   2.386623e+00   1.646215e+01   3.744551e+01   1.561899e+05   2.361546e+05   1.143354e+06  -1.339843e-01   8.861569e-02   1.113392e-22   1.177889e+06   8.628586e-44   0.000000e+00   0.000000e+00
     1472000   1.471999e-05   2.399119e+00   1.648104e+01   3.753698e+01   1.561899e+05   2.361546e+05   1.143354e+06  -3.373346e+00   2.231092e+00   3.279425e-22   1.177889e+06   5.466354e-41   0.000000e+00   0.000000e+00
     1480000   1.479999e-05   2.411614e+00   1.649993e+01   3.762845e+01   1.561899e+05   2.361546e+05   1.143354e+06   3.749408e-01  -2.479815e-01  -2.636682e-23   1.177889e+06   6.763543e-43   0.000000e+00   0.000000e+00
     1488000   1.487999e-05   2.424109e+00   1.651882e+01   3.771991e+01   1.561899e+05   2.361546e+05   1.143354e+06  -3.399745e-01   2.248552e-01   1.093601e-22   1.177889e+06   5.550921e-43   0.000000e+00   0.000000e+00
     1496000   1.495999e-05   2.436604e+00   1.653772e+01   3.781138e+01   1.561899e+05   2.361546e+05   1.143354e+06  -4.664853e-01   3.085280e-01   2.570170e-22   1.177889e+06   1.044586e-42   0.000000e+00   0.000000e+00
     1504000   1.503999e-05   2.449099e+00   1.655661e+01   3.790285e+01   1.561899e+05   2.361546e+05   1.143354e+06  -2.230205e+00   1.475032e+00   1.446834e-22   1.177889e+06   2.389249e-41   0.000000e+00   0.000000e+00
     1512000   1.511999e-05   2.461595e+00   1.657550e+01   3.799432e+01   1.561899e+05   2.361546e+05   1.143354e+06  -2.597643e+00   1.718051e+00   5.532905e-22   1.177889e+06   3.241405e-41   0.000000e+00   0.000000e+00
     1520000   1.519999e-05   2.474090e+00   1.659439e+01   3.808579e+01   1.561899e+05   2.361546e+05   1.143354e+06  -3.452211e+00   2.283253e+00  -2.830519e-22   1.177889e+06   5.724546e-41   0.000000e+00   0.000000e+00
     1528000   1.527999e-05   2.486585e+00   1.661328e+01   3.817726e+01   1.561899e+05   2.361546e+05   1.143354e+06  -2.172975e+00   1.437181e+00   4.191977e-22   1.177889e+06   2.267966e-41   0.000000e+00   0.000000e+00
     1536000   1.535999e-05   2.499080e+00   1.663218e+01   3.826872e+01   1.561899e+05   2.361546e+05   1.143354e+06  -3.906823e+00   2.583928e+00   1.443256e-21   1.177889e+06   7.332172e-41   0.000000e+00   0.000000e+00
     1544000   1.543999e-05   2.511575e+00   1.665107e+01   3.836019e+01   1.561899e+05   2.361546e+05   1.143354e+06  -4.210157e+00   2.784550e+00   1.152016e-21   1.177889e+06   8.513696e-41   0.000000e+00   0.000000e+00
     1552000   1.551999e-05   2.524071e+00   1.666996e+01   3.845166e+01   1.561899e+05   2.361546e+05   1.143354e+06  -1.400904e+00   9.265421e-01  -4.119572e-22   1.177889e+06   9.431131e-42   0.000000e+00   0.000000e+00
     1560000   1.559999e-05   2.536566e+00   1.668885e+01   3.854313e+01   1.561899e+05   2.361546e+05   1.143354e+06  -5.493396e+00   3.633269e+00   2.470140e-21   1.177889e+06   1.449503e-40   0.000000e+00   0.000000e+00
     1568000   1.567999e-05   2.549061e+00   1.670775e+01   3.863460e+01   1.561899e+05   2.361546e+05   1.143354e+06  -2.164567e+00   1.431620e+00   7.342515e-22   1.177889e+06   2.250046e-41   0.000000e+00   0.000000e+00
     1576000   1.575999e-05   2.561556e+00   1.672664e+01   3.872607e+01   1.561899e+05   2.361546e+05   1.143354e+06  -3.960489e+00   2.619422e+00   4.568821e-22   1.177889e+06   7.536039e-41   0.000000e+00   0.000000e+00
     1584000   1.583999e-05   2.574051e+00   1.674553e+01   3.881753e+01   1.561899e+05   2.361546e+05   1.143354e+06  -3.149432e+00   2.082998e+00  -8.244730e-22   1.177889e+06   4.763846e-41   0.000000e+00   0.000000e+00
     1592000   1.591999e-05   2.586547e+00   1.676442e+01   3.890900e+01   1.561899e+05   2.361546e+05   1.143354e+06  -4.497836e+00   2.974817e+00  -3.242975e-22   1.177889e+06   9.719549e-41   0.000000e+00   0.000000e+00
     1600000   1.599999e-05   2.599042e+00   1.678332e+01   3.900047e+01   1.561899e+05   2.361546e+05   1.143354e+06  -4.134297e+00   2.734377e+00  -1.247785e-21   1.177889e+06   8.209555e-41   0.000000e+00   0.000000e+00
     1608000   1.607999e-05   2.611537e+00   1.680221e+01   3.909194e+01   1.561899e+05   2.361546e+05   1.143354e+06   2.981342e-02  -1.971825e-02  -2.676991e-23   1.177889e+06   4.173998e-45   0.000000e+00   0.000000e+00
     1616000   1.615999e-05   2.624032e+00   1.682110e+01   3.918341e+01   1.561899e+05   2.361546e+05   1.143354e+06  -4.553772e+00   3.011813e+00   8.369051e-22   1.177889e+06   9.959192e-41   0.000000e+00   0.000000e+00
     1624000   1.623999e-05   2.636527e+00   1.683999e+01   3.927488e+01   1.561899e+05   2.361546e+05   1.143354e+06  -1.366004e+00   9.034596e-01   4.102026e-22   1.177889e+06   8.968254e-42   0.000000e+00   0.000000e+00
     1632000   1.631999e-05   2.649023e+00   1.685889e+01   3.936634e+01   1.561899e+05   2.361546e+05   1.143354e+06  -6.855891e+00   4.534407e+00  -3.052986e-21   1.177889e+06   2.257593e-40   0.000000e+00   0.000000e+00
     1640000   1.639999e-05   2.661518e+00   1.687778e+01   3.945781e+01   1.561899e+05   2.361546e+05   1.143354e+06  -2.761822e+00   1.826637e+00  -1.026886e-21   1.177889e+06   3.665110e-41   0.000000e+00   0.000000e+00
     1648000   1.647999e-05   2.674013e+00   1.689667e+01   3.954928e+01   1.561899e+05   2.361546e+05   1.143354e+06  -9.158009e+00   6.057002e+00   3.349958e-21   1.177889e+06   4.028450e-40   0.000000e+00   0.000000e+00
     1656000   1.655999e-05   2.686508e+00   1.691556e+01   3.964075e+01   1.561899e+05   2.361546e+05   1.143354e+06  -7.008660e+00   4.635447e+00   2.199599e-22   1.177889e+06   2.359744e-40   0.000000e+00   0.000000e+00
     1664000   1.663999e-05   2.699003e+00   1.693445e+01   3.973222e+01   1.561899e+05   2.361546e+05   1.143354e+06  -2.400055e+00   1.587368e+00   1.732024e-21   1.177889e+06   2.767017e-41   0.000000e+00   0.000000e+00
     1672000   1.671999e-05   2.711499e+00   1.695335e+01   3.982369e+01   1.561899e+05   2.361546e+05   1.143354e+06  -6.885954e-01   4.554291e-01  -3.650448e-22   1.177889e+06   2.283695e-42   0.000000e+00   0.000000e+00
     1680000   1.679999e-05   2.723994e+00   1.697224e+01   3.991515e+01   1.561899e+05   2.361546e+05   1.143354e+06  -1.582071e+00   1.046363e+00  -7.527142e-22   1.177889e+06   1.201651e-41   0.000000e+00   0.000000e+00
     1688000   1.687999e-05   2.736489e+00   1.699113e+01   4.000662e+01   1.561899e+05   2.361546e+05   1.143354e+06   3.690227e+00  -2.440674e+00   9.130863e-22   1.177889e+06   6.538630e-41   0.000000e+00   0.000000e+00
     1696000   1.695999e-05   2.748984e+00   1.701002e+01   4.009809e+01   1.561899e+05   2.361546e+05   1.143354e+06  -6.412669e+00   4.241265e+00   1.823085e-21   1.177889e+06   1.974996e-40   0.000000e+00   0.000000e+00
     1704000   1.703999e-05   2.761479e+00   1.702892e+01   4.018956e+01   1.561899e+05   2.361546e+05   1.143354e+06  -5.299498e+00   3.505027e+00  -3.258833e-22   1.177889e+06   1.349172e-40   0.000000e+00   0.000000e+00
     1712000   1.711999e-05   2.773975e+00   1.704781e+01   4.028103e+01   1.561899e+05   2.361546e+05   1.143354e+06  -1.272463e+01   8.415923e+00   4.404804e-21   1.177889e+06   7.777302e-40   0.000000e+00   0.000000e+00
     1720000   1.719999e-05   2.786470e+00   1.706670e+01   4.037250e+01   1.561899e+05   2.361546e+05   1.143354e+06  -1.013642e+01   6.704110e+00   2.771997e-21   1.177889e+06   4.935862e-40   0.000000e+00   0.000000e+00
     1728000   1.727999e-05   2.798965e+00   1.708559e+01   4.046396e+01   1.561899e+05   2.361546e+05   1.143354e+06  -1.903659e+01   1.259058e+01   2.108685e-21   1.177889e+06   1.740740e-39   0.000000e+00   0.000000e+00
     1736000   1.735999e-05   2.811460e+00   1.710449e+01   4.055543e+01   1.561899e+05   2.361546e+05   1.143354e+06  -3.919762e+00   2.592486e+00  -1.491693e-21   1.177889e+06   7.381965e-41   0.000000e+00   0.000000e+00
     1744000   1.743999e-05   2.823955e+00   1.712338e+01   4.064690e+01   1.561899e+05   2.361546e+05   1.143354e+06  -2.715936e+00   1.796289e+00  -4.938854e-22   1.177889e+06   3.543733e-41   0.000000e+00   0.000000e+00
     1752000   1.751999e-05   2.836451e+00   1.714227e+01   4.073837e+01   1.561899e+05   2.361546e+05   1.143354e+06  -6.305732e-01   4.170539e-01  -7.673112e-23   1.177889e+06   1.911840e-42   0.000000e+00   0.000000e+00
     1760000   1.759999e-05   2.848946e+00   1.716116e+01   4.082984e+01   1.561899e+05   2.361546e+05   1.143354e+06   1.429481e-01  -9.454421e-02   4.622105e-23   1.177889e+06   9.802460e-44   0.000000e+00   0.000000e+00
     1768000   1.767999e-05   2.861441e+00   1.718006e+01   4.092131e+01   1.561899e+05   2.361546e+05   1.143354e+06   2.658616e+00  -1.758378e+00  -9.479054e-22   1.177889e+06   3.394753e-41   0.000000e+00   0.000000e+00
     1776000   1.775999e-05   2.873936e+00   1.719895e+01   4.101277e+01   1.561899e+05   2.361546e+05   1.143354e+06   3.001832e+00  -1.985377e+00  -9.973705e-22   1.177889e+06   4.328460e-41   0.000000e+00   0.000000e+00
     1784000   1.783999e-05   2.886431e+00   1.721784e+01   4.110424e+01   1.561899e+05   2.361546e+05   1.143354e+06  -6.085308e+00   4.024752e+00  -1.669834e-21   1.177889e+06   1.778773e-40   0.000000e+00   0.000000e+00
     1792000   1.791999e-05   2.898926e+00   1.723673e+01   4.119571e+01   1.561899e+05   2.361546e+05   1.143354e+06  -8.000723e+00   5.291586e+00  -2.261223e-21   1.177889e+06   3.074837e-40   0.000000e+00   0.000000e+00
     1800000   1.799999e-05   2.911422e+00   1.725563e+01   4.128718e+01   1.561899e+05   2.361546e+05   1.143354e+06  -1.908324e+00   1.262143e+00   9.054397e-22   1.177889e+06   1.749767e-41   0.000000e+00   0.000000e+00
     1808000   1.807999e-05   2.923917e+00   1.727452e+01   4.137865e+01   1.561899e+05   2.361546e+05   1.143354e+06  -4.534628e+00   2.999150e+00  -1.529512e-21   1.177889e+06   9.878115e-41   0.000000e+00   0.000000e+00
     1816000   1.815999e-05   2.936412e+00   1.729341e+01   4.147012e+01   1.561899e+05   2.361546e+05   1.143354e+06   1.254032e+00  -8.294021e-01   2.188550e-22   1.177889e+06   7.552231e-42   0.000000e+00   0.000000e+00
     1824000   1.823999e-05   2.948907e+00   1.731230e+01   4.156158e+01   1.561899e+05   2.361546e+05   1.143354e+06  -1.144990e+00   7.572831e-01   4.861287e-22   1.177889e+06   6.301734e-42   0.000000e+00   0.000000e+00
     1832000   1.831999e-05   2.961402e+00   1.733119e+01   4.165305e+01   1.561899e+05   2.361546e+05   1.143354e+06  -6.368357e+00   4.211958e+00  -1.576852e-21   1.177889e+06   1.947921e-40   0.000000e+00   0.000000e+00
     1840000   1.839999e-05   2.973898e+00   1.735009e+01   4.174452e+01   1.561899e+05   2.361546e+05   1.143354e+06  -1.921462e+00   1.270833e+00   8.463238e-22   1.177889e+06   1.774241e-41   0.000000e+00   0.000000e+00
     1848000   1.847999e-05   2.986393e+00   1.736898e+01   4.183599e+01   1.561899e+05   2.361546e+05   1.143354e+06  -8.551799e+00   5.656062e+00  -1.979505e-21   1.177889e+06   3.512774e-40   0.000000e+00   0.000000e+00
     1856000   1.855999e-05   2.998888e+00   1.738787e+01   4.192746e+01   1.561899e+05   2.361546e+05   1.143354e+06  -2.697935e+00   1.784383e+00   4.261447e-23   1.177889e+06   3.497566e-41   0.000000e+00   0.000000e+00
     1864000   1.863999e-05   3.011383e+00   1.740676e+01   4.201893e+01   1.561899e+05   2.361546e+05   1.143354e+06  -4.414971e+00   2.920011e+00   8.671846e-22   1.177889e+06   9.364685e-41   0.000000e+00   0.000000e+00
     1872000   1.871999e-05   3.023878e+00   1.742566e+01   4.211039e+01   1.561899e+05   2.361546e+05   1.143354e+06  -4.292913e+00   2.839283e+00  -1.622311e-21   1.177889e+06   8.852438e-41   0.000000e+00   0.000000e+00
     1880000   1.879999e-05   3.036374e+00   1.744455e+01   4.220186e+01   1.561899e+05   2.361546e+05   1.143354e+06  -2.928458e+00   1.936848e+00  -1.652754e-21   1.177889e+06   4.120404e-41   0.000000e+00   0.000000e+00
     1888000   1.887999e-05   3.048869e+00   1.746344e+01   4.229333e+01   1.561899e+05   2.361546e+05   1.143354e+06  -9.840882e-01   6.508646e-01   5.352163e-22   1.177889e+06   4.654492e-42   0.000000e+00   0.000000e+00
     1896000   1.895999e-05   3.061364e+00   1.748233e+01   4.238480e+01   1.561899e+05   2.361546e+05   1.143354e+06  -5.567327e+00   3.682166e+00  -5.935445e-22   1.177889e+06   1.488879e-40   0.000000e+00   0.000000e+00
     1904000   1.903999e-05   3.073859e+00   1.750123e+01   4.247627e+01   1.561899e+05   2.361546e+05   1.143354e+06  -6.167590e+00   4.079173e+00  -1.044830e-21   1.177889e+06   1.827208e-40   0.000000e+00   0.000000e+00
     1912000   1.911999e-05   3.086354e+00   1.752012e+01   4.256774e+01   1.561899e+05   2.361546e+05   1.143354e+06  -2.038802e+00   1.348440e+00   1.935348e-22   1.177889e+06   1.997195e-41   0.000000e+00   0.000000e+00
     1920000   1.919999e-05   3.098850e+00   1.753901e+01   4.265920e+01   1.561899e+05   2.361546e+05   1.143354e+06  -6.829655e+00   4.517055e+00   2.532176e-21   1.177889e+06   2.240565e-40   0.000000e+00   0.000000e+00
     1928000   1.927999e-05   3.111345e+00   1.755790e+01   4.275067e+01   1.561899e+05   2.361546e+05   1.143354e+06  -7.332732e+00   4.849784e+00  -1.256293e-21   1.177889e+06   2.582646e-40   0.000000e+00   0.000000e+00
     1936000   1.935999e-05   3.123840e+00   1.757680e+01   4.284214e+01   1.561899e+05   2.361546e+05   1.143354e+06  -7.523226e+00   4.975775e+00   8.914767e-22   1.177889e+06   2.719116e-40   0.000000e+00   0.000000e+00
     1944000   1.943999e-05   3.136335e+00   1.759569e+01   4.293361e+01   1.561899e+05   2.361546e+05   1.143354e+06  -8.961425e+00   5.926984e+00  -4.228672e-21   1.177889e+06   3.857428e-40   0.000000e+00   0.000000e+00
     1952000   1.951999e-05   3.148830e+00   1.761458e+01   4.302508e+01   1.561899e+05   2.361546e+05   1.143354e+06  -7.852809e+00   5.193758e+00   1.296743e-21   1.177889e+06   2.962661e-40   0.000000e+00   0.000000e+00
     1960000   1.959999e-05   3.161326e+00   1.763347e+01   4.311655e+01   1.561899e+05   2.361546e+05   1.143354e+06  -6.269790e+00   4.146767e+00   6.518728e-22   1.177889e+06   1.888340e-40   0.000000e+00   0.000000e+00
     1968000   1.967999e-05   3.173821e+00   1.765236e+01   4.320801e+01   1.561899e+05   2.361546e+05   1.143354e+06  -6.090814e+00   4.028394e+00   6.185861e-23   1.177889e+06   1.782357e-40   0.000000e+00   0.000000e+00
     1976000   1.975999e-05   3.186316e+00   1.767126e+01   4.329948e+01   1.561899e+05   2.361546e+05   1.143354e+06  -3.041445e+00   2.011577e+00  -1.827268e-21   1.177889e+06   4.444865e-41   0.000000e+00   0.000000e+00
     1984000   1.983999e-05   3.198811e+00   1.769015e+01   4.339095e+01   1.561899e+05   2.361546e+05   1.143354e+06  -4.612148e+00   3.050421e+00  -2.029187e-23   1.177889e+06   1.021822e-40   0.000000e+00   0.000000e+00
     1992000   1.991999e-05   3.211306e+00   1.770904e+01   4.348242e+01   1.561899e+05   2.361546e+05   1.143354e+06  -5.398413e+00   3.570448e+00   1.442091e-21   1.177889e+06   1.399724e-40   0.000000e+00   0.000000e+00
     2000000   1.999999e-05   3.223802e+00   1.772793e+01   4.357389e+01   1.561899e+05   2.361546e+05   1.143354e+06  -3.341248e+00   2.209863e+00   8.001250e-22   1.177889e+06   5.363964e-41   0.000000e+00   0.000000e+00
     2008000   2.007999e-05   3.236297e+00   1.774683e+01   4.366536e+01   1.561899e+05   2.361546e+05   1.143354e+06  -7.757750e+00   5.130887e+00  -2.246626e-21   1.177889e+06   2.890719e-40   0.000000e+00   0.000000e+00
     2016000   2.015999e-05   3.248792e+00   1.776572e+01   4.375682e+01   1.561899e+05   2.361546e+05   1.143354e+06  -4.048320e+00   2.677512e+00   5.236775e-22   1.177889e+06   7.874161e-41   0.000000e+00   0.000000e+00
     2024000   2.023999e-05   3.261287e+00   1.778461e+01   4.384829e+01   1.561899e+05   2.361546e+05   1.143354e+06  -1.011709e+01   6.691325e+00  -5.986967e-21   1.177889e+06   4.916525e-40   0.000000e+00   0.000000e+00
     2032000   2.031999e-05   3.273782e+00   1.780350e+01   4.393976e+01   1.561899e+05   2.361546e+05   1.143354e+06  -7.677385e+00   5.077734e+00  -8.621916e-22   1.177889e+06   2.830965e-40   0.000000e+00   0.000000e+00
     2040000   2.039999e-05   3.286278e+00   1.782240e+01   4.403123e+01   1.561899e+05   2.361546e+05   1.143354e+06  -8.615248e+00   5.698026e+00   1.589690e-21   1.177889e+06   3.565876e-40   0.000000e+00   0.000000e+00
     2048000   2.047999e-05   3.298773e+00   1.784129e+01   4.412270e+01   1.561899e+05   2.361546e+05   1.143354e+06  -1.082670e+01   7.160655e+00   4.540857e-21   1.177889e+06   5.630202e-40   0.000000e+00   0.000000e+00
     2056000   2.055999e-05   3.311268e+00   1.786018e+01   4.421417e+01   1.561899e+05   2.361546e+05   1.143354e+06  -4.178456e+00   2.763583e+00  -1.856975e-21   1.177889e+06   8.390102e-41   0.000000e+00   0.000000e+00
     2064000   2.063999e-05   3.323763e+00   1.787907e+01   4.430563e+01   1.561899e+05   2.361546e+05   1.143354e+06  -7.486691e+00   4.951611e+00  -7.302469e-21   1.177889e+06   2.692327e-40   0.000000e+00   0.000000e+00
     2072000   2.071999e-05   3.336258e+00   1.789797e+01   4.439710e+01   1.561899e+05   2.361546e+05   1.143354e+06  -1.036603e+01   6.855970e+00  -2.628651e-21   1.177889e+06   5.161597e-40   0.000000e+00   0.000000e+00
     2080000   2.079999e-05   3.348754e+00   1.791686e+01   4.448857e+01   1.561899e+05   2.361546e+05   1.143354e+06  -1.183951e+01   7.830515e+00  -1.383166e-21   1.177889e+06   6.732730e-40   0.000000e+00   0.000000e+00
     2088000   2.087999e-05   3.361249e+00   1.793575e+01   4.458004e+01   1.561899e+05   2.361546e+05   1.143354e+06  -4.705622e+00   3.112244e+00   1.345977e-21   1.177889e+06   1.063987e-40   0.000000e+00   0.000000e+00
     2096000   2.095999e-05   3.373744e+00   1.795464e+01   4.467151e+01   1.561899e+05   2.361546e+05   1.143354e+06  -1.479078e+01   9.782449e+00  -1.386471e-21   1.177889e+06   1.050797e-39   0.000000e+00   0.000000e+00
     2104000   2.103999e-05   3.386239e+00   1.797354e+01   4.476298e+01   1.561899e+05   2.361546e+05   1.143354e+06  -6.369979e+00   4.213031e+00  -1.015656e-21   1.177889e+06   1.949615e-40   0.000000e+00   0.000000e+00
     2112000   2.111999e-05   3.398734e+00   1.799243e+01   4.485444e+01   1.561899e+05   2.361546e+05   1.143354e+06  -1.774204e+01   1.173438e+01  -6.113541e-21   1.177889e+06   1.512004e-39   0.000000e+00   0.000000e+00
     2120000   2.119999e-05   3.411229e+00   1.801132e+01   4.494591e+01   1.561899e+05   2.361546e+05   1.143354e+06  -3.787624e+00   2.505091e+00  -6.786472e-22   1.177889e+06   6.889967e-41   0.000000e+00   0.000000e+00
     2128000   2.127999e-05   3.423725e+00   1.803021e+01   4.503738e+01   1.561899e+05   2.361546e+05   1.143354e+06  -3.112152e+00   2.058341e+00   1.104396e-21   1.177889e+06   4.653585e-41   0.000000e+00   0.000000e+00
     2136000   2.135999e-05   3.436220e+00   1.804910e+01   4.512885e+01   1.561899e+05   2.361546e+05   1.143354e+06  -6.420331e+00   4.246333e+00  -2.015618e-21   1.177889e+06   1.979893e-40   0.000000e+00   0.000000e+00
     2144000   2.143999e-05   3.448715e+00   1.806800e+01   4.522032e+01   1.561899e+05   2.361546e+05   1.143354e+06  -3.517671e+00   2.326547e+00  -8.272924e-22   1.177889e+06   5.945216e-41   0.000000e+00   0.000000e+00
     2152000   2.151999e-05   3.461210e+00   1.808689e+01   4.531179e+01   1.561899e+05   2.361546e+05   1.143354e+06  -9.053037e+00   5.987575e+00   4.885954e-23   1.177889e+06   3.936714e-40   0.000000e+00   0.000000e+00
     2160000   2.159999e-05   3.473705e+00   1.810578e+01   4.540325e+01   1.561899e+05   2.361546e+05   1.143354e+06  -7.956713e+00   5.262479e+00  -3.868148e-21   1.177889e+06   3.040913e-40   0.000000e+00   0.000000e+00
     2168000   2.167999e-05   3.486201e+00   1.812467e+01   4.549472e+01   1.561899e+05   2.361546e+05   1.143354e+06  -1.185264e+01   7.839197e+00  -7.292179e-21   1.177889e+06   6.748138e-40   0.000000e+00   0.000000e+00
     2176000   2.175999e-05   3.498696e+00   1.814357e+01   4.558619e+01   1.561899e+05   2.361546e+05   1.143354e+06  -8.801540e+00   5.821237e+00  -4.182958e-21   1.177889e+06   3.721607e-40   0.000000e+00   0.000000e+00
     2184000   2.183999e-05   3.511191e+00   1.816246e+01   4.567766e+01   1.561899e+05   2.361546e+05   1.143354e+06  -1.247371e+01   8.249969e+00   4.063291e-21   1.177889e+06   7.474135e-40   0.000000e+00   0.000000e+00
     2192000   2.191999e-05   3.523686e+00   1.818135e+01   4.576913e+01   1.561899e+05   2.361546e+05   1.143354e+06  -5.490702e+00   3.631487e+00  -3.833919e-21   1.177889e+06   1.448470e-40   0.000000e+00   0.000000e+00
     2200000   2.199999e-05   3.536181e+00   1.820024e+01   4.586060e+01   1.561899e+05   2.361546e+05   1.143354e+06  -8.863524e+00   5.862233e+00   5.642876e-21   1.177889e+06   3.774493e-40   0.000000e+00   0.000000e+00
     2208000   2.207999e-05   3.548677e+00   1.821914e+01   4.595206e+01   1.561899e+05   2.361546e+05   1.143354e+06  -8.887401e+00   5.878024e+00  -1.571174e-21   1.177889e+06   3.793985e-40   0.000000e+00   0.000000e+00
     2216000   2.215999e-05   3.561172e+00   1.823803e+01   4.604353e+01   1.561899e+05   2.361546e+05   1.143354e+06  -8.677455e+00   5.739169e+00   4.799038e-21   1.177889e+06   3.617693e-40   0.000000e+00   0.000000e+00
     2224000   2.223999e-05   3.573667e+00   1.825692e+01   4.613500e+01   1.561899e+05   2.361546e+05   1.143354e+06  -7.069370e+00   4.675600e+00   5.197889e-21   1.177889e+06   2.400471e-40   0.000000e+00   0.000000e+00
     2232000   2.231999e-05   3.586162e+00   1.827581e+01   4.622647e+01   1.561899e+05   2.361546e+05   1.143354e+06  -8.491387e+00   5.616105e+00  -5.724865e-22   1.177889e+06   3.464220e-40   0.000000e+00   0.000000e+00
     2240000   2.239999e-05   3.598657e+00   1.829471e+01   4.631794e+01   1.561899e+05   2.361546e+05   1.143354e+06  -5.251340e+00   3.473176e+00   2.846289e-21   1.177889e+06   1.324513e-40   0.000000e+00   0.000000e+00
     2248000   2.247999e-05   3.611153e+00   1.831360e+01   4.640941e+01   1.561899e+05   2.361546e+05   1.143354e+06  -4.622338e+00   3.057161e+00   2.640450e-21   1.177889e+06   1.026021e-40   0.000000e+00   0.000000e+00
     2256000   2.255999e-05   3.623648e+00   1.833249e+01   4.650087e+01   1.561899e+05   2.361546e+05   1.143354e+06  -8.196797e+00   5.421267e+00  -1.119704e-21   1.177889e+06   3.227676e-40   0.000000e+00   0.000000e+00
     2264000   2.263999e-05   3.636143e+00   1.835138e+01   4.659234e+01   1.561899e+05   2.361546e+05   1.143354e+06  -7.300441e+00   4.828428e+00   1.253783e-21   1.177889e+06   2.560361e-40   0.000000e+00   0.000000e+00
     2272000   2.271999e-05   3.648638e+00   1.837027e+01   4.668381e+01   1.561899e+05   2.361546e+05   1.143354e+06  -1.826236e+01   1.207851e+01   4.421145e-21   1.177889e+06   1.602005e-39   0.000000e+00   0.000000e+00
     2280000   2.279999e-05   3.661133e+00   1.838917e+01   4.677528e+01   1.561899e+05   2.361546e+05   1.143354e+06  -1.191101e+01   7.877804e+00  -9.950046e-22   1.177889e+06   6.815456e-40   0.000000e+00   0.000000e+00
     2288000   2.287999e-05   3.673629e+00   1.840806e+01   4.686675e+01   1.561899e+05   2.361546e+05   1.143354e+06  -7.143056e+00   4.724335e+00  -5.035486e-22   1.177889e+06   2.451535e-40   0.000000e+00   0.000000e+00
     2296000   2.295999e-05   3.686124e+00   1.842695e+01   4.695822e+01   1.561899e+05   2.361546e+05   1.143354e+06  -9.035874e+00   5.976223e+00   2.918815e-21   1.177889e+06   3.922064e-40   0.000000e+00   0.000000e+00
     2304000   2.303999e-05   3.698619e+00   1.844584e+01   4.704968e+01   1.561899e+05   2.361546e+05   1.143354e+06  -2.720598e+00   1.799372e+00   8.308558e-22   1.177889e+06   3.557369e-41   0.000000e+00   0.000000e+00
     2312000   2.311999e-05   3.711114e+00   1.846474e+01   4.714115e+01   1.561899e+05   2.361546e+05   1.143354e+06  -6.120211e+00   4.047837e+00   1.215102e-21   1.177889e+06   1.799429e-40   0.000000e+00   0.000000e+00
     2320000   2.319999e-05   3.723609e+00   1.848363e+01   4.723262e+01   1.561899e+05   2.361546e+05   1.143354e+06  -7.200408e+00   4.762267e+00   4.148540e-21   1.177889e+06   2.490613e-40   0.000000e+00   0.000000e+00
     2328000   2.327999e-05   3.736105e+00   1.850252e+01   4.732409e+01   1.561899e+05   2.361546e+05   1.143354e+06  -8.966149e+00   5.930108e+00   4.345063e-21   1.177889e+06   3.861370e-40   0.000000e+00   0.000000e+00
     2336000   2.335999e-05   3.748600e+00   1.852141e+01   4.741556e+01   1.561899e+05   2.361546e+05   1.143354e+06  -9.044711e+00   5.982068e+00  -4.592419e-22   1.177889e+06   3.930051e-40   0.000000e+00   0.000000e+00
     2344000   2.343999e-05   3.761095e+00   1.854031e+01   4.750703e+01   1.561899e+05   2.361546e+05   1.143354e+06  -1.338310e+01   8.851429e+00  -5.587192e-22   1.177889e+06   8.603256e-40   0.000000e+00   0.000000e+00
     2352000   2.351999e-05   3.773590e+00   1.855920e+01   4.759849e+01   1.561899e+05   2.361546e+05   1.143354e+06  -1.835354e+01   1.213882e+01  -4.754884e-21   1.177889e+06   1.618080e-39   0.000000e+00   0.000000e+00
     2360000   2.359999e-05   3.786085e+00   1.857809e+01   4.768996e+01   1.561899e+05   2.361546e+05   1.143354e+06  -9.798147e+00   6.480382e+00   4.559918e-22   1.177889e+06   4.612063e-40   0.000000e+00   0.000000e+00
     2368000   2.367999e-05   3.798581e+00   1.859698e+01   4.778143e+01   1.561899e+05   2.361546e+05   1.143354e+06  -2.277049e+01   1.506014e+01  -5.482703e-21   1.177889e+06   2.490639e-39   0.000000e+00   0.000000e+00
     2376000   2.375999e-05   3.811076e+00   1.861588e+01   4.787290e+01   1.561899e+05   2.361546e+05   1.143354e+06  -7.195983e+00   4.759340e+00   2.534440e-21   1.177889e+06   2.487195e-40   0.000000e+00   0.000000e+00
     2384000   2.383999e-05   3.823571e+00   1.863477e+01   4.796437e+01   1.561899e+05   2.361546e+05   1.143354e+06  -7.813117e+00   5.167505e+00   1.134875e-21   1.177889e+06   2.932515e-40   0.000000e+00   0.000000e+00
     2392000   2.391999e-05   3.836066e+00   1.865366e+01   4.805584e+01   1.561899e+05   2.361546e+05   1.143354e+06  -1.109665e+01   7.339199e+00   4.853080e-21   1.177889e+06   5.914730e-40   0.000000e+00   0.000000e+00
     2400000   2.399999e-05   3.848561e+00   1.867255e+01   4.814730e+01   1.561899e+05   2.361546e+05   1.143354e+06  -1.158416e+01   7.661629e+00  -4.390183e-21   1.177889e+06   6.446441e-40   0.000000e+00   0.000000e+00
     2408000   2.407999e-05   3.861057e+00   1.869145e+01   4.823877e+01   1.561899e+05   2.361546e+05   1.143354e+06  -1.499733e+01   9.919059e+00   1.158098e-22   1.177889e+06   1.080410e-39   0.000000e+00   0.000000e+00
     2416000   2.415999e-05   3.873552e+00   1.871034e+01   4.833024e+01   1.561899e+05   2.361546e+05   1.143354e+06  -8.807643e+00   5.825273e+00   3.007625e-21   1.177889e+06   3.726641e-40   0.000000e+00   0.000000e+00
     2424000   2.423999e-05   3.886047e+00   1.872923e+01   4.842171e+01   1.561899e+05   2.361546e+05   1.143354e+06  -4.751727e+00   3.142737e+00  -1.896380e-22   1.177889e+06   1.084785e-40   0.000000e+00   0.000000e+00
     2432000   2.431999e-05   3.898542e+00   1.874812e+01   4.851318e+01   1.561899e+05   2.361546e+05   1.143354e+06  -6.156411e+00   4.071779e+00   1.674206e-21   1.177889e+06   1.820778e-40   0.000000e+00   0.000000e+00
     2440000   2.439999e-05   3.911037e+00   1.876701e+01   4.860465e+01   1.561899e+05   2.361546e+05   1.143354e+06  -9.137259e+00   6.043278e+00   4.466497e-21   1.177889e+06   4.010195e-40   0.000000e+00   0.000000e+00
     2448000   2.447999e-05   3.923532e+00   1.878591e+01   4.869611e+01   1.561899e+05   2.361546e+05   1.143354e+06  -1.385844e+01   9.165814e+00  -1.070942e-20   1.177889e+06   9.225323e-40   0.000000e+00   0.000000e+00
     2456000   2.455999e-05   3.936028e+00   1.880480e+01   4.878758e+01   1.561899e+05   2.361546e+05   1.143354e+06  -1.106855e+01   7.320614e+00  -1.832293e-21   1.177889e+06   5.885346e-40   0.000000e+00   0.000000e+00
     2464000   2.463999e-05   3.948523e+00   1.882369e+01   4.887905e+01   1.561899e+05   2.361546e+05   1.143354e+06  -9.408362e+00   6.222583e+00   1.918661e-21   1.177889e+06   4.252287e-40   0.000000e+00   0.000000e+00
     2472000   2.471999e-05   3.961018e+00   1.884258e+01   4.897052e+01   1.561899e+05   2.361546e+05   1.143354e+06  -1.126581e+01   7.451078e+00  -3.693006e-21   1.177889e+06   6.096987e-40   0.000000e+00   0.000000e+00
     2480000   2.479999e-05   3.973513e+00   1.886148e+01   4.906199e+01   1.561899e+05   2.361546e+05   1.143354e+06  -8.260091e+00   5.463129e+00   1.380460e-21   1.177889e+06   3.277667e-40   0.000000e+00   0.000000e+00
     2488000   2.487999e-05   3.986008e+00   1.888037e+01   4.915346e+01   1.561899e+05   2.361546e+05   1.143354e+06  -1.146307e+01   7.581542e+00  -9.650447e-22   1.177889e+06   6.312366e-40   0.000000e+00   0.000000e+00
     2496000   2.495999e-05   3.998504e+00   1.889926e+01   4.924492e+01   1.561899e+05   2.361546e+05   1.143354e+06  -7.111819e+00   4.703675e+00  -1.414979e-21   1.177889e+06   2.429727e-40   0.000000e+00   0.000000e+00
     2504000   2.503999e-05   4.010999e+00   1.891815e+01   4.933639e+01   1.561899e+05   2.361546e+05   1.143354e+06  -1.099935e+01   7.274840e+00  -3.349348e-21   1.177889e+06   5.811978e-40   0.000000e+00   0.000000e+00
     2512000   2.511999e-05   4.023494e+00   1.893705e+01   4.942786e+01   1.561899e+05   2.361546e+05   1.143354e+06  -9.360901e+00   6.191192e+00  -1.964634e-21   1.177889e+06   4.209623e-40   0.000000e+00   0.000000e+00
     2520000   2.519999e-05   4.035989e+00   1.895594e+01   4.951933e+01   1.561900e+05   2.361546e+05   1.143354e+06   1.714097e+06  -5.970798e+06   9.990837e+05   1.177889e+06   1.321408e-28   0.000000e+00   0.000000e+00
     2528000   2.527999e-05   4.048484e+00   1.897483e+01   4.961080e+01   1.561903e+05   2.361533e+05   1.143354e+06  -1.361573e+05   4.742611e+05  -7.935585e+04   1.177889e+06   8.556644e-31   0.000000e+00   0.000000e+00
     2536000   2.535999e-05   4.060980e+00   1.899372e+01   4.970227e+01   1.561910e+05   2.361510e+05   1.143355e+06   8.222544e+07  -2.891773e+08   4.849469e+07   1.177889e+06   3.098722e-25   0.000000e+00   0.000000e+00
     2544000   2.543999e-05   4.073475e+00   1.901261e+01   4.979373e+01   1.561959e+05   2.361336e+05   1.143358e+06   4.858109e+07  -1.719610e+08   2.887776e+07   1.177889e+06   1.094949e-25   0.000000e+00   0.000000e+00
     2552000   2.551999e-05   4.085971e+00   1.903150e+01   4.988520e+01   1.561989e+05   2.361229e+05   1.143359e+06   1.750852e+06  -6.504548e+06   1.104107e+06   1.177889e+06   1.573262e-28   0.000000e+00   0.000000e+00
     2560000   2.559999e-05   4.098467e+00   1.905039e+01   4.997667e+01   1.561989e+05   2.361231e+05   1.143359e+06   0.000000e+00   0.000000e+00   0.000000e+00   1.177889e+06   0.000000e+00   0.000000e+00   0.000000e+00
