     timestep     time              x             y              z              vx             vy             vz             ax             ay             az         v_magnitude      ELoss        Electronic      Nuclear
           0  9.792598e-318   1.000000e-01   1.335360e+01   1.974684e+01   8.959675e+05   4.976810e+05   1.849564e+06   0.000000e+00   0.000000e+00   0.000000e+00   2.114552e+06   0.000000e+00   0.000000e+00   0.000000e+00
        8000   7.999000e-08   1.716771e-01   1.339342e+01   1.989480e+01   8.959607e+05   4.976956e+05   1.849563e+06  -7.146684e+06   1.339644e+07  -1.428453e+05   2.114552e+06   2.504936e-27  1.470168e-314   0.000000e+00
       16000   1.599900e-07   2.433538e-01   1.343323e+01   2.004277e+01   8.959578e+05   4.977016e+05   1.849563e+06  -7.644308e+06   1.376120e+07   2.219666e+00   2.114552e+06   2.667492e-27  1.470168e-314   0.000000e+00
       24000   2.399900e-07   3.150304e-01   1.347305e+01   2.019073e+01   8.959577e+05   4.977019e+05   1.849563e+06   1.528959e+01  -3.172755e+01   1.131096e+00   2.114552e+06   1.337180e-38  1.470168e-314   0.000000e+00
       32000   3.199900e-07   3.867070e-01   1.351286e+01   2.033870e+01   8.959577e+05   4.977019e+05   1.849563e+06   7.902419e-01  -1.422585e+00  -2.971115e-21   2.114552e+06   2.872050e-41  1.470168e-314   0.000000e+00
       40000   3.999900e-07   4.583836e-01   1.355268e+01   2.048666e+01   8.959577e+05   4.977019e+05   1.849563e+06   7.571879e+00  -1.363082e+01   1.863634e-20   2.114552e+06   2.617403e-39  1.470168e-314   0.000000e+00
       48000   4.799900e-07   5.300602e-01   1.359250e+01   2.063463e+01   8.959577e+05   4.977019e+05   1.849563e+06   1.300967e+00  -2.341987e+00  -2.148063e-21   2.114552e+06   7.751096e-41  1.470168e-314   0.000000e+00
       56000   5.599900e-07   6.017368e-01   1.363231e+01   2.078259e+01   8.959577e+05   4.977019e+05   1.849563e+06   1.115739e+00  -2.008542e+00  -2.443799e-21   2.114552e+06   5.682233e-41  1.470168e-314   0.000000e+00
       64000   6.399900e-07   6.734134e-01   1.367213e+01   2.093056e+01   8.959577e+05   4.977019e+05   1.849563e+06  -1.023609e+01   1.842690e+01  -2.644842e-20   2.114552e+06   4.786254e-39  1.470168e-314   0.000000e+00
       72000   7.199900e-07   7.450900e-01   1.371194e+01   2.107852e+01   8.959577e+05   4.977019e+05   1.849563e+06   6.183122e+00  -1.113079e+01  -2.483943e-20   2.114552e+06   1.747053e-39  1.470168e-314   0.000000e+00
       80000   7.999900e-07   8.167667e-01   1.375176e+01   2.122649e+01   8.959577e+05   4.977019e+05   1.849563e+06  -1.684387e+00   3.032216e+00  -3.111115e-21   2.114552e+06   1.299321e-40  1.470168e-314   0.000000e+00
       88000   8.799900e-07   8.884433e-01   1.379158e+01   2.137445e+01   8.959577e+05   4.977019e+05   1.849563e+06   7.595930e+00  -1.367411e+01  -1.468193e-20   2.114552e+06   2.634674e-39  1.470168e-314   0.000000e+00
       96000   9.599900e-07   9.601199e-01   1.383139e+01   2.152242e+01   8.959577e+05   4.977019e+05   1.849563e+06   1.786759e-01  -3.216505e-01  -7.204969e-22   2.114552e+06   1.521810e-42  1.470168e-314   0.000000e+00
      104000   1.039990e-06   1.031797e+00   1.387121e+01   2.167038e+01   8.959577e+05   4.977019e+05   1.849563e+06   9.789667e+00  -1.762326e+01   8.836327e-21   2.114552e+06   4.375453e-39  1.470168e-314   0.000000e+00
      112000   1.119990e-06   1.103473e+00   1.391102e+01   2.181835e+01   8.959577e+05   4.977019e+05   1.849563e+06   2.883143e+00  -5.190205e+00   3.556471e-21   2.114552e+06   3.799889e-40  1.470168e-314   0.000000e+00
      120000   1.199990e-06   1.175150e+00   1.395084e+01   2.196631e+01   8.959577e+05   4.977019e+05   1.849563e+06   3.335665e+00  -6.004829e+00  -5.068657e-22   2.114552e+06   5.081418e-40  1.470168e-314   0.000000e+00
      128000   1.279990e-06   1.246826e+00   1.399066e+01   2.211428e+01   8.959577e+05   4.977019e+05   1.849563e+06   4.065455e+00  -7.318590e+00  -1.743489e-20   2.114552e+06   7.552279e-40  1.470168e-314   0.000000e+00
      136000   1.359990e-06   1.318503e+00   1.403047e+01   2.226224e+01   8.959577e+05   4.977019e+05   1.849563e+06   5.804336e+00  -1.044891e+01  -2.639879e-20   2.114552e+06   1.539663e-39  1.470168e-314   0.000000e+00
      144000   1.439990e-06   1.390180e+00   1.407029e+01   2.241021e+01   8.959577e+05   4.977019e+05   1.849563e+06  -7.246937e+00   1.304586e+01   4.072281e-20   2.114552e+06   2.397856e-39  1.470168e-314   0.000000e+00
      152000   1.519990e-06   1.461856e+00   1.411011e+01   2.255817e+01   8.959577e+05   4.977019e+05   1.849563e+06   5.644747e+00  -1.016162e+01   3.168488e-21   2.114552e+06   1.455021e-39  1.470168e-314   0.000000e+00
      160000   1.599990e-06   1.533533e+00   1.414992e+01   2.270614e+01   8.959577e+05   4.977019e+05   1.849563e+06  -6.059756e+00   1.090871e+01  -1.472623e-20   2.114552e+06   1.676237e-39  1.470168e-314   0.000000e+00
      168000   1.679990e-06   1.605209e+00   1.418974e+01   2.285410e+01   8.959577e+05   4.977019e+05   1.849563e+06   4.427001e+00  -7.969441e+00  -1.919655e-20   2.114552e+06   8.939142e-40  1.470168e-314   0.000000e+00
      176000   1.759990e-06   1.676886e+00   1.422955e+01   2.300207e+01   8.959577e+05   4.977019e+05   1.849563e+06   8.541648e+00  -1.537658e+01  -1.029040e-20   2.114552e+06   3.333720e-39  1.470168e-314   0.000000e+00
      184000   1.839990e-06   1.748563e+00   1.426937e+01   2.315003e+01   8.959577e+05   4.977019e+05   1.849563e+06   1.723076e+01  -3.101864e+01  -9.566170e-21   2.114552e+06   1.355606e-38  1.470168e-314   0.000000e+00
      192000   1.919990e-06   1.820239e+00   1.430919e+01   2.329800e+01   8.959577e+05   4.977019e+05   1.849563e+06   7.265487e+00  -1.307925e+01  -1.818856e-21   2.114552e+06   2.409507e-39  1.470168e-314   0.000000e+00
      200000   1.999990e-06   1.891916e+00   1.434900e+01   2.344596e+01   8.959577e+05   4.977019e+05   1.849563e+06   1.447927e+01  -2.606544e+01  -9.087973e-20   2.114552e+06   9.572821e-39  1.470168e-314   0.000000e+00
      208000   2.079990e-06   1.963592e+00   1.438882e+01   2.359393e+01   8.959577e+05   4.977019e+05   1.849563e+06   1.021809e+01  -1.839449e+01  -4.216988e-21   2.114552e+06   4.768740e-39  1.470168e-314   0.000000e+00
      216000   2.159990e-06   2.035269e+00   1.442863e+01   2.374189e+01   8.959577e+05   4.977019e+05   1.849563e+06   3.485859e+00  -6.275207e+00   2.241186e-21   2.114552e+06   5.547792e-40  1.470168e-314   0.000000e+00
      224000   2.239990e-06   2.106946e+00   1.446845e+01   2.388986e+01   8.959577e+05   4.977019e+05   1.849563e+06  -6.129767e-02   1.103474e-01  -1.375638e-22   2.114552e+06   1.667634e-43  1.470168e-314   0.000000e+00
      232000   2.319990e-06   2.178622e+00   1.450827e+01   2.403782e+01   8.959577e+05   4.977019e+05   1.849563e+06   1.917666e+01  -3.452162e+01   1.331761e-19   2.114552e+06   1.678882e-38  1.470168e-314   0.000000e+00
      240000   2.399990e-06   2.250299e+00   1.454808e+01   2.418579e+01   8.959577e+05   4.977019e+05   1.849563e+06   5.292949e+00  -9.528311e+00   1.714721e-20   2.114552e+06   1.279920e-39  1.470168e-314   0.000000e+00
      248000   2.479990e-06   2.321976e+00   1.458790e+01   2.433375e+01   8.959577e+05   4.977019e+05   1.849563e+06   3.928771e+00  -7.072533e+00   2.601831e-21   2.114552e+06   7.047630e-40  1.470168e-314   0.000000e+00
      256000   2.559990e-06   2.393652e+00   1.462772e+01   2.448172e+01   8.959577e+05   4.977019e+05   1.849563e+06   1.844888e+01  -3.321148e+01   2.553184e-20   2.114552e+06   1.554150e-38  1.470168e-314   0.000000e+00
      264000   2.639990e-06   2.465329e+00   1.466753e+01   2.462968e+01   8.959577e+05   4.977019e+05   1.849563e+06   6.362379e+00  -1.145349e+01   2.838433e-20   2.114552e+06   1.849587e-39  1.470168e-314   0.000000e+00
      272000   2.719990e-06   2.537005e+00   1.470735e+01   2.477765e+01   8.959577e+05   4.977019e+05   1.849563e+06   1.024088e+00  -1.843552e+00  -3.124188e-21   2.114552e+06   4.787408e-41  1.470168e-314   0.000000e+00
      280000   2.799990e-06   2.608682e+00   1.474716e+01   2.492561e+01   8.959577e+05   4.977019e+05   1.849563e+06   6.219077e+00  -1.119552e+01   2.420828e-20   2.114552e+06   1.765270e-39  1.470168e-314   0.000000e+00
      288000   2.879990e-06   2.680359e+00   1.478698e+01   2.507358e+01   8.959577e+05   4.977019e+05   1.849563e+06   3.561131e+00  -6.410711e+00  -1.652181e-20   2.114552e+06   5.793741e-40  1.470168e-314   0.000000e+00
      296000   2.959990e-06   2.752035e+00   1.482680e+01   2.522154e+01   8.959577e+05   4.977019e+05   1.849563e+06   1.413454e+00  -2.544485e+00   6.231833e-21   2.114552e+06   9.147658e-41  1.470168e-314   0.000000e+00
      304000   3.039990e-06   2.823712e+00   1.486661e+01   2.536951e+01   8.959577e+05   4.977019e+05   1.849563e+06   1.438720e+01  -2.589968e+01   2.928619e-21   2.114552e+06   9.451366e-39  1.470168e-314   0.000000e+00
      312000   3.119990e-06   2.895388e+00   1.490643e+01   2.551747e+01   8.959577e+05   4.977019e+05   1.849563e+06  -5.130410e+00   9.235710e+00   2.681390e-20   2.114552e+06   1.200429e-39  1.470168e-314   0.000000e+00
      320000   3.199990e-06   2.967065e+00   1.494624e+01   2.566544e+01   8.959577e+05   4.977019e+05   1.849563e+06  -4.073963e+00   7.333905e+00   1.312706e-20   2.114552e+06   7.573822e-40  1.470168e-314   0.000000e+00
      328000   3.279990e-06   3.038742e+00   1.498606e+01   2.581340e+01   8.959577e+05   4.977019e+05   1.849563e+06   1.714037e+01  -3.085592e+01   2.042099e-20   2.114552e+06   1.341545e-38  1.470168e-314   0.000000e+00
      336000   3.359990e-06   3.110418e+00   1.502588e+01   2.596137e+01   8.959577e+05   4.977019e+05   1.849563e+06   5.256474e+00  -9.462650e+00  -1.212384e-20   2.114552e+06   1.260375e-39  1.470168e-314   0.000000e+00
      344000   3.439990e-06   3.182095e+00   1.506569e+01   2.610933e+01   8.959577e+05   4.977019e+05   1.849563e+06   1.109652e+01  -1.997584e+01   2.302268e-20   2.114552e+06   5.620720e-39  1.470168e-314   0.000000e+00
      352000   3.519990e-06   3.253772e+00   1.510551e+01   2.625730e+01   8.959577e+05   4.977019e+05   1.849563e+06  -1.609133e+00   2.896745e+00  -5.690375e-21   2.114552e+06   1.180634e-40  1.470168e-314   0.000000e+00
      360000   3.599990e-06   3.325448e+00   1.514533e+01   2.640526e+01   8.959577e+05   4.977019e+05   1.849563e+06   3.979333e+00  -7.163553e+00   1.671051e-20   2.114552e+06   7.227816e-40  1.470168e-314   0.000000e+00
      368000   3.679990e-06   3.397125e+00   1.518514e+01   2.655323e+01   8.959577e+05   4.977019e+05   1.849563e+06   1.935034e+01  -3.483427e+01   3.245847e-20   2.114552e+06   1.709944e-38  1.470168e-314   0.000000e+00
      376000   3.759990e-06   3.468801e+00   1.522496e+01   2.670119e+01   8.959577e+05   4.977019e+05   1.849563e+06   4.037971e+00  -7.269113e+00   6.290293e-21   2.114552e+06   7.450114e-40  1.470168e-314   0.000000e+00
      384000   3.839990e-06   3.540478e+00   1.526477e+01   2.684916e+01   8.959577e+05   4.977019e+05   1.849563e+06   5.312398e+00  -9.563323e+00   1.607488e-20   2.114552e+06   1.288691e-39  1.470168e-314   0.000000e+00
      392000   3.919990e-06   3.612155e+00   1.530459e+01   2.699712e+01   8.959577e+05   4.977019e+05   1.849563e+06   6.320779e+00  -1.137860e+01   1.170705e-20   2.114552e+06   1.823779e-39  1.470168e-314   0.000000e+00
      400000   3.999990e-06   3.683831e+00   1.534441e+01   2.714509e+01   8.959577e+05   4.977019e+05   1.849563e+06   1.381322e+01  -2.486642e+01  -4.865518e-20   2.114552e+06   8.712930e-39  1.470168e-314   0.000000e+00
      408000   4.079990e-06   3.755508e+00   1.538422e+01   2.729305e+01   8.959577e+05   4.977019e+05   1.849563e+06   2.246158e+01  -4.043511e+01   3.058997e-21   2.114552e+06   2.303920e-38  1.470168e-314   0.000000e+00
      416000   4.159990e-06   3.827184e+00   1.542404e+01   2.744102e+01   8.959577e+05   4.977019e+05   1.849563e+06  -2.850934e+00   5.132221e+00  -4.487489e-21   2.114552e+06   3.704757e-40  1.470168e-314   0.000000e+00
      424000   4.239990e-06   3.898861e+00   1.546385e+01   2.758898e+01   8.959577e+05   4.977019e+05   1.849563e+06   2.681218e+01  -4.826700e+01  -6.393337e-21   2.114552e+06   3.282656e-38  1.470168e-314   0.000000e+00
      432000   4.319990e-06   3.970538e+00   1.550367e+01   2.773695e+01   8.959577e+05   4.977019e+05   1.849563e+06   1.724440e+00  -3.104318e+00  -4.137078e-21   2.114552e+06   1.361702e-40  1.470168e-314   0.000000e+00
      440000   4.399990e-06   4.042214e+00   1.554349e+01   2.788491e+01   8.959577e+05   4.977019e+05   1.849563e+06  -6.627023e+00   1.192990e+01  -3.863142e-21   2.114552e+06   2.004481e-39  1.470168e-314   0.000000e+00
      448000   4.479990e-06   4.113891e+00   1.558330e+01   2.803288e+01   8.959577e+05   4.977019e+05   1.849563e+06   7.307607e+00  -1.315508e+01   1.275891e-20   2.114552e+06   2.437368e-39  1.470168e-314   0.000000e+00
      456000   4.559990e-06   4.185567e+00   1.562312e+01   2.818084e+01   8.959577e+05   4.977019e+05   1.849563e+06   5.586859e+00  -1.005741e+01  -2.062230e-21   2.114552e+06   1.425014e-39  1.470168e-314   0.000000e+00
      464000   4.639990e-06   4.257244e+00   1.566294e+01   2.832881e+01   8.959577e+05   4.977019e+05   1.849563e+06   1.728659e+00  -3.111913e+00   4.975043e-21   2.114552e+06   1.363662e-40  1.470168e-314   0.000000e+00
      472000   4.719990e-06   4.328921e+00   1.570275e+01   2.847677e+01   8.959577e+05   4.977019e+05   1.849563e+06   1.203755e+01  -2.166987e+01  -4.617433e-20   2.114552e+06   6.619746e-39  1.470168e-314   0.000000e+00
      480000   4.799990e-06   4.400597e+00   1.574257e+01   2.862474e+01   8.959577e+05   4.977019e+05   1.849563e+06   1.170084e+01  -2.106373e+01   2.490013e-20   2.114552e+06   6.254780e-39  1.470168e-314   0.000000e+00
      488000   4.879990e-06   4.472274e+00   1.578238e+01   2.877270e+01   8.959577e+05   4.977019e+05   1.849563e+06   8.331727e+00  -1.499869e+01  -2.430740e-20   2.114552e+06   3.170438e-39  1.470168e-314   0.000000e+00
      496000   4.959990e-06   4.543951e+00   1.582220e+01   2.892067e+01   8.959577e+05   4.977019e+05   1.849563e+06   1.911171e+00  -3.440471e+00  -9.497159e-21   2.114552e+06   1.672968e-40  1.470168e-314   0.000000e+00
      504000   5.039990e-06   4.615627e+00   1.586202e+01   2.906863e+01   8.959577e+05   4.977019e+05   1.849563e+06   1.318772e+01  -2.374040e+01  -8.741305e-20   2.114552e+06   7.940726e-39  1.470168e-314   0.000000e+00
      512000   5.119990e-06   4.687304e+00   1.590183e+01   2.921660e+01   8.959577e+05   4.977019e+05   1.849563e+06   3.859503e+00  -6.947836e+00  -1.488984e-20   2.114552e+06   6.814765e-40  1.470168e-314   0.000000e+00
      520000   5.199990e-06   4.758980e+00   1.594165e+01   2.936456e+01   8.959577e+05   4.977019e+05   1.849563e+06   1.992046e+00  -3.586061e+00  -4.948792e-21   2.114552e+06   1.814519e-40  1.470168e-314   0.000000e+00
      528000   5.279990e-06   4.830657e+00   1.598146e+01   2.951253e+01   8.959577e+05   4.977019e+05   1.849563e+06  -3.847124e+00   6.925552e+00  -6.397260e-21   2.114552e+06   6.752038e-40  1.470168e-314   0.000000e+00
      536000   5.359990e-06   4.902334e+00   1.602128e+01   2.966049e+01   8.959577e+05   4.977019e+05   1.849563e+06   1.030915e+01  -1.855842e+01  -7.695413e-20   2.114552e+06   4.858463e-39  1.470168e-314   0.000000e+00
      544000   5.439990e-06   4.974010e+00   1.606110e+01   2.980846e+01   8.959577e+05   4.977019e+05   1.849563e+06  -3.452837e+01   6.499499e+01  -7.635164e-01   2.114552e+06   5.830238e-38  1.470168e-314   0.000000e+00
      552000   5.519990e-06   5.045687e+00   1.610091e+01   2.995642e+01   8.959577e+05   4.977019e+05   1.849563e+06  -7.737705e+00   3.151221e+01  -4.731405e+00   2.114552e+06   1.157074e-38  1.470168e-314   0.000000e+00
      560000   5.599990e-06   5.117363e+00   1.614073e+01   3.010439e+01   8.959577e+05   4.977019e+05   1.849563e+06   4.620139e+00  -5.877308e+00  -6.565346e-01   2.114552e+06   6.077903e-40  1.470168e-314   0.000000e+00
      568000   5.679990e-06   5.189040e+00   1.618055e+01   3.025235e+01   8.959577e+05   4.977019e+05   1.849563e+06   1.090607e+01  -1.963299e+01   6.701158e-23   2.114552e+06   5.432092e-39  1.470168e-314   0.000000e+00
      576000   5.759990e-06   5.260717e+00   1.622036e+01   3.040032e+01   8.959577e+05   4.977019e+05   1.849563e+06  -3.028542e-01   5.451949e-01   1.596616e-22   2.114552e+06   4.165534e-42  1.470168e-314   0.000000e+00
      584000   5.839990e-06   5.332393e+00   1.626018e+01   3.054828e+01   8.959577e+05   4.977019e+05   1.849563e+06   3.928133e+00  -7.071384e+00  -2.541099e-20   2.114552e+06   7.044180e-40  1.470168e-314   0.000000e+00
      592000   5.919990e-06   5.404070e+00   1.629999e+01   3.069625e+01   8.959577e+05   4.977019e+05   1.849563e+06   1.743867e+01  -3.139291e+01   2.349568e-20   2.114552e+06   1.389116e-38  1.470168e-314   0.000000e+00
      600000   5.999990e-06   5.475747e+00   1.633981e+01   3.084421e+01   8.959577e+05   4.977019e+05   1.849563e+06   1.077037e+00  -1.938870e+00   2.064684e-21   2.114552e+06   5.315222e-41  1.470168e-314   0.000000e+00
      608000   6.079990e-06   5.547423e+00   1.637963e+01   3.099218e+01   8.959577e+05   4.977019e+05   1.849563e+06   2.254461e+01  -4.058458e+01  -4.953334e-20   2.114552e+06   2.320732e-38  1.470168e-314   0.000000e+00
      616000   6.159990e-06   5.619100e+00   1.641944e+01   3.114014e+01   8.959577e+05   4.977019e+05   1.849563e+06   1.644332e+00  -2.960110e+00   4.475677e-21   2.114552e+06   1.240303e-40  1.470168e-314   0.000000e+00
      624000   6.239990e-06   5.690776e+00   1.645926e+01   3.128811e+01   8.959577e+05   4.977019e+05   1.849563e+06   2.124702e+01  -3.824866e+01   1.233805e-20   2.114552e+06   2.061424e-38  1.470168e-314   0.000000e+00
      632000   6.319990e-06   5.762453e+00   1.649907e+01   3.143607e+01   8.959577e+05   4.977019e+05   1.849563e+06   7.203557e+00  -1.296777e+01   9.804355e-21   2.114552e+06   2.370257e-39  1.470168e-314   0.000000e+00
      640000   6.399990e-06   5.834130e+00   1.653889e+01   3.158404e+01   8.959577e+05   4.977019e+05   1.849563e+06  -2.223802e+00   4.003265e+00   1.947973e-21   2.114552e+06   2.253551e-40  1.470168e-314   0.000000e+00
      648000   6.479990e-06   5.905806e+00   1.657871e+01   3.173200e+01   8.959577e+05   4.977019e+05   1.849563e+06   1.296804e+01  -2.334494e+01   1.126502e-20   2.114552e+06   7.676655e-39  1.470168e-314   0.000000e+00
      656000   6.559990e-06   5.977483e+00   1.661852e+01   3.187997e+01   8.959577e+05   4.977019e+05   1.849563e+06   1.534484e+01  -2.762363e+01  -4.282990e-20   2.114552e+06   1.075212e-38  1.470168e-314   0.000000e+00
      664000   6.639990e-06   6.049159e+00   1.665834e+01   3.202793e+01   8.959577e+05   4.977019e+05   1.849563e+06   8.891359e+00  -1.600613e+01  -3.748100e-20   2.114552e+06   3.609970e-39  1.470168e-314   0.000000e+00
      672000   6.719990e-06   6.120836e+00   1.669816e+01   3.217590e+01   8.959577e+05   4.977019e+05   1.849563e+06   1.199400e+01  -2.159148e+01  -4.583198e-20   2.114552e+06   6.568540e-39  1.470168e-314   0.000000e+00
      680000   6.799990e-06   6.192513e+00   1.673797e+01   3.232386e+01   8.959577e+05   4.977019e+05   1.849563e+06   7.525113e+00  -1.354663e+01  -6.229309e-21   2.114552e+06   2.587202e-39  1.470168e-314   0.000000e+00
      688000   6.879990e-06   6.264189e+00   1.677779e+01   3.247183e+01   8.959577e+05   4.977019e+05   1.849563e+06  -1.289768e+01   2.321827e+01  -5.378818e-20   2.114552e+06   7.594658e-39  1.470168e-314   0.000000e+00
      696000   6.959990e-06   6.335866e+00   1.681760e+01   3.261979e+01   8.959577e+05   4.977019e+05   1.849563e+06   3.597264e+00  -6.475758e+00   3.081359e-21   2.114552e+06   5.898188e-40  1.470168e-314   0.000000e+00
      704000   7.039990e-06   6.407542e+00   1.685742e+01   3.276776e+01   8.959577e+05   4.977019e+05   1.849563e+06   6.544725e+00  -1.178174e+01   3.988894e-21   2.114552e+06   1.958324e-39  1.470168e-314   0.000000e+00
      712000   7.119990e-06   6.479219e+00   1.689724e+01   3.291572e+01   8.959577e+05   4.977019e+05   1.849563e+06  -7.825673e+00   1.408769e+01  -7.579082e-21   2.114552e+06   2.795103e-39  1.470168e-314   0.000000e+00
      720000   7.199990e-06   6.550896e+00   1.693705e+01   3.306369e+01   8.959577e+05   4.977019e+05   1.849563e+06  -4.376416e+00   7.878379e+00  -4.552608e-21   2.114552e+06   8.739612e-40  1.470168e-314   0.000000e+00
      728000   7.279990e-06   6.622572e+00   1.697687e+01   3.321165e+01   8.959577e+05   4.977019e+05   1.849563e+06   9.778213e+00  -1.760264e+01  -2.246611e-20   2.114552e+06   4.366961e-39  1.470168e-314   0.000000e+00
      736000   7.359990e-06   6.694249e+00   1.701668e+01   3.335962e+01   8.959577e+05   4.977019e+05   1.849563e+06  -6.837301e+00   1.230844e+01   2.126228e-20   2.114552e+06   2.132681e-39  1.470168e-314   0.000000e+00
      744000   7.439990e-06   6.765926e+00   1.705650e+01   3.350758e+01   8.959577e+05   4.977019e+05   1.849563e+06   5.399325e+00  -9.719809e+00   1.530677e-20   2.114552e+06   1.330899e-39  1.470168e-314   0.000000e+00
      752000   7.519990e-06   6.837602e+00   1.709632e+01   3.365555e+01   8.959577e+05   4.977019e+05   1.849563e+06   1.106085e+01  -1.991163e+01  -5.047403e-20   2.114552e+06   5.586978e-39  1.470168e-314   0.000000e+00
      760000   7.599990e-06   6.909279e+00   1.713613e+01   3.380351e+01   8.959577e+05   4.977019e+05   1.849563e+06   4.950400e+00  -8.911657e+00  -1.102613e-20   2.114552e+06   1.118834e-39  1.470168e-314   0.000000e+00
      768000   7.679990e-06   6.980955e+00   1.717595e+01   3.395148e+01   8.959577e+05   4.977019e+05   1.849563e+06   1.606567e+01  -2.892124e+01   5.649417e-20   2.114552e+06   1.179095e-38  1.470168e-314   0.000000e+00
      776000   7.759990e-06   7.052632e+00   1.721577e+01   3.409944e+01   8.959577e+05   4.977019e+05   1.849563e+06  -2.624209e+00   4.724074e+00   1.393632e-20   2.114552e+06   3.144409e-40  1.470168e-314   0.000000e+00
      784000   7.839990e-06   7.124309e+00   1.725558e+01   3.424741e+01   8.959577e+05   4.977019e+05   1.849563e+06   9.558240e+00  -1.720664e+01  -6.594623e-20   2.114552e+06   4.172186e-39  1.470168e-314   0.000000e+00
      792000   7.919990e-06   7.195985e+00   1.729540e+01   3.439537e+01   8.959577e+05   4.977019e+05   1.849563e+06   4.233189e+01  -7.620543e+01  -9.607554e-20   2.114552e+06   8.183690e-38  1.470168e-314   0.000000e+00
      800000   7.999990e-06   7.267662e+00   1.733521e+01   3.454334e+01   8.959577e+05   4.977019e+05   1.849563e+06   5.284338e+00  -9.512811e+00   1.131521e-20   2.114552e+06   1.273299e-39  1.470168e-314   0.000000e+00
      808000   8.079990e-06   7.339338e+00   1.737503e+01   3.469130e+01   8.959577e+05   4.977019e+05   1.849563e+06  -1.889696e+01   3.401811e+01   9.062036e-21   2.114552e+06   1.630253e-38  1.470168e-314   0.000000e+00
      816000   8.159990e-06   7.411015e+00   1.741485e+01   3.483927e+01   8.959577e+05   4.977019e+05   1.849563e+06   7.680759e+00  -1.382682e+01   1.288368e-20   2.114552e+06   2.691235e-39  1.470168e-314   0.000000e+00
      824000   8.239990e-06   7.482692e+00   1.745466e+01   3.498723e+01   8.959577e+05   4.977019e+05   1.849563e+06   6.599634e+00  -1.188059e+01  -2.357083e-20   2.114552e+06   1.990404e-39  1.470168e-314   0.000000e+00
      832000   8.319990e-06   7.554368e+00   1.749448e+01   3.513520e+01   8.959577e+05   4.977019e+05   1.849563e+06  -3.085714e+01   5.554870e+01  -1.208302e-19   2.114552e+06   4.348153e-38  1.470168e-314   0.000000e+00
      840000   8.399990e-06   7.626045e+00   1.753429e+01   3.528316e+01   8.959577e+05   4.977019e+05   1.849563e+06   8.482361e+00  -1.526986e+01   6.837183e-21   2.114552e+06   3.282573e-39  1.470168e-314   0.000000e+00
      848000   8.479990e-06   7.697722e+00   1.757411e+01   3.543113e+01   8.959577e+05   4.977019e+05   1.849563e+06   3.419460e+01  -6.155676e+01  -4.694767e-21   2.114552e+06   5.339278e-38  1.470168e-314   0.000000e+00
      856000   8.559990e-06   7.769398e+00   1.761393e+01   3.557909e+01   8.959577e+05   4.977019e+05   1.849563e+06   9.068466e+00  -1.632496e+01   2.222863e-20   2.114552e+06   3.753020e-39  1.470168e-314   0.000000e+00
      864000   8.639990e-06   7.841075e+00   1.765374e+01   3.572706e+01   8.959577e+05   4.977019e+05   1.849563e+06   9.939373e+00  -1.789276e+01   3.671639e-20   2.114552e+06   4.510989e-39  1.470168e-314   0.000000e+00
      872000   8.719990e-06   7.912751e+00   1.769356e+01   3.587502e+01   8.959577e+05   4.977019e+05   1.849563e+06   6.701127e+00  -1.206330e+01   1.082902e-20   2.114552e+06   2.051267e-39  1.470168e-314   0.000000e+00
      880000   8.799990e-06   7.984428e+00   1.773338e+01   3.602299e+01   8.959577e+05   4.977019e+05   1.849563e+06   2.762768e+00  -4.973506e+00  -1.203033e-20   2.114552e+06   3.489948e-40  1.470168e-314   0.000000e+00
      888000   8.879990e-06   8.056105e+00   1.777319e+01   3.617095e+01   8.959577e+05   4.977019e+05   1.849563e+06   9.295490e+00  -1.673364e+01   5.543796e-20   2.114552e+06   3.946869e-39  1.470168e-314   0.000000e+00
      896000   8.959990e-06   8.127781e+00   1.781301e+01   3.631892e+01   8.959577e+05   4.977019e+05   1.849563e+06   6.133896e+00  -1.104218e+01   1.624704e-20   2.114552e+06   1.716541e-39  1.470168e-314   0.000000e+00
      904000   9.039990e-06   8.199458e+00   1.785282e+01   3.646688e+01   8.959577e+05   4.977019e+05   1.849563e+06  -1.774394e+01   3.194245e+01  -9.173070e-21   2.114552e+06   1.437309e-38  1.470168e-314   0.000000e+00
      912000   9.119990e-06   8.271134e+00   1.789264e+01   3.661485e+01   8.959577e+05   4.977019e+05   1.849563e+06  -3.725752e+00   6.707060e+00  -1.177168e-20   2.114552e+06   6.342107e-40  1.470168e-314   0.000000e+00
      920000   9.199990e-06   8.342811e+00   1.793246e+01   3.676281e+01   8.959577e+05   4.977019e+05   1.849563e+06   8.388051e+00  -1.510008e+01   2.316623e-20   2.114552e+06   3.211220e-39  1.470168e-314   0.000000e+00
      928000   9.279990e-06   8.414488e+00   1.797227e+01   3.691078e+01   8.959577e+05   4.977019e+05   1.849563e+06   4.692109e+00  -8.446686e+00   2.746103e-20   2.114552e+06   1.007365e-39  1.470168e-314   0.000000e+00
      936000   9.359990e-06   8.486164e+00   1.801209e+01   3.705874e+01   8.959577e+05   4.977019e+05   1.849563e+06   4.297707e-01  -7.736687e-01   2.138547e-22   2.114552e+06   8.424300e-42  1.470168e-314   0.000000e+00
      944000   9.439990e-06   8.557841e+00   1.805190e+01   3.720671e+01   8.959577e+05   4.977019e+05   1.849563e+06   7.311260e+00  -1.316165e+01  -1.206103e-20   2.114552e+06   2.440071e-39  1.470168e-314   0.000000e+00
      952000   9.519990e-06   8.629517e+00   1.809172e+01   3.735467e+01   8.959577e+05   4.977019e+05   1.849563e+06  -1.484724e+01   2.672784e+01   3.141487e-20   2.114552e+06   1.006036e-38  1.470168e-314   0.000000e+00
      960000   9.599990e-06   8.701194e+00   1.813154e+01   3.750264e+01   8.959577e+05   4.977019e+05   1.849563e+06  -1.233345e+01   2.220254e+01  -3.337729e-20   2.114552e+06   6.951161e-39  1.470168e-314   0.000000e+00
      968000   9.679990e-06   8.772871e+00   1.817135e+01   3.765060e+01   8.959577e+05   4.977019e+05   1.849563e+06   1.367335e+01  -2.461462e+01   3.239173e-20   2.114552e+06   8.538782e-39  1.470168e-314   0.000000e+00
      976000   9.759990e-06   8.844547e+00   1.821117e+01   3.779857e+01   8.959577e+05   4.977019e+05   1.849563e+06   1.817771e+00  -3.272333e+00   4.666584e-21   2.114552e+06   1.513352e-40  1.470168e-314   0.000000e+00
      984000   9.839990e-06   8.916224e+00   1.825099e+01   3.794653e+01   8.959577e+05   4.977019e+05   1.849563e+06  -2.094331e+01   3.770193e+01  -3.867404e-20   2.114552e+06   2.002692e-38  1.470168e-314   0.000000e+00
      992000   9.919990e-06   8.987901e+00   1.829080e+01   3.809450e+01   8.959577e+05   4.977019e+05   1.849563e+06   3.108628e+01  -5.596119e+01   1.241286e-19   2.114552e+06   4.412184e-38  1.470168e-314   0.000000e+00
     1000000   9.999990e-06   9.059577e+00   1.833062e+01   3.824246e+01   8.959577e+05   4.977019e+05   1.849563e+06  -8.241664e+00   1.483656e+01   3.410124e-20   2.114552e+06   3.098824e-39  1.470168e-314   0.000000e+00
     1008000   1.007999e-05   9.131254e+00   1.837043e+01   3.839043e+01   8.959577e+05   4.977019e+05   1.849563e+06  -1.641257e+01   2.954574e+01  -1.305752e-20   2.114552e+06   1.229976e-38  1.470168e-314   0.000000e+00
     1016000   1.015999e-05   9.202930e+00   1.841025e+01   3.853839e+01   8.959577e+05   4.977019e+05   1.849563e+06  -1.042353e-01   1.876433e-01  -4.336392e-22   2.114552e+06   4.813348e-43  1.470168e-314   0.000000e+00
     1024000   1.023999e-05   9.274607e+00   1.845007e+01   3.868636e+01   8.959577e+05   4.977019e+05   1.849563e+06   2.114813e+01  -3.807065e+01  -3.466117e-20   2.114552e+06   2.042188e-38  1.470168e-314   0.000000e+00
     1032000   1.031999e-05   9.346284e+00   1.848988e+01   3.883432e+01   8.959577e+05   4.977019e+05   1.849563e+06  -2.100081e+00   3.780544e+00  -6.633624e-21   2.114552e+06   2.012228e-40  1.470168e-314   0.000000e+00
     1040000   1.039999e-05   9.417960e+00   1.852970e+01   3.898229e+01   8.959577e+05   4.977019e+05   1.849563e+06  -9.508412e+00   1.711694e+01  -3.748465e-21   2.114552e+06   4.128152e-39  1.470168e-314   0.000000e+00
     1048000   1.047999e-05   9.489637e+00   1.856951e+01   3.913025e+01   8.959577e+05   4.977019e+05   1.849563e+06  -6.668065e+00   1.200378e+01   1.641022e-20   2.114552e+06   2.029893e-39  1.470168e-314   0.000000e+00
     1056000   1.055999e-05   9.561313e+00   1.860933e+01   3.927822e+01   8.959577e+05   4.977019e+05   1.849563e+06  -4.405461e+00   7.930664e+00  -5.257355e-21   2.114552e+06   8.863256e-40  1.470168e-314   0.000000e+00
     1064000   1.063999e-05   9.632990e+00   1.864915e+01   3.942618e+01   8.959577e+05   4.977019e+05   1.849563e+06  -6.710862e+00   1.208082e+01  -8.632487e-21   2.114552e+06   2.055891e-39  1.470168e-314   0.000000e+00
     1072000   1.071999e-05   9.704667e+00   1.868896e+01   3.957415e+01   8.959577e+05   4.977019e+05   1.849563e+06  -7.452911e+00   1.341665e+01   1.221917e-21   2.114552e+06   2.537228e-39  1.470168e-314   0.000000e+00
     1080000   1.079999e-05   9.776343e+00   1.872878e+01   3.972211e+01   8.959577e+05   4.977019e+05   1.849563e+06   8.435941e+00  -1.518629e+01   4.379246e-20   2.114552e+06   3.249970e-39  1.470168e-314   0.000000e+00
     1088000   1.087999e-05   9.848020e+00   1.876860e+01   3.987008e+01   8.959577e+05   4.977019e+05   1.849563e+06  -3.230014e+00   5.814638e+00  -8.705107e-21   2.114552e+06   4.759279e-40  1.470168e-314   0.000000e+00
     1096000   1.095999e-05   9.919697e+00   1.880841e+01   4.001804e+01   8.959577e+05   4.977019e+05   1.849563e+06  -1.571950e+01   2.829807e+01  -7.042033e-20   2.114552e+06   1.129939e-38  1.470168e-314   0.000000e+00
     1104000   1.103999e-05   9.991373e+00   1.884823e+01   4.016601e+01   8.959577e+05   4.977019e+05   1.849563e+06  -9.646536e+00   1.736559e+01   4.019120e-20   2.114552e+06   4.247059e-39  1.470168e-314   0.000000e+00
     1112000   1.111999e-05   1.006305e+01   1.888804e+01   4.031397e+01   8.959577e+05   4.977019e+05   1.849563e+06  -4.277576e+00   7.700448e+00   1.795416e-20   2.114552e+06   8.350406e-40  1.470168e-314   0.000000e+00
     1120000   1.119999e-05   1.013473e+01   1.892786e+01   4.046194e+01   8.959577e+05   4.977019e+05   1.849563e+06  -1.730784e+01   3.115739e+01   4.788019e-20   2.114552e+06   1.368364e-38  1.470168e-314   0.000000e+00
     1128000   1.127999e-05   1.020640e+01   1.896768e+01   4.060990e+01   8.959577e+05   4.977019e+05   1.849563e+06  -6.916532e+00   1.245107e+01  -4.549271e-20   2.114552e+06   2.184692e-39  1.470168e-314   0.000000e+00
     1136000   1.135999e-05   1.027808e+01   1.900749e+01   4.075787e+01   8.959577e+05   4.977019e+05   1.849563e+06  -5.770755e+00   1.038845e+01  -1.155942e-20   2.114552e+06   1.519864e-39  1.470168e-314   0.000000e+00
     1144000   1.143999e-05   1.034976e+01   1.904731e+01   4.090583e+01   8.959577e+05   4.977019e+05   1.849563e+06  -1.975646e+01   3.556537e+01   8.709872e-21   2.114552e+06   1.782255e-38  1.470168e-314   0.000000e+00
     1152000   1.151999e-05   1.042143e+01   1.908712e+01   4.105380e+01   8.959577e+05   4.977019e+05   1.849563e+06  -1.276252e+01   2.297495e+01   5.905100e-20   2.114552e+06   7.441833e-39  1.470168e-314   0.000000e+00
     1160000   1.159999e-05   1.049311e+01   1.912694e+01   4.120176e+01   8.959577e+05   4.977019e+05   1.849563e+06  -1.992009e+01   3.585993e+01   2.277173e-20   2.114552e+06   1.813280e-38  1.470168e-314   0.000000e+00
     1168000   1.167999e-05   1.056479e+01   1.916676e+01   4.134973e+01   8.959577e+05   4.977019e+05   1.849563e+06  -5.579075e+00   1.004339e+01  -1.185187e-21   2.114552e+06   1.421689e-39  1.470168e-314   0.000000e+00
     1176000   1.175999e-05   1.063646e+01   1.920657e+01   4.149769e+01   8.959577e+05   4.977019e+05   1.849563e+06  -1.592394e+01   2.866611e+01  -5.130033e-20   2.114552e+06   1.158636e-38  1.470168e-314   0.000000e+00
     1184000   1.183999e-05   1.070814e+01   1.924639e+01   4.164566e+01   8.959577e+05   4.977019e+05   1.849563e+06  -2.386404e+00   4.295979e+00   5.656343e-21   2.114552e+06   2.591927e-40  1.470168e-314   0.000000e+00
     1192000   1.191999e-05   1.077982e+01   1.928621e+01   4.179362e+01   8.959577e+05   4.977019e+05   1.849563e+06   1.722848e+01  -3.101453e+01  -9.507176e-20   2.114552e+06   1.355055e-38  1.470168e-314   0.000000e+00
     1200000   1.199999e-05   1.085149e+01   1.932602e+01   4.194159e+01   8.959577e+05   4.977019e+05   1.849563e+06  -2.074120e+01   3.733809e+01   6.927746e-21   2.114552e+06   1.964556e-38  1.470168e-314   0.000000e+00
     1208000   1.207999e-05   1.092317e+01   1.936584e+01   4.208955e+01   8.959577e+05   4.977019e+05   1.849563e+06   5.065217e+00  -9.118350e+00  -1.484988e-20   2.114552e+06   1.171820e-39  1.470168e-314   0.000000e+00
     1216000   1.215999e-05   1.099485e+01   1.940565e+01   4.223752e+01   8.959577e+05   4.977019e+05   1.849563e+06  -2.692112e+01   4.846312e+01   1.368726e-20   2.114552e+06   3.308090e-38  1.470168e-314   0.000000e+00
     1224000   1.223999e-05   1.106652e+01   1.944547e+01   4.238548e+01   8.959577e+05   4.977019e+05   1.849563e+06  -4.640417e+01   8.353629e+01  -6.849016e-20   2.114552e+06   9.833071e-38  1.470168e-314   0.000000e+00
     1232000   1.231999e-05   1.113820e+01   1.948529e+01   4.253345e+01   8.959577e+05   4.977019e+05   1.849563e+06  -2.183609e+01   3.930910e+01  -4.420379e-20   2.114552e+06   2.177690e-38  1.470168e-314   0.000000e+00
     1240000   1.239999e-05   1.120988e+01   1.952510e+01   4.268141e+01   8.959577e+05   4.977019e+05   1.849563e+06  -1.501965e+01   2.703821e+01  -2.069660e-20   2.114552e+06   1.029662e-38  1.470168e-314   0.000000e+00
     1248000   1.247999e-05   1.128155e+01   1.956492e+01   4.282938e+01   8.959577e+05   4.977019e+05   1.849563e+06  -2.392143e+01   4.306311e+01  -4.927483e-20   2.114552e+06   2.612574e-38  1.470168e-314   0.000000e+00
     1256000   1.255999e-05   1.135323e+01   1.960473e+01   4.297734e+01   8.959577e+05   4.977019e+05   1.849563e+06  -4.736178e+01   8.526017e+01   1.271478e-19   2.114552e+06   1.024250e-37  1.470168e-314   0.000000e+00
     1264000   1.263999e-05   1.142491e+01   1.964455e+01   4.312531e+01   8.959577e+05   4.977019e+05   1.849563e+06  -1.635643e+01   2.944467e+01   5.680587e-22   2.114552e+06   1.223016e-38  1.470168e-314   0.000000e+00
     1272000   1.271999e-05   1.149658e+01   1.968437e+01   4.327327e+01   8.959577e+05   4.977019e+05   1.849563e+06   1.216765e+01  -2.190408e+01   4.036195e-20   2.114552e+06   6.760340e-39  1.470168e-314   0.000000e+00
     1280000   1.279999e-05   1.156826e+01   1.972418e+01   4.342124e+01   8.959577e+05   4.977019e+05   1.849563e+06  -3.697434e+01   6.656082e+01  -2.043669e-19   2.114552e+06   6.244656e-38  1.470168e-314   0.000000e+00
     1288000   1.287999e-05   1.163994e+01   1.976400e+01   4.356920e+01   8.959577e+05   4.977019e+05   1.849563e+06  -5.307101e+01   9.553787e+01   1.034104e-19   2.114552e+06   1.286314e-37  1.470168e-314   0.000000e+00
     1296000   1.295999e-05   1.171161e+01   1.980381e+01   4.371717e+01   8.959577e+05   4.977019e+05   1.849563e+06  -1.665258e+01   2.997780e+01  -2.449443e-21   2.114552e+06   1.267473e-38  1.470168e-314   0.000000e+00
     1304000   1.303999e-05   1.178329e+01   1.984363e+01   4.386513e+01   8.959577e+05   4.977019e+05   1.849563e+06  -4.832639e+01   8.699666e+01  -2.269625e-19   2.114552e+06   1.066395e-37  1.470168e-314   0.000000e+00
     1312000   1.311999e-05   1.185497e+01   1.988345e+01   4.401310e+01   8.959577e+05   4.977019e+05   1.849563e+06  -5.718274e+01   1.029398e+02  -3.100641e-19   2.114552e+06   1.493577e-37  1.470168e-314   0.000000e+00
     1320000   1.319999e-05   1.192664e+01   1.992326e+01   4.416106e+01   8.959577e+05   4.977019e+05   1.849563e+06  -3.081003e+01   5.546389e+01  -1.511857e-19   2.114552e+06   4.337211e-38  1.470168e-314   0.000000e+00
     1328000   1.327999e-05   1.199832e+01   1.996308e+01   4.430903e+01   8.959577e+05   4.977019e+05   1.849563e+06  -3.013527e+00   5.424920e+00   3.089630e-21   2.114552e+06   4.160913e-40  1.470168e-314   0.000000e+00
     1336000   1.335999e-05   1.206999e+01   2.000290e+01   4.445699e+01   8.959577e+05   4.977019e+05   1.849563e+06  -1.061479e+01   1.910864e+01   3.143226e-20   2.114552e+06   5.154470e-39  1.470168e-314   0.000000e+00
     1344000   1.343999e-05   1.214167e+01   2.004271e+01   4.460496e+01   8.959577e+05   4.977019e+05   1.849563e+06  -2.525236e+01   4.545903e+01  -4.645864e-20   2.114552e+06   2.911944e-38  1.470168e-314   0.000000e+00
     1352000   1.351999e-05   1.221335e+01   2.008253e+01   4.475292e+01   8.959577e+05   4.977019e+05   1.849563e+06  -4.356228e+01   7.842035e+01   5.604667e-20   2.114552e+06   8.668797e-38  1.470168e-314   0.000000e+00
     1360000   1.359999e-05   1.228502e+01   2.012234e+01   4.490089e+01   8.959577e+05   4.977019e+05   1.849563e+06  -2.806002e+01   5.051336e+01  -1.533604e-19   2.114552e+06   3.596419e-38  1.470168e-314   0.000000e+00
     1368000   1.367999e-05   1.235670e+01   2.016216e+01   4.504885e+01   8.959577e+05   4.977019e+05   1.849563e+06  -3.954161e+01   7.118239e+01   2.119002e-19   2.114552e+06   7.140877e-38  1.470168e-314   0.000000e+00
     1376000   1.375999e-05   1.242838e+01   2.020198e+01   4.519682e+01   8.959577e+05   4.977019e+05   1.849563e+06  -4.735190e+01   8.524240e+01  -2.164313e-19   2.114552e+06   1.024172e-37  1.470168e-314   0.000000e+00
     1384000   1.383999e-05   1.250005e+01   2.024179e+01   4.534478e+01   8.959577e+05   4.977019e+05   1.849563e+06  -4.892600e+01   8.807607e+01   3.128354e-19   2.114552e+06   1.093139e-37  1.470168e-314   0.000000e+00
     1392000   1.391999e-05   1.257173e+01   2.028161e+01   4.549275e+01   8.959577e+05   4.977019e+05   1.849563e+06  -4.875895e+01   8.777535e+01   2.673177e-19   2.114552e+06   1.085960e-37  1.470168e-314   0.000000e+00
     1400000   1.399999e-05   1.264341e+01   2.032142e+01   4.564071e+01   8.959577e+05   4.977019e+05   1.849563e+06  -5.834037e+01   1.050237e+02  -8.063878e-21   2.114552e+06   1.554593e-37  1.470168e-314   0.000000e+00
     1408000   1.407999e-05   1.271508e+01   2.036124e+01   4.578868e+01   8.959577e+05   4.977019e+05   1.849563e+06  -7.267288e+01   1.308250e+02   4.486381e-19   2.114552e+06   2.412371e-37  1.470168e-314   0.000000e+00
     1416000   1.415999e-05   1.278676e+01   2.040106e+01   4.593664e+01   8.959577e+05   4.977019e+05   1.849563e+06  -3.849917e+01   6.930580e+01  -6.223426e-21   2.114552e+06   6.772944e-38  1.470168e-314   0.000000e+00
     1424000   1.423999e-05   1.285844e+01   2.044087e+01   4.608461e+01   8.959577e+05   4.977019e+05   1.849563e+06  -5.395424e+01   9.712786e+01  -2.831023e-19   2.114552e+06   1.329759e-37  1.470168e-314   0.000000e+00
     1432000   1.431999e-05   1.293011e+01   2.048069e+01   4.623257e+01   8.959577e+05   4.977019e+05   1.849563e+06  -5.646849e+01   1.016540e+02   6.002007e-19   2.114552e+06   1.456717e-37  1.470168e-314   0.000000e+00
     1440000   1.439999e-05   1.300179e+01   2.052051e+01   4.638054e+01   8.959577e+05   4.977019e+05   1.849563e+06  -5.574719e+01   1.003555e+02  -1.290477e-19   2.114552e+06   1.419351e-37  1.470168e-314   0.000000e+00
     1448000   1.447999e-05   1.307347e+01   2.056032e+01   4.652850e+01   8.959577e+05   4.977019e+05   1.849563e+06  -6.529003e+01   1.175344e+02  -4.605714e-20   2.114552e+06   1.946906e-37  1.470168e-314   0.000000e+00
     1456000   1.455999e-05   1.314514e+01   2.060014e+01   4.667647e+01   8.959577e+05   4.977019e+05   1.849563e+06  -7.893080e+01   1.420904e+02   5.086627e-20   2.114552e+06   2.845335e-37  1.470168e-314   0.000000e+00
     1464000   1.463999e-05   1.321682e+01   2.063995e+01   4.682443e+01   8.959577e+05   4.977019e+05   1.849563e+06  -8.146321e+01   1.466492e+02   1.985932e-19   2.114552e+06   3.031156e-37  1.470168e-314   0.000000e+00
     1472000   1.471999e-05   1.328850e+01   2.067977e+01   4.697240e+01   8.959577e+05   4.977019e+05   1.849563e+06  -8.548022e+01   1.538806e+02   1.849171e-19   2.114552e+06   3.337525e-37  1.470168e-314   0.000000e+00
     1480000   1.479999e-05   1.336017e+01   2.071959e+01   4.712036e+01   8.959577e+05   4.977019e+05   1.849563e+06  -8.641433e+01   1.555622e+02   5.872355e-21   2.114552e+06   3.411014e-37  1.470168e-314   0.000000e+00
     1488000   1.487999e-05   1.343185e+01   2.075940e+01   4.726833e+01   8.959577e+05   4.977019e+05   1.849563e+06  -8.777150e+01   1.580053e+02  -5.040153e-19   2.114552e+06   3.519144e-37  1.470168e-314   0.000000e+00
     1496000   1.495999e-05   1.350353e+01   2.079922e+01   4.741629e+01   8.959577e+05   4.977019e+05   1.849563e+06  -7.860041e+01   1.414956e+02  -1.505308e-19   2.114552e+06   2.822118e-37  1.470168e-314   0.000000e+00
     1504000   1.503999e-05   1.357520e+01   2.083903e+01   4.756426e+01   8.959577e+05   4.977019e+05   1.849563e+06  -1.095212e+02   1.971589e+02   3.688406e-19   2.114552e+06   5.478665e-37  1.470168e-314   0.000000e+00
     1512000   1.511999e-05   1.364688e+01   2.087885e+01   4.771222e+01   8.959577e+05   4.977019e+05   1.849563e+06  -1.024668e+02   1.844596e+02  -6.704696e-19   2.114552e+06   4.796016e-37  1.470168e-314   0.000000e+00
     1520000   1.519999e-05   1.371856e+01   2.091867e+01   4.786019e+01   8.959577e+05   4.977019e+05   1.849563e+06  -1.111987e+02   2.001787e+02   1.895760e-19   2.114552e+06   5.648020e-37  1.470168e-314   0.000000e+00
     1528000   1.527999e-05   1.379023e+01   2.095848e+01   4.800815e+01   8.959577e+05   4.977019e+05   1.849563e+06  -1.106073e+02   1.991141e+02   4.510247e-19   2.114552e+06   5.588109e-37  1.470168e-314   0.000000e+00
     1536000   1.535999e-05   1.386191e+01   2.099830e+01   4.815612e+01   8.959577e+05   4.977019e+05   1.849563e+06  -8.516702e+01   1.533168e+02   4.209807e-20   2.114552e+06   3.313524e-37  1.470168e-314   0.000000e+00
     1544000   1.543999e-05   1.393359e+01   2.103812e+01   4.830408e+01   8.959577e+05   4.977019e+05   1.849563e+06  -1.482119e+02   2.668096e+02  -8.525500e-20   2.114552e+06   1.003235e-36  1.470168e-314   0.000000e+00
     1552000   1.551999e-05   1.400526e+01   2.107793e+01   4.845205e+01   8.959577e+05   4.977019e+05   1.849563e+06  -1.317805e+02   2.372298e+02   1.356160e-20   2.114552e+06   7.931888e-37  1.470168e-314   0.000000e+00
     1560000   1.559999e-05   1.407694e+01   2.111775e+01   4.860001e+01   8.959577e+05   4.977019e+05   1.849563e+06  -1.250643e+02   2.251395e+02   3.781067e-19   2.114552e+06   7.144452e-37  1.470168e-314   0.000000e+00
     1568000   1.567999e-05   1.414862e+01   2.115756e+01   4.874798e+01   8.959577e+05   4.977019e+05   1.849563e+06  -1.761020e+02   3.170170e+02   2.171433e-19   2.114552e+06   1.416431e-36  1.470168e-314   0.000000e+00
     1576000   1.575999e-05   1.422029e+01   2.119738e+01   4.889594e+01   8.959577e+05   4.977019e+05   1.849563e+06  -1.582301e+02   2.848442e+02   7.691964e-19   2.114552e+06   1.143571e-36  1.470168e-314   0.000000e+00
     1584000   1.583999e-05   1.429197e+01   2.123720e+01   4.904391e+01   8.959577e+05   4.977019e+05   1.849563e+06  -1.858122e+02   3.344971e+02  -7.586317e-19   2.114552e+06   1.576938e-36  1.470168e-314   0.000000e+00
     1592000   1.591999e-05   1.436365e+01   2.127701e+01   4.919187e+01   8.959577e+05   4.977019e+05   1.849563e+06  -2.040722e+02   3.673687e+02  -6.021770e-19   2.114552e+06   1.902130e-36  1.470168e-314   0.000000e+00
     1600000   1.599999e-05   1.443532e+01   2.131683e+01   4.933984e+01   8.959577e+05   4.977019e+05   1.849563e+06  -1.852175e+02   3.334266e+02  -5.590246e-19   2.114552e+06   1.566820e-36  1.470168e-314   0.000000e+00
     1608000   1.607999e-05   1.450700e+01   2.135664e+01   4.948780e+01   8.959577e+05   4.977019e+05   1.849563e+06  -1.711275e+02   3.080619e+02  -3.728536e-19   2.114552e+06   1.337693e-36  1.470168e-314   0.000000e+00
     1616000   1.615999e-05   1.457868e+01   2.139646e+01   4.963577e+01   8.959595e+05   4.976964e+05   1.849563e+06   1.429810e+08  -4.149267e+08   4.238963e+07   2.114552e+06   2.092537e-24  1.470168e-314   0.000000e+00
     1624000   1.623999e-05   1.465035e+01   2.143628e+01   4.978373e+01   8.959724e+05   4.976586e+05   1.849567e+06   1.776482e+08  -5.244132e+08   5.504577e+07   2.114552e+06   3.334915e-24  1.470168e-314   0.000000e+00
     1632000   1.631999e-05   1.472203e+01   2.147609e+01   4.993170e+01   8.959803e+05   4.976350e+05   1.849570e+06   0.000000e+00   0.000000e+00   0.000000e+00   2.114552e+06   0.000000e+00  1.470168e-314   0.000000e+00
