     timestep     time              x             y              z              vx             vy             vz             ax             ay             az         v_magnitude      ELoss        Electronic      Nuclear
           0   0.000000e+00   1.000000e-01   1.077595e+01   2.099692e+01   1.629685e+04  -3.417044e+04   1.524660e+06   0.000000e+00   0.000000e+00   0.000000e+00   1.525130e+06   0.000000e+00   0.000000e+00   0.000000e+00
        8000   7.999000e-08   1.013038e-01   1.077322e+01   2.111889e+01   1.629721e+04  -3.417027e+04   1.524660e+06   2.054983e+06   9.801064e+05   6.357067e-17   1.525130e+06   2.905402e-29  7.837550e-315  1.044266e-314
       16000   1.599900e-07   1.026075e-01   1.077048e+01   2.124086e+01   1.629738e+04  -3.417019e+04   1.524660e+06   4.702821e+06   2.242998e+06  -8.627818e-17   1.525130e+06   1.520816e-28  7.837550e-315  1.044266e-314
       24000   2.399900e-07   1.039113e-01   1.076775e+01   2.136284e+01   1.629766e+04  -3.417005e+04   1.524660e+06   9.651662e+05   4.603432e+05   1.827860e-17   1.525130e+06   6.411841e-30  7.837550e-315  1.044266e-314
       32000   3.199900e-07   1.052152e-01   1.076502e+01   2.148481e+01   1.629793e+04  -3.416992e+04   1.524660e+06   5.642382e+06   2.691230e+06  -6.355142e-16   1.525130e+06   2.189289e-28  7.837550e-315  1.044266e-314
       40000   3.999900e-07   1.065190e-01   1.076228e+01   2.160678e+01   1.629809e+04  -3.416985e+04   1.524660e+06   3.581644e+06   1.708347e+06   8.553226e-17   1.525130e+06   8.820875e-29  7.837550e-315  1.044266e-314
       48000   4.799900e-07   1.078229e-01   1.075955e+01   2.172876e+01   1.629842e+04  -3.416969e+04   1.524660e+06   1.860969e+06   8.876539e+05   7.443467e-17   1.525130e+06   2.382867e-29  7.837550e-315  1.044266e-314
       56000   5.599900e-07   1.091268e-01   1.075682e+01   2.185073e+01   1.629859e+04  -3.416961e+04   1.524660e+06   4.521207e+06   2.156575e+06   6.449396e-17   1.525130e+06   1.405661e-28  7.837550e-315  1.044266e-314
       64000   6.399900e-07   1.104307e-01   1.075408e+01   2.197270e+01   1.629884e+04  -3.416949e+04   1.524660e+06   7.711613e+05   3.678438e+05  -4.628034e-17   1.525130e+06   4.094212e-30  7.837550e-315  1.044266e-314
       72000   7.199900e-07   1.117346e-01   1.075135e+01   2.209467e+01   1.629911e+04  -3.416936e+04   1.524660e+06   5.460755e+06   2.604833e+06  -5.171023e-17   1.525130e+06   2.050671e-28  7.837550e-315  1.044266e-314
       80000   7.999900e-07   1.130385e-01   1.074862e+01   2.221665e+01   1.629926e+04  -3.416929e+04   1.524660e+06   3.400053e+06   1.621876e+06  -8.673054e-17   1.525130e+06   7.949274e-29  7.837550e-315  1.044266e-314
       88000   8.799900e-07   1.143425e-01   1.074588e+01   2.233862e+01   1.629955e+04  -3.416915e+04   1.524660e+06   1.666937e+06   7.951715e+05   1.015393e-17   1.525130e+06   1.912028e-29  7.837550e-315  1.044266e-314
       96000   9.599900e-07   1.156464e-01   1.074315e+01   2.246059e+01   1.629973e+04  -3.416906e+04   1.524660e+06   4.339603e+06   2.070129e+06   1.703254e-16   1.525130e+06   1.295039e-28  7.837550e-315  1.044266e-314
      104000   1.039990e-06   1.169504e-01   1.074041e+01   2.258256e+01   1.629995e+04  -3.416896e+04   1.524660e+06   5.771375e+05   2.753174e+05  -2.410258e-17   1.525130e+06   2.294020e-30  7.837550e-315  1.044266e-314
      112000   1.119990e-06   1.182544e-01   1.073768e+01   2.270454e+01   1.630022e+04  -3.416883e+04   1.524660e+06   2.562688e+06   1.222528e+06  -6.953853e-17   1.525130e+06   4.518407e-29  7.837550e-315  1.044266e-314
      120000   1.199990e-06   1.195584e-01   1.073495e+01   2.282651e+01   1.630035e+04  -3.416877e+04   1.524660e+06   3.218470e+06   1.535385e+06  -1.025217e-16   1.525130e+06   7.123002e-29  7.837550e-315  1.044266e-314
      128000   1.279990e-06   1.208625e-01   1.073221e+01   2.294848e+01   1.630062e+04  -3.416864e+04   1.524660e+06   1.472887e+06   7.026610e+05   9.511711e-17   1.525130e+06   1.492912e-29  7.837550e-315  1.044266e-314
      136000   1.359990e-06   1.221665e-01   1.072948e+01   2.307046e+01   1.630080e+04  -3.416856e+04   1.524660e+06   4.158009e+06   1.983662e+06   1.811323e-16   1.525130e+06   1.188949e-28  7.837550e-315  1.044266e-314
      144000   1.439990e-06   1.234706e-01   1.072675e+01   2.319243e+01   1.630098e+04  -3.416847e+04   1.524660e+06   3.830956e+05   1.827660e+05   5.339607e-17   1.525130e+06   1.011482e-30  7.837550e-315  1.044266e-314
      152000   1.519990e-06   1.247747e-01   1.072401e+01   2.331440e+01   1.630123e+04  -3.416835e+04   1.524660e+06   2.368614e+06   1.130032e+06  -3.737241e-17   1.525130e+06   3.860162e-29  7.837550e-315  1.044266e-314
      160000   1.599990e-06   1.260788e-01   1.072128e+01   2.343637e+01   1.630137e+04  -3.416828e+04   1.524660e+06   3.036897e+06   1.448875e+06   1.276853e-16   1.525130e+06   6.342060e-29  7.837550e-315  1.044266e-314
      168000   1.679990e-06   1.273829e-01   1.071855e+01   2.355835e+01   1.630160e+04  -3.416817e+04   1.524660e+06   1.278821e+06   6.101246e+05   1.105655e-17   1.525130e+06   1.125541e-29  7.837550e-315  1.044266e-314
      176000   1.759990e-06   1.286871e-01   1.071581e+01   2.368032e+01   1.630178e+04  -3.416809e+04   1.524660e+06   3.976425e+06   1.897174e+06  -4.299101e-16   1.525130e+06   1.087392e-28  7.837550e-315  1.044266e-314
      184000   1.839990e-06   1.299912e-01   1.071308e+01   2.380229e+01   1.630194e+04  -3.416801e+04   1.524660e+06   1.915802e+06   9.140504e+05  -1.664955e-16   1.525130e+06   2.523572e-29  7.837550e-315  1.044266e-314
      192000   1.919990e-06   1.312954e-01   1.071035e+01   2.392427e+01   1.630218e+04  -3.416790e+04   1.524660e+06   2.174526e+06   1.037509e+06  -1.637332e-18   1.525130e+06   3.253643e-29  7.837550e-315  1.044266e-314
      200000   1.999990e-06   1.325995e-01   1.070761e+01   2.404624e+01   1.630231e+04  -3.416784e+04   1.524660e+06   2.855331e+06   1.362348e+06   7.165245e-17   1.525130e+06   5.606448e-29  7.837550e-315  1.044266e-314
      208000   2.079990e-06   1.339037e-01   1.070488e+01   2.416821e+01   1.630252e+04  -3.416773e+04   1.524660e+06   1.084740e+06   5.175643e+05   3.647712e-17   1.525130e+06   8.099365e-30  7.837550e-315  1.044266e-314
      216000   2.159990e-06   1.352079e-01   1.070215e+01   2.429018e+01   1.630269e+04  -3.416765e+04   1.524660e+06   3.794850e+06   1.810668e+06   6.507664e-17   1.525130e+06   9.903688e-29  7.837550e-315  1.044266e-314
      224000   2.239990e-06   1.365122e-01   1.069941e+01   2.441216e+01   1.630287e+04  -3.416757e+04   1.524660e+06   1.547302e+03   7.382870e+02   1.372537e-19   1.525130e+06   2.563200e-35  7.837550e-315  1.044266e-314
      232000   2.319990e-06   1.378164e-01   1.069668e+01   2.453413e+01   1.630291e+04  -3.416755e+04   1.524660e+06   4.733341e+06   2.258495e+06   1.629597e-16   1.525130e+06   1.540860e-28  7.837550e-315  1.044266e-314
      240000   2.399990e-06   1.391206e-01   1.069395e+01   2.465610e+01   1.630313e+04  -3.416744e+04   1.524660e+06  -1.084470e+06  -5.174592e+05   9.454519e-18   1.525130e+06   8.084016e-30  7.837550e-315  1.044266e-314
      248000   2.479990e-06   1.404249e-01   1.069121e+01   2.477807e+01   1.630333e+04  -3.416735e+04   1.524660e+06   5.669598e+06   2.705311e+06   5.159455e-16   1.525130e+06   2.210796e-28  7.837550e-315  1.044266e-314
      256000   2.559990e-06   1.417292e-01   1.068848e+01   2.490005e+01   1.630335e+04  -3.416734e+04   1.524660e+06   3.616122e+06   1.725476e+06  -8.874329e-17   1.525130e+06   8.992862e-29  7.837550e-315  1.044266e-314
      264000   2.639990e-06   1.430335e-01   1.068575e+01   2.502202e+01   1.630367e+04  -3.416718e+04   1.524660e+06  -1.918759e+05  -9.155807e+04   3.313511e-17   1.525130e+06   2.522380e-31  7.837550e-315  1.044266e-314
      272000   2.719990e-06   1.443377e-01   1.068301e+01   2.514399e+01   1.630373e+04  -3.416716e+04   1.524660e+06   4.552382e+06   2.172285e+06   2.713355e-16   1.525130e+06   1.425319e-28  7.837550e-315  1.044266e-314
      280000   2.799990e-06   1.456421e-01   1.068028e+01   2.526597e+01   1.630390e+04  -3.416708e+04   1.524660e+06  -1.277888e+06  -6.097847e+05  -5.144332e-17   1.525130e+06   1.122622e-29  7.837550e-315  1.044266e-314
      288000   2.879990e-06   1.469464e-01   1.067755e+01   2.538794e+01   1.630412e+04  -3.416697e+04   1.524660e+06   5.488631e+06   2.619116e+06   1.461071e-16   1.525130e+06   2.071953e-28  7.837550e-315  1.044266e-314
      296000   2.959990e-06   1.482507e-01   1.067481e+01   2.550991e+01   1.630413e+04  -3.416697e+04   1.524660e+06   3.435178e+06   1.639232e+06   2.360814e-16   1.525130e+06   8.115495e-29  7.837550e-315  1.044266e-314
      304000   3.039990e-06   1.495550e-01   1.067208e+01   2.563188e+01   1.630439e+04  -3.416684e+04   1.524660e+06  -3.853127e+05  -1.838710e+05  -4.217830e-19   1.525130e+06   1.019241e-30  7.837550e-315  1.044266e-314
      312000   3.119990e-06   1.508594e-01   1.066935e+01   2.575386e+01   1.630447e+04  -3.416680e+04   1.524660e+06   4.371431e+06   2.086056e+06  -3.220335e-16   1.525130e+06   1.314281e-28  7.837550e-315  1.044266e-314
      320000   3.199990e-06   1.521638e-01   1.066661e+01   2.587583e+01   1.630459e+04  -3.416674e+04   1.524660e+06  -1.471320e+06  -7.021237e+05  -6.325913e-17   1.525130e+06   1.488350e-29  7.837550e-315  1.044266e-314
      328000   3.279990e-06   1.534681e-01   1.066388e+01   2.599780e+01   1.630483e+04  -3.416663e+04   1.524660e+06   5.307673e+06   2.532901e+06   2.653027e-16   1.525130e+06   1.937612e-28  7.837550e-315  1.044266e-314
      336000   3.359990e-06   1.547725e-01   1.066115e+01   2.611978e+01   1.630482e+04  -3.416663e+04   1.524660e+06   3.254242e+06   1.552972e+06  -2.246673e-17   1.525130e+06   7.283151e-29  7.837550e-315  1.044266e-314
      344000   3.439990e-06   1.560769e-01   1.065841e+01   2.624175e+01   1.630504e+04  -3.416653e+04   1.524660e+06  -5.787620e+05  -2.761984e+05  -4.364129e-17   1.525130e+06   2.301161e-30  7.837550e-315  1.044266e-314
      352000   3.519990e-06   1.573813e-01   1.065568e+01   2.636372e+01   1.630514e+04  -3.416649e+04   1.524660e+06   4.190488e+06   1.999810e+06  -1.579031e-16   1.525130e+06   1.207744e-28  7.837550e-315  1.044266e-314
      360000   3.599990e-06   1.586857e-01   1.065295e+01   2.648569e+01   1.630521e+04  -3.416645e+04   1.524660e+06  -1.664766e+06  -7.944743e+05  -5.734479e-17   1.525130e+06   1.905595e-29  7.837550e-315  1.044266e-314
      368000   3.679990e-06   1.599902e-01   1.065021e+01   2.660767e+01   1.630544e+04  -3.416634e+04   1.524660e+06   3.137804e+05   1.497476e+05   6.530702e-18   1.525130e+06   6.789509e-31  7.837550e-315  1.044266e-314
      376000   3.759990e-06   1.612946e-01   1.064748e+01   2.672964e+01   1.630544e+04  -3.416634e+04   1.524660e+06   3.073312e+06   1.466698e+06   1.579354e-16   1.525130e+06   6.495830e-29  7.837550e-315  1.044266e-314
      384000   3.839990e-06   1.625990e-01   1.064475e+01   2.685161e+01   1.630562e+04  -3.416625e+04   1.524660e+06  -7.722227e+05  -3.685382e+05  -7.482960e-19   1.525130e+06   4.098107e-30  7.837550e-315  1.044266e-314
      392000   3.919990e-06   1.639035e-01   1.064201e+01   2.697358e+01   1.630573e+04  -3.416620e+04   1.524660e+06   4.009552e+06   1.913548e+06  -1.640633e-16   1.525130e+06   1.105710e-28  7.837550e-315  1.044266e-314
      400000   3.999990e-06   1.652080e-01   1.063928e+01   2.709556e+01   1.630576e+04  -3.416619e+04   1.524660e+06  -1.858223e+06  -8.868343e+05   1.837275e-16   1.525130e+06   2.374365e-29  7.837550e-315  1.044266e-314
      408000   4.079990e-06   1.665124e-01   1.063655e+01   2.721753e+01   1.630598e+04  -3.416608e+04   1.524660e+06   1.203060e+05   5.741676e+04   1.197017e-17   1.525130e+06   1.002003e-31  7.837550e-315  1.044266e-314
      416000   4.159990e-06   1.678169e-01   1.063381e+01   2.733950e+01   1.630599e+04  -3.416608e+04   1.524660e+06   2.892388e+06   1.380411e+06   1.000478e-16   1.525130e+06   5.753532e-29  7.837550e-315  1.044266e-314
      424000   4.239990e-06   1.691214e-01   1.063108e+01   2.746148e+01   1.630613e+04  -3.416601e+04   1.524660e+06  -9.656937e+05  -4.608885e+05  -5.385894e-17   1.525130e+06   6.410169e-30  7.837550e-315  1.044266e-314
      432000   4.319990e-06   1.704259e-01   1.062835e+01   2.758345e+01   1.630624e+04  -3.416596e+04   1.524660e+06   3.828624e+06   1.827271e+06   3.078099e-17   1.525130e+06   1.008178e-28  7.837550e-315  1.044266e-314
      440000   4.399990e-06   1.717304e-01   1.062561e+01   2.770542e+01   1.630625e+04  -3.416595e+04   1.524660e+06   1.775232e+06   8.472579e+05  -2.108207e-17   1.525130e+06   2.167026e-29  7.837550e-315  1.044266e-314
      448000   4.479990e-06   1.730349e-01   1.062288e+01   2.782739e+01   1.630644e+04  -3.416587e+04   1.524660e+06  -7.317712e+04  -3.492544e+04   2.429383e-19   1.525130e+06   3.645280e-32  7.837550e-315  1.044266e-314
      456000   4.559990e-06   1.743394e-01   1.062015e+01   2.794937e+01   1.630646e+04  -3.416586e+04   1.524660e+06   2.711470e+06   1.294113e+06   2.014062e-16   1.525130e+06   5.056257e-29  7.837550e-315  1.044266e-314
      464000   4.639990e-06   1.756439e-01   1.061741e+01   2.807134e+01   1.630656e+04  -3.416581e+04   1.524660e+06  -1.159174e+06  -5.532471e+05   4.333870e-17   1.525130e+06   9.237419e-30  7.837550e-315  1.044266e-314
      472000   4.719990e-06   1.769485e-01   1.061468e+01   2.819331e+01   1.630668e+04  -3.416575e+04   1.524660e+06   3.647702e+06   1.740980e+06   2.228998e-16   1.525130e+06   9.151486e-29  7.837550e-315  1.044266e-314
      480000   4.799990e-06   1.782530e-01   1.061195e+01   2.831528e+01   1.630667e+04  -3.416575e+04   1.524660e+06   1.594323e+06   7.609403e+05   9.191017e-18   1.525130e+06   1.747796e-29  7.837550e-315  1.044266e-314
      488000   4.879990e-06   1.795575e-01   1.060921e+01   2.843726e+01   1.630682e+04  -3.416568e+04   1.524660e+06  -2.666677e+05  -1.272769e+05   6.127721e-18   1.525130e+06   4.877936e-31  7.837550e-315  1.044266e-314
      496000   4.959990e-06   1.808621e-01   1.060648e+01   2.855923e+01   1.630685e+04  -3.416567e+04   1.524660e+06   2.530557e+06   1.207803e+06  -4.555668e-17   1.525130e+06   4.404006e-29  7.837550e-315  1.044266e-314
      504000   5.039990e-06   1.821666e-01   1.060375e+01   2.868120e+01   1.630691e+04  -3.416564e+04   1.524660e+06  -1.352662e+06  -6.456120e+05  -5.208419e-18   1.525130e+06   1.257991e-29  7.837550e-315  1.044266e-314
      512000   5.119990e-06   1.834712e-01   1.060101e+01   2.880318e+01   1.630704e+04  -3.416558e+04   1.524660e+06   6.258294e+05   2.987048e+05   1.254750e-17   1.525130e+06   2.697676e-30  7.837550e-315  1.044266e-314
      520000   5.199990e-06   1.847758e-01   1.059828e+01   2.892515e+01   1.630718e+04  -3.416551e+04   1.524660e+06  -2.423658e+06  -1.156810e+06   1.449698e-16   1.525130e+06   4.039743e-29  7.837550e-315  1.044266e-314
      528000   5.279990e-06   1.860803e-01   1.059555e+01   2.904712e+01   1.630713e+04  -3.416553e+04   1.524660e+06   4.403070e+06   2.101575e+06   2.217091e-16   1.525130e+06   1.333476e-28  7.837550e-315  1.044266e-314
      536000   5.359990e-06   1.873849e-01   1.059281e+01   2.916909e+01   1.630719e+04  -3.416551e+04   1.524660e+06  -3.505897e+06  -1.673364e+06  -3.594677e-17   1.525130e+06   8.453798e-29  7.837550e-315  1.044266e-314
      544000   5.439990e-06   1.886895e-01   1.059008e+01   2.929107e+01   1.630736e+04  -3.416542e+04   1.524660e+06   5.336046e+06   2.546927e+06  -3.524214e-16   1.525130e+06   1.958523e-28  7.837550e-315  1.044266e-314
      552000   5.519990e-06   1.899941e-01   1.058735e+01   2.941304e+01   1.630722e+04  -3.416549e+04   1.524660e+06   3.289792e+06   1.570221e+06  -1.726051e-17   1.525130e+06   7.443673e-29  7.837550e-315  1.044266e-314
      560000   5.599990e-06   1.912987e-01   1.058461e+01   2.953501e+01   1.630742e+04  -3.416540e+04   1.524660e+06  -2.616488e+06  -1.248871e+06   4.016881e-17   1.525130e+06   4.708276e-29  7.837550e-315  1.044266e-314
      568000   5.679990e-06   1.926032e-01   1.058188e+01   2.965699e+01   1.630741e+04  -3.416540e+04   1.524660e+06   4.222773e+06   2.015563e+06   3.743441e-02   1.525130e+06   1.226506e-28  7.837550e-315  1.044266e-314
      576000   5.759990e-06   1.939078e-01   1.057915e+01   2.977896e+01   1.630740e+04  -3.416541e+04   1.524660e+06  -3.698729e+06  -1.765428e+06   5.672699e-02   1.525130e+06   9.409486e-29  7.837550e-315  1.044266e-314
      584000   5.839990e-06   1.952124e-01   1.057641e+01   2.990093e+01   1.630661e+04  -3.416396e+04   1.524660e+06   1.734678e+04   8.279614e+03  -1.816319e-03   1.525130e+06   2.001709e-33  7.837550e-315  1.044266e-314
      592000   5.919990e-06   1.965169e-01   1.057368e+01   3.002290e+01   1.630688e+04  -3.416423e+04   1.524660e+06   1.448931e+07  -1.944341e+07  -5.906529e+05   1.525130e+06   3.296409e-27  7.837550e-315  1.044266e-314
      600000   5.999990e-06   1.978215e-01   1.057095e+01   3.014488e+01   1.630759e+04  -3.416521e+04   1.524660e+06  -2.809319e+06  -1.340929e+06   7.466537e-02   1.525130e+06   5.427967e-29  7.837550e-315  1.044266e-314
      608000   6.079990e-06   1.991261e-01   1.056821e+01   3.026685e+01   1.630761e+04  -3.416520e+04   1.524660e+06   4.042477e+06   1.929540e+06   7.587574e-18   1.525130e+06   1.124006e-28  7.837550e-315  1.044266e-314
      616000   6.159990e-06   2.004307e-01   1.056548e+01   3.038882e+01   1.630765e+04  -3.416518e+04   1.524660e+06   9.696656e+05   4.628387e+05  -1.664139e-17   1.525130e+06   6.467173e-30  7.837550e-315  1.044266e-314
      624000   6.239990e-06   2.017354e-01   1.056275e+01   3.051079e+01   1.630766e+04  -3.416518e+04   1.524660e+06   4.627907e+05   2.208984e+05  -1.077623e-17   1.525130e+06   1.472815e-30  7.837550e-315  1.044266e-314
      632000   6.319990e-06   2.030400e-01   1.056002e+01   3.063277e+01   1.630770e+04  -3.416516e+04   1.524660e+06   2.631069e+04   1.255861e+04  -6.334086e-19   1.525130e+06   4.796622e-33  7.837550e-315  1.044266e-314
      640000   6.399990e-06   2.043446e-01   1.055728e+01   3.075474e+01   1.630771e+04  -3.416515e+04   1.524660e+06   7.041487e+05   3.361043e+05  -1.070198e-17   1.525130e+06   3.410110e-30  7.837550e-315  1.044266e-314
      648000   6.479990e-06   2.056492e-01   1.055455e+01   3.087671e+01   1.630774e+04  -3.416514e+04   1.524660e+06  -2.315406e+05  -1.105192e+05  -1.551400e-17   1.525130e+06   3.685146e-31  7.837550e-315  1.044266e-314
      656000   6.559990e-06   2.069538e-01   1.055182e+01   3.099869e+01   1.630778e+04  -3.416512e+04   1.524660e+06   9.455062e+05   4.513112e+05  -5.716943e-17   1.525130e+06   6.148917e-30  7.837550e-315  1.044266e-314
      664000   6.639990e-06   2.082584e-01   1.054908e+01   3.112066e+01   1.630778e+04  -3.416512e+04   1.524660e+06   4.386322e+05   2.093690e+05   6.149990e-19   1.525130e+06   1.323036e-30  7.837550e-315  1.044266e-314
      672000   6.719990e-06   2.095631e-01   1.054635e+01   3.124263e+01   1.630782e+04  -3.416510e+04   1.524660e+06   9.235741e+03   4.408440e+03  -4.041494e-19   1.525130e+06   5.988908e-34  7.837550e-315  1.044266e-314
      680000   6.799990e-06   2.108677e-01   1.054362e+01   3.136460e+01   1.630783e+04  -3.416509e+04   1.524660e+06   6.799899e+05   3.245757e+05   1.798615e-17   1.525130e+06   3.180108e-30  7.837550e-315  1.044266e-314
      688000   6.879990e-06   2.121723e-01   1.054088e+01   3.148658e+01   1.630785e+04  -3.416508e+04   1.524660e+06  -2.486153e+05  -1.186703e+05   5.491924e-18   1.525130e+06   4.248953e-31  7.837550e-315  1.044266e-314
      696000   6.959990e-06   2.134770e-01   1.053815e+01   3.160855e+01   1.630789e+04  -3.416507e+04   1.524660e+06   2.500114e+05   1.193370e+05  -7.658924e-18   1.525130e+06   4.303336e-31  7.837550e-315  1.044266e-314
      704000   7.039990e-06   2.147816e-01   1.053542e+01   3.173052e+01   1.630789e+04  -3.416507e+04   1.524660e+06   4.144740e+05   1.978394e+05  -4.181353e-18   1.525130e+06   1.181288e-30  7.837550e-315  1.044266e-314
      712000   7.119990e-06   2.160862e-01   1.053268e+01   3.185250e+01   1.630793e+04  -3.416505e+04   1.524660e+06  -7.839576e+03  -3.742047e+03   3.524762e-19   1.525130e+06   4.126694e-34  7.837550e-315  1.044266e-314
      720000   7.199990e-06   2.173909e-01   1.052995e+01   3.197447e+01   1.630794e+04  -3.416504e+04   1.524660e+06   6.558314e+05   3.130469e+05   5.703754e-17   1.525130e+06   2.958137e-30  7.837550e-315  1.044266e-314
      728000   7.279990e-06   2.186955e-01   1.052722e+01   3.209644e+01   1.630796e+04  -3.416503e+04   1.524660e+06  -2.656904e+05  -1.268217e+05   5.241757e-18   1.525130e+06   4.852889e-31  7.837550e-315  1.044266e-314
      736000   7.359990e-06   2.200001e-01   1.052448e+01   3.221841e+01   1.630799e+04  -3.416502e+04   1.524660e+06   2.329355e+05   1.111871e+05  -1.802139e-17   1.525130e+06   3.735789e-31  7.837550e-315  1.044266e-314
      744000   7.439990e-06   2.213048e-01   1.052175e+01   3.234039e+01   1.630800e+04  -3.416502e+04   1.524660e+06   3.903161e+05   1.863097e+05   8.708049e-18   1.525130e+06   1.047570e-30  7.837550e-315  1.044266e-314
      752000   7.519990e-06   2.226094e-01   1.051902e+01   3.246236e+01   1.630803e+04  -3.416500e+04   1.524660e+06  -2.491523e+04  -1.189282e+04   1.499352e-19   1.525130e+06   4.238245e-33  7.837550e-315  1.044266e-314
      760000   7.599990e-06   2.239140e-01   1.051628e+01   3.258433e+01   1.630804e+04  -3.416499e+04   1.524660e+06   6.316732e+05   3.015178e+05   6.534657e-17   1.525130e+06   2.744197e-30  7.837550e-315  1.044266e-314
      768000   7.679990e-06   2.252187e-01   1.051355e+01   3.270630e+01   1.630805e+04  -3.416499e+04   1.524660e+06   1.248012e+05   5.957165e+04   8.260865e-18   1.525130e+06   1.069906e-31  7.837550e-315  1.044266e-314
      776000   7.759990e-06   2.265233e-01   1.051082e+01   3.282828e+01   1.630809e+04  -3.416497e+04   1.524660e+06   2.158593e+05   1.030369e+05   2.648273e-18   1.525130e+06   3.208349e-31  7.837550e-315  1.044266e-314
      784000   7.839990e-06   2.278280e-01   1.050808e+01   3.295025e+01   1.630809e+04  -3.416497e+04   1.524660e+06   3.661583e+05   1.747797e+05   3.501667e-17   1.525130e+06   9.218826e-31  7.837550e-315  1.044266e-314
      792000   7.919990e-06   2.291326e-01   1.050535e+01   3.307222e+01   1.630812e+04  -3.416496e+04   1.524660e+06  -4.199121e+04  -2.004386e+04  -3.889971e-19   1.525130e+06   1.207587e-32  7.837550e-315  1.044266e-314
      800000   7.999990e-06   2.304373e-01   1.050262e+01   3.319420e+01   1.630814e+04  -3.416495e+04   1.524660e+06   6.075152e+05   2.899884e+05   2.236177e-19   1.525130e+06   2.538287e-30  7.837550e-315  1.044266e-314
      808000   8.079990e-06   2.317419e-01   1.049988e+01   3.331617e+01   1.630814e+04  -3.416495e+04   1.524660e+06  -2.988035e+05  -1.426295e+05  -1.715832e-17   1.525130e+06   6.138435e-31  7.837550e-315  1.044266e-314
      816000   8.159990e-06   2.330466e-01   1.049715e+01   3.343814e+01   1.630813e+04  -3.416495e+04   1.524660e+06   8.481069e+05   4.048312e+05  -6.415219e-17   1.525130e+06   4.947273e-30  7.837550e-315  1.044266e-314
      824000   8.239990e-06   2.343512e-01   1.049442e+01   3.356011e+01   1.630816e+04  -3.416494e+04   1.524660e+06  -5.557617e+05  -2.652851e+05  -9.139631e-18   1.525130e+06   2.124175e-30  7.837550e-315  1.044266e-314
      832000   8.319990e-06   2.356559e-01   1.049168e+01   3.368209e+01   1.630819e+04  -3.416492e+04   1.524660e+06   1.088628e+06   5.196424e+05  -1.613215e-17   1.525130e+06   8.151642e-30  7.837550e-315  1.044266e-314
      840000   8.399990e-06   2.369605e-01   1.048895e+01   3.380406e+01   1.630817e+04  -3.416493e+04   1.524660e+06   5.835104e+05   2.785308e+05   6.413762e-17   1.525130e+06   2.341634e-30  7.837550e-315  1.044266e-314
      848000   8.479990e-06   2.382652e-01   1.048622e+01   3.392603e+01   1.630822e+04  -3.416491e+04   1.524660e+06  -3.158206e+05  -1.507533e+05   3.014123e-17   1.525130e+06   6.857770e-31  7.837550e-315  1.044266e-314
      856000   8.559990e-06   2.395699e-01   1.048349e+01   3.404800e+01   1.630822e+04  -3.416491e+04   1.524660e+06   8.240313e+05   3.933416e+05  -4.831995e-17   1.525130e+06   4.670360e-30  7.837550e-315  1.044266e-314
      864000   8.639990e-06   2.408745e-01   1.048075e+01   3.416998e+01   1.630823e+04  -3.416490e+04   1.524660e+06  -5.727786e+05  -2.734095e+05  -4.517771e-18   1.525130e+06   2.256275e-30  7.837550e-315  1.044266e-314
      872000   8.719990e-06   2.421792e-01   1.047802e+01   3.429195e+01   1.630827e+04  -3.416489e+04   1.524660e+06   1.064552e+06   5.081532e+05  -6.873144e-18   1.525130e+06   7.795058e-30  7.837550e-315  1.044266e-314
      880000   8.799990e-06   2.434838e-01   1.047529e+01   3.441392e+01   1.630825e+04  -3.416489e+04   1.524660e+06   5.594352e+05   2.670405e+05  -1.595861e-17   1.525130e+06   2.152368e-30  7.837550e-315  1.044266e-314
      888000   8.879990e-06   2.447885e-01   1.047255e+01   3.453590e+01   1.630829e+04  -3.416488e+04   1.524660e+06  -3.328380e+05  -1.588772e+05  -2.164410e-17   1.525130e+06   7.616963e-31  7.837550e-315  1.044266e-314
      896000   8.959990e-06   2.460932e-01   1.046982e+01   3.465787e+01   1.630829e+04  -3.416487e+04   1.524660e+06   7.999559e+05   3.818517e+05   2.991991e-17   1.525130e+06   4.401422e-30  7.837550e-315  1.044266e-314
      904000   9.039990e-06   2.473978e-01   1.046709e+01   3.477984e+01   1.630830e+04  -3.416487e+04   1.524660e+06  -5.897959e+05  -2.815339e+05   1.253611e-17   1.525130e+06   2.392362e-30  7.837550e-315  1.044266e-314
      912000   9.119990e-06   2.487025e-01   1.046435e+01   3.490181e+01   1.630834e+04  -3.416485e+04   1.524660e+06  -9.289780e+04  -4.434407e+04   2.897989e-18   1.525130e+06   5.925049e-32  7.837550e-315  1.044266e-314
      920000   9.199990e-06   2.500072e-01   1.046162e+01   3.502379e+01   1.630832e+04  -3.416486e+04   1.524660e+06   5.353602e+05   2.555499e+05   1.244225e-17   1.525130e+06   1.971076e-30  7.837550e-315  1.044266e-314
      928000   9.279990e-06   2.513118e-01   1.045889e+01   3.514576e+01   1.630835e+04  -3.416485e+04   1.524660e+06  -3.498556e+05  -1.670011e+05  -4.506001e-17   1.525130e+06   8.416015e-31  7.837550e-315  1.044266e-314
      936000   9.359990e-06   2.526165e-01   1.045615e+01   3.526773e+01   1.630836e+04  -3.416484e+04   1.524660e+06   7.758808e+05   3.703615e+05  -2.244445e-17   1.525130e+06   4.140460e-30  7.837550e-315  1.044266e-314
      944000   9.439990e-06   2.539212e-01   1.045342e+01   3.538971e+01   1.630836e+04  -3.416484e+04   1.524660e+06  -6.068134e+05  -2.896583e+05   1.934007e-17   1.525130e+06   2.532435e-30  7.837550e-315  1.044266e-314
      952000   9.519990e-06   2.552258e-01   1.045069e+01   3.551168e+01   1.630840e+04  -3.416483e+04   1.524660e+06  -1.099158e+05  -5.246770e+04   1.374950e-18   1.525130e+06   8.297331e-32  7.837550e-315  1.044266e-314
      960000   9.599990e-06   2.565305e-01   1.044795e+01   3.563365e+01   1.630838e+04  -3.416483e+04   1.524660e+06   5.112854e+05   2.440591e+05  -2.267032e-17   1.525130e+06   1.797760e-30  7.837550e-315  1.044266e-314
      968000   9.679990e-06   2.578352e-01   1.044522e+01   3.575562e+01   1.630841e+04  -3.416482e+04   1.524660e+06  -3.668735e+05  -1.751252e+05  -7.834499e-18   1.525130e+06   9.254926e-31  7.837550e-315  1.044266e-314
      976000   9.759990e-06   2.591398e-01   1.044249e+01   3.587760e+01   1.630842e+04  -3.416481e+04   1.524660e+06   7.518059e+05   3.588711e+05  -1.946814e-17   1.525130e+06   3.887473e-30  7.837550e-315  1.044266e-314
      984000   9.839990e-06   2.604445e-01   1.043975e+01   3.599957e+01   1.630841e+04  -3.416482e+04   1.524660e+06  -6.238312e+05  -2.977828e+05   4.770171e-17   1.525130e+06   2.676495e-30  7.837550e-315  1.044266e-314
      992000   9.919990e-06   2.617492e-01   1.043702e+01   3.612154e+01   1.630844e+04  -3.416480e+04   1.524660e+06  -1.269340e+05  -6.059146e+04  -4.054706e-18   1.525130e+06   1.106814e-31  7.837550e-315  1.044266e-314
     1000000   9.999990e-06   2.630539e-01   1.043429e+01   3.624351e+01   1.630844e+04  -3.416481e+04   1.524660e+06   4.872108e+05   2.325682e+05   2.558708e-17   1.525130e+06   1.632418e-30  7.837550e-315  1.044266e-314
     1008000   1.007999e-05   2.643585e-01   1.043155e+01   3.636549e+01   1.630845e+04  -3.416480e+04   1.524660e+06  -3.838916e+05  -1.832494e+05  -8.895883e-18   1.525130e+06   1.013370e-30  7.837550e-315  1.044266e-314
     1016000   1.015999e-05   2.656632e-01   1.042882e+01   3.648746e+01   1.630847e+04  -3.416479e+04   1.524660e+06   7.277311e+05   3.473804e+05   3.519704e-17   1.525130e+06   3.642461e-30  7.837550e-315  1.044266e-314
     1024000   1.023999e-05   2.669679e-01   1.042609e+01   3.660943e+01   1.630846e+04  -3.416480e+04   1.524660e+06   2.226159e+05   1.062650e+05   7.245794e-18   1.525130e+06   3.406533e-31  7.837550e-315  1.044266e-314
     1032000   1.031999e-05   2.682726e-01   1.042336e+01   3.673141e+01   1.630849e+04  -3.416478e+04   1.524660e+06  -1.439523e+05  -6.871532e+04  -8.818898e-18   1.525130e+06   1.423747e-31  7.837550e-315  1.044266e-314
     1040000   1.039999e-05   2.695773e-01   1.042062e+01   3.685338e+01   1.630848e+04  -3.416478e+04   1.524660e+06   4.631363e+05   2.210770e+05  -1.580257e-17   1.525130e+06   1.475052e-30  7.837550e-315  1.044266e-314
     1048000   1.047999e-05   2.708819e-01   1.041789e+01   3.697535e+01   1.630849e+04  -3.416478e+04   1.524660e+06  -4.009098e+05  -1.913735e+05   3.360234e-18   1.525130e+06   1.105233e-30  7.837550e-315  1.044266e-314
     1056000   1.055999e-05   2.721866e-01   1.041516e+01   3.709732e+01   1.630851e+04  -3.416477e+04   1.524660e+06   7.036566e+05   3.358895e+05   2.499514e-17   1.525130e+06   3.405423e-30  7.837550e-315  1.044266e-314
     1064000   1.063999e-05   2.734913e-01   1.041242e+01   3.721930e+01   1.630850e+04  -3.416478e+04   1.524660e+06   1.985416e+05   9.477349e+04  -1.314184e-17   1.525130e+06   2.709317e-31  7.837550e-315  1.044266e-314
     1072000   1.071999e-05   2.747960e-01   1.040969e+01   3.734127e+01   1.630852e+04  -3.416477e+04   1.524660e+06  -1.609708e+05  -7.683925e+04  -1.306531e-17   1.525130e+06   1.780534e-31  7.837550e-315  1.044266e-314
     1080000   1.079999e-05   2.761007e-01   1.040696e+01   3.746324e+01   1.630852e+04  -3.416477e+04   1.524660e+06   4.390620e+05   2.095858e+05  -1.841538e-17   1.525130e+06   1.325660e-30  7.837550e-315  1.044266e-314
     1088000   1.087999e-05   2.774053e-01   1.040422e+01   3.758522e+01   1.630852e+04  -3.416477e+04   1.524660e+06  -4.179283e+05  -1.994977e+05  -1.388687e-17   1.525130e+06   1.201082e-30  7.837550e-315  1.044266e-314
     1096000   1.095999e-05   2.787100e-01   1.040149e+01   3.770719e+01   1.630854e+04  -3.416476e+04   1.524660e+06   7.896804e+04   3.769538e+04   3.931231e-18   1.525130e+06   4.300349e-32  7.837550e-315  1.044266e-314
     1104000   1.103999e-05   2.800147e-01   1.039876e+01   3.782916e+01   1.630854e+04  -3.416476e+04   1.524660e+06  -6.725435e+05  -3.210385e+05   1.166901e-17   1.525130e+06   3.110889e-30  7.837550e-315  1.044266e-314
     1112000   1.111999e-05   2.813194e-01   1.039602e+01   3.795113e+01   1.630853e+04  -3.416476e+04   1.524660e+06   9.190781e+05   4.387213e+05  -2.710873e-17   1.525130e+06   5.810078e-30  7.837550e-315  1.044266e-314
     1120000   1.119999e-05   2.826241e-01   1.039329e+01   3.807311e+01   1.630853e+04  -3.416476e+04   1.524660e+06  -9.286090e+05  -4.432709e+05   1.923664e-17   1.525130e+06   5.931203e-30  7.837550e-315  1.044266e-314
     1128000   1.127999e-05   2.839287e-01   1.039056e+01   3.819508e+01   1.630856e+04  -3.416475e+04   1.524660e+06   1.158763e+06   5.531360e+05  -7.738912e-17   1.525130e+06   9.236015e-30  7.837550e-315  1.044266e-314
     1136000   1.135999e-05   2.852334e-01   1.038782e+01   3.831705e+01   1.630852e+04  -3.416476e+04   1.524660e+06   6.554017e+05   3.128555e+05  -6.319784e-17   1.525130e+06   2.954316e-30  7.837550e-315  1.044266e-314
     1144000   1.143999e-05   2.865381e-01   1.038509e+01   3.843902e+01   1.630856e+04  -3.416475e+04   1.524660e+06  -6.895028e+05  -3.291344e+05  -3.215451e-17   1.525130e+06   3.269784e-30  7.837550e-315  1.044266e-314
     1152000   1.151999e-05   2.878428e-01   1.038236e+01   3.856100e+01   1.630855e+04  -3.416475e+04   1.524660e+06   8.950864e+05   4.272697e+05  -1.273009e-17   1.525130e+06   5.510677e-30  7.837550e-315  1.044266e-314
     1160000   1.159999e-05   2.891475e-01   1.037962e+01   3.868297e+01   1.630854e+04  -3.416476e+04   1.524660e+06  -9.455683e+05  -4.513668e+05  -6.171695e-17   1.525130e+06   6.149851e-30  7.837550e-315  1.044266e-314
     1168000   1.167999e-05   2.904522e-01   1.037689e+01   3.880494e+01   1.630858e+04  -3.416474e+04   1.524660e+06  -4.503968e+05  -2.149975e+05  -6.886730e-18   1.525130e+06   1.395003e-30  7.837550e-315  1.044266e-314
     1176000   1.175999e-05   2.917569e-01   1.037416e+01   3.892692e+01   1.630854e+04  -3.416475e+04   1.524660e+06   6.314102e+05   3.014036e+05  -2.314929e-17   1.525130e+06   2.741956e-30  7.837550e-315  1.044266e-314
     1184000   1.183999e-05   2.930615e-01   1.037142e+01   3.904889e+01   1.630857e+04  -3.416474e+04   1.524660e+06  -7.064622e+05  -3.372302e+05  -3.474741e-17   1.525130e+06   3.432636e-30  7.837550e-315  1.044266e-314
     1192000   1.191999e-05   2.943662e-01   1.036869e+01   3.917086e+01   1.630857e+04  -3.416474e+04   1.524660e+06   8.710949e+05   4.158178e+05   6.959533e-17   1.525130e+06   5.219197e-30  7.837550e-315  1.044266e-314
     1200000   1.199999e-05   2.956709e-01   1.036596e+01   3.929283e+01   1.630854e+04  -3.416475e+04   1.524660e+06  -9.625277e+05  -4.594626e+05  -6.317916e-17   1.525130e+06   6.372457e-30  7.837550e-315  1.044266e-314
     1208000   1.207999e-05   2.969756e-01   1.036323e+01   3.941481e+01   1.630858e+04  -3.416474e+04   1.524660e+06  -4.673563e+05  -2.230932e+05  -2.589280e-17   1.525130e+06   1.502060e-30  7.837550e-315  1.044266e-314
     1216000   1.215999e-05   2.982803e-01   1.036049e+01   3.953678e+01   1.630855e+04  -3.416475e+04   1.524660e+06   6.074188e+05   2.899515e+05   4.119412e-17   1.525130e+06   2.537516e-30  7.837550e-315  1.044266e-314
     1224000   1.223999e-05   2.995850e-01   1.035776e+01   3.965875e+01   1.630857e+04  -3.416474e+04   1.524660e+06  -7.234217e+05  -3.453259e+05  -1.857998e-18   1.525130e+06   3.599447e-30  7.837550e-315  1.044266e-314
     1232000   1.231999e-05   3.008896e-01   1.035503e+01   3.978072e+01   1.630854e+04  -3.416475e+04   1.524660e+06  -1.839698e-01  -8.781796e-02  -1.590487e-23   1.525130e+06   2.329683e-43  7.837550e-315  1.044266e-314
     1240000   1.239999e-05   3.021943e-01   1.035229e+01   3.990270e+01   1.630854e+04  -3.416475e+04   1.524660e+06  -4.913495e-01  -2.345457e-01   2.450911e-23   1.525130e+06   1.661252e-42  7.837550e-315  1.044266e-314
     1248000   1.247999e-05   3.034990e-01   1.034956e+01   4.002467e+01   1.630854e+04  -3.416475e+04   1.524660e+06  -4.233440e-01  -2.020833e-01   2.636463e-23   1.525130e+06   1.232630e-42  7.837550e-315  1.044266e-314
     1256000   1.255999e-05   3.048037e-01   1.034683e+01   4.014664e+01   1.630854e+04  -3.416475e+04   1.524660e+06  -3.940385e-01  -1.880943e-01   8.101993e-24   1.525130e+06   1.068449e-42  7.837550e-315  1.044266e-314
     1264000   1.263999e-05   3.061084e-01   1.034409e+01   4.026862e+01   1.630854e+04  -3.416475e+04   1.524660e+06  -6.399954e-01  -3.055018e-01   3.851934e-23   1.525130e+06   2.817345e-42  7.837550e-315  1.044266e-314
     1272000   1.271999e-05   3.074131e-01   1.034136e+01   4.039059e+01   1.630854e+04  -3.416475e+04   1.524660e+06  -2.967275e-01  -1.416429e-01   9.642395e-24   1.525130e+06   6.059389e-43  7.837550e-315  1.044266e-314
     1280000   1.279999e-05   3.087177e-01   1.033863e+01   4.051256e+01   1.630854e+04  -3.416475e+04   1.524660e+06  -6.041073e-01  -2.883706e-01   1.415503e-23   1.525130e+06   2.511111e-42  7.837550e-315  1.044266e-314
     1288000   1.287999e-05   3.100224e-01   1.033589e+01   4.063453e+01   1.630854e+04  -3.416475e+04   1.524660e+06  -6.089372e-01  -2.906762e-01  -8.367107e-25   1.525130e+06   2.550512e-42  7.837550e-315  1.044266e-314
     1296000   1.295999e-05   3.113271e-01   1.033316e+01   4.075651e+01   1.630854e+04  -3.416475e+04   1.524660e+06  -5.067963e-01  -2.419192e-01   3.363932e-23   1.525130e+06   1.767334e-42  7.837550e-315  1.044266e-314
     1304000   1.303999e-05   3.126318e-01   1.033043e+01   4.087848e+01   1.630854e+04  -3.416475e+04   1.524660e+06  -8.255885e-01  -3.940947e-01   2.925231e-23   1.525130e+06   4.688473e-42  7.837550e-315  1.044266e-314
     1312000   1.311999e-05   3.139365e-01   1.032769e+01   4.100045e+01   1.630854e+04  -3.416475e+04   1.524660e+06  -5.778790e-01  -2.758505e-01  -4.301927e-24   1.525130e+06   2.296951e-42  7.837550e-315  1.044266e-314
     1320000   1.319999e-05   3.152412e-01   1.032496e+01   4.112243e+01   1.630854e+04  -3.416475e+04   1.524660e+06  -7.168650e-01  -3.421955e-01   5.762609e-23   1.525130e+06   3.535910e-42  7.837550e-315  1.044266e-314
     1328000   1.327999e-05   3.165459e-01   1.032223e+01   4.124440e+01   1.630854e+04  -3.416475e+04   1.524660e+06  -7.945303e-01  -3.792690e-01   2.578159e-23   1.525130e+06   4.342328e-42  7.837550e-315  1.044266e-314
     1336000   1.335999e-05   3.178505e-01   1.031949e+01   4.136637e+01   1.630854e+04  -3.416475e+04   1.524660e+06  -6.195540e-01  -2.957441e-01   5.327852e-24   1.525130e+06   2.641158e-42  7.837550e-315  1.044266e-314
     1344000   1.343999e-05   3.191552e-01   1.031676e+01   4.148834e+01   1.630854e+04  -3.416475e+04   1.524660e+06  -1.011182e+00  -4.826876e-01   5.585706e-23   1.525130e+06   7.033536e-42  7.837550e-315  1.044266e-314
     1352000   1.351999e-05   3.204599e-01   1.031403e+01   4.161032e+01   1.630854e+04  -3.416475e+04   1.524660e+06  -7.634722e-01  -3.644434e-01  -4.947211e-23   1.525130e+06   4.009456e-42  7.837550e-315  1.044266e-314
     1360000   1.359999e-05   3.217646e-01   1.031129e+01   4.173229e+01   1.630854e+04  -3.416475e+04   1.524660e+06  -8.296228e-01  -3.960204e-01  -6.590901e-24   1.525130e+06   4.735648e-42  7.837550e-315  1.044266e-314
     1368000   1.367999e-05   3.230693e-01   1.030856e+01   4.185426e+01   1.630854e+04  -3.416475e+04   1.524660e+06  -9.801235e-01  -4.678619e-01   5.237994e-23   1.525130e+06   6.608080e-42  7.837550e-315  1.044266e-314
     1376000   1.375999e-05   3.243740e-01   1.030583e+01   4.197623e+01   1.630854e+04  -3.416475e+04   1.524660e+06  -7.323118e-01  -3.495690e-01  -2.299689e-23   1.525130e+06   3.689922e-42  7.837550e-315  1.044266e-314
     1384000   1.383999e-05   3.256786e-01   1.030310e+01   4.209821e+01   1.630854e+04  -3.416475e+04   1.524660e+06  -1.196775e+00  -5.712805e-01   1.542217e-22   1.525130e+06   9.852534e-42  7.837550e-315  1.044266e-314
     1392000   1.391999e-05   3.269833e-01   1.030036e+01   4.222018e+01   1.630854e+04  -3.416475e+04   1.524660e+06  -9.490653e-01  -4.530363e-01   4.890184e-23   1.525130e+06   6.195898e-42  7.837550e-315  1.044266e-314
     1400000   1.399999e-05   3.282880e-01   1.029763e+01   4.234215e+01   1.630854e+04  -3.416475e+04   1.524660e+06  -6.543459e-01  -3.123520e-01  -7.103472e-24   1.525130e+06   2.946180e-42  7.837550e-315  1.044266e-314
     1408000   1.407999e-05   3.295927e-01   1.029490e+01   4.246413e+01   1.630854e+04  -3.416475e+04   1.524660e+06  -7.640109e-01  -3.647006e-01   1.062551e-23   1.525130e+06   4.015125e-42  7.837550e-315  1.044266e-314
     1416000   1.415999e-05   3.308974e-01   1.029216e+01   4.258610e+01   1.630854e+04  -3.416475e+04   1.524660e+06  -4.641866e-01  -2.215795e-01  -1.386685e-24   1.525130e+06   1.482730e-42  7.837550e-315  1.044266e-314
     1424000   1.423999e-05   3.322021e-01   1.028943e+01   4.270807e+01   1.630854e+04  -3.416475e+04   1.524660e+06  -7.522206e-01  -3.590725e-01  -3.763560e-23   1.525130e+06   3.893361e-42  7.837550e-315  1.044266e-314
     1432000   1.431999e-05   3.335067e-01   1.028670e+01   4.283004e+01   1.630854e+04  -3.416475e+04   1.524660e+06  -6.079035e-01  -2.901827e-01  -5.846286e-23   1.525130e+06   2.541865e-42  7.837550e-315  1.044266e-314
     1440000   1.439999e-05   3.348114e-01   1.028396e+01   4.295202e+01   1.630854e+04  -3.416475e+04   1.524660e+06  -5.620613e-01  -2.683000e-01  -1.397029e-23   1.525130e+06   2.173827e-42  7.837550e-315  1.044266e-314
     1448000   1.447999e-05   3.361161e-01   1.028123e+01   4.307399e+01   1.630854e+04  -3.416475e+04   1.524660e+06  -7.592410e-01  -3.624237e-01   3.091477e-23   1.525130e+06   3.965143e-42  7.837550e-315  1.044266e-314
     1456000   1.455999e-05   3.374208e-01   1.027850e+01   4.319596e+01   1.630854e+04  -3.416475e+04   1.524660e+06  -3.719021e-01  -1.775274e-01   2.764683e-23   1.525130e+06   9.518355e-43  7.837550e-315  1.044266e-314
     1464000   1.463999e-05   3.387255e-01   1.027576e+01   4.331794e+01   1.630854e+04  -3.416475e+04   1.524660e+06  -6.599361e-01  -3.150205e-01  -8.611952e-24   1.525130e+06   2.996730e-42  7.837550e-315  1.044266e-314
     1472000   1.471999e-05   3.400302e-01   1.027303e+01   4.343991e+01   1.630854e+04  -3.416475e+04   1.524660e+06  -6.031337e-01  -2.879058e-01  -3.816689e-23   1.525130e+06   2.502129e-42  7.837550e-315  1.044266e-314
     1480000   1.479999e-05   3.413348e-01   1.027030e+01   4.356188e+01   1.630854e+04  -3.416475e+04   1.524660e+06  -4.697768e-01  -2.242479e-01  -2.883474e-24   1.525130e+06   1.518654e-42  7.837550e-315  1.044266e-314
     1488000   1.487999e-05   3.426395e-01   1.026756e+01   4.368385e+01   1.630854e+04  -3.416475e+04   1.524660e+06  -7.544712e-01  -3.601468e-01   1.531463e-23   1.525130e+06   3.915475e-42  7.837550e-315  1.044266e-314
     1496000   1.495999e-05   3.439442e-01   1.026483e+01   4.380583e+01   1.630854e+04  -3.416475e+04   1.524660e+06  -4.470263e-01  -2.133880e-01  -1.751326e-23   1.525130e+06   1.374421e-42  7.837550e-315  1.044266e-314
     1504000   1.503999e-05   3.452489e-01   1.026210e+01   4.392780e+01   1.630854e+04  -3.416475e+04   1.524660e+06  -5.676515e-01  -2.709684e-01  -3.341711e-23   1.525130e+06   2.217278e-42  7.837550e-315  1.044266e-314
     1512000   1.511999e-05   3.465536e-01   1.025936e+01   4.404977e+01   1.630854e+04  -3.416475e+04   1.524660e+06  -5.983638e-01  -2.856289e-01   1.802239e-23   1.525130e+06   2.462706e-42  7.837550e-315  1.044266e-314
     1520000   1.519999e-05   3.478583e-01   1.025663e+01   4.417174e+01   1.630854e+04  -3.416475e+04   1.524660e+06  -3.774922e-01  -1.801959e-01  -9.734740e-24   1.525130e+06   9.806605e-43  7.837550e-315  1.044266e-314
     1528000   1.527999e-05   3.491629e-01   1.025390e+01   4.429372e+01   1.630854e+04  -3.416475e+04   1.524660e+06  -7.497013e-01  -3.578699e-01   3.560818e-23   1.525130e+06   3.866119e-42  7.837550e-315  1.044266e-314
     1536000   1.535999e-05   3.504676e-01   1.025116e+01   4.441569e+01   1.630854e+04  -3.416475e+04   1.524660e+06  -4.422564e-01  -2.111111e-01  -1.515505e-23   1.525130e+06   1.345243e-42  7.837550e-315  1.044266e-314
     1544000   1.543999e-05   3.517723e-01   1.024843e+01   4.453766e+01   1.630854e+04  -3.416475e+04   1.524660e+06  -4.753670e-01  -2.269164e-01   4.945935e-23   1.525130e+06   1.555007e-42  7.837550e-315  1.044266e-314
     1552000   1.551999e-05   3.530770e-01   1.024570e+01   4.465964e+01   1.630854e+04  -3.416475e+04   1.524660e+06  -5.935939e-01  -2.833520e-01  -3.346066e-23   1.525130e+06   2.423595e-42  7.837550e-315  1.044266e-314
     1560000   1.559999e-05   3.543817e-01   1.024297e+01   4.478161e+01   1.630854e+04  -3.416475e+04   1.524660e+06  -2.852077e-01  -1.361439e-01   1.033927e-23   1.525130e+06   5.598473e-43  7.837550e-315  1.044266e-314
     1568000   1.567999e-05   3.556864e-01   1.024023e+01   4.490358e+01   1.630854e+04  -3.416475e+04   1.524660e+06  -5.732417e-01  -2.736369e-01   3.686788e-23   1.525130e+06   2.261160e-42  7.837550e-315  1.044266e-314
     1576000   1.575999e-05   3.569910e-01   1.023750e+01   4.502555e+01   1.630854e+04  -3.416475e+04   1.524660e+06  -4.374865e-01  -2.088342e-01  -1.279534e-23   1.525130e+06   1.316378e-42  7.837550e-315  1.044266e-314
     1584000   1.583999e-05   3.582957e-01   1.023477e+01   4.514753e+01   1.630854e+04  -3.416475e+04   1.524660e+06  -3.830824e-01  -1.828644e-01   6.722856e-24   1.525130e+06   1.009916e-42  7.837550e-315  1.044266e-314
     1592000   1.591999e-05   3.596004e-01   1.023203e+01   4.526950e+01   1.630854e+04  -3.416475e+04   1.524660e+06  -5.888241e-01  -2.810751e-01   2.273235e-23   1.525130e+06   2.384798e-42  7.837550e-315  1.044266e-314
     1600000   1.599999e-05   3.609051e-01   1.022930e+01   4.539147e+01   1.630854e+04  -3.416475e+04   1.524660e+06  -1.929231e-01  -9.209185e-02  -5.471985e-24   1.525130e+06   2.562139e-43  7.837550e-315  1.044266e-314
     1608000   1.607999e-05   3.622098e-01   1.022657e+01   4.551344e+01   1.630854e+04  -3.416475e+04   1.524660e+06  -4.809571e-01  -2.295849e-01  -5.869123e-24   1.525130e+06   1.591790e-42  7.837550e-315  1.044266e-314
     1616000   1.615999e-05   3.635145e-01   1.022383e+01   4.563542e+01   1.630854e+04  -3.416475e+04   1.524660e+06  -4.327167e-01  -2.065573e-01  -1.043422e-23   1.525130e+06   1.287826e-42  7.837550e-315  1.044266e-314
     1624000   1.623999e-05   3.648191e-01   1.022110e+01   4.575739e+01   1.630854e+04  -3.416475e+04   1.524660e+06  -2.907978e-01  -1.388123e-01  -1.162077e-25   1.525130e+06   5.820041e-43  7.837550e-315  1.044266e-314
     1632000   1.631999e-05   3.661238e-01   1.021837e+01   4.587936e+01   1.630854e+04  -3.416475e+04   1.524660e+06  -5.840542e-01  -2.787983e-01  -1.080131e-23   1.525130e+06   2.346314e-42  7.837550e-315  1.044266e-314
     1640000   1.639999e-05   3.674285e-01   1.021563e+01   4.600134e+01   1.630854e+04  -3.416475e+04   1.524660e+06  -2.766093e-01  -1.320394e-01  -7.704527e-24   1.525130e+06   5.261609e-43  7.837550e-315  1.044266e-314
     1648000   1.647999e-05   3.687332e-01   1.021290e+01   4.612331e+01   1.630854e+04  -3.416475e+04   1.524660e+06  -3.886726e-01  -1.855328e-01   5.237113e-24   1.525130e+06   1.039601e-42  7.837550e-315  1.044266e-314
     1656000   1.655999e-05   3.700379e-01   1.021017e+01   4.624528e+01   1.630854e+04  -3.416475e+04   1.524660e+06  -4.279468e-01  -2.042804e-01   9.874036e-24   1.525130e+06   1.259587e-42  7.837550e-315  1.044266e-314
     1664000   1.663999e-05   3.713426e-01   1.020743e+01   4.636725e+01   1.630854e+04  -3.416475e+04   1.524660e+06  -1.985133e-01  -9.476031e-02   1.996861e-23   1.525130e+06   2.712725e-43  7.837550e-315  1.044266e-314
     1672000   1.671999e-05   3.726472e-01   1.020470e+01   4.648923e+01   1.630854e+04  -3.416475e+04   1.524660e+06  -5.792843e-01  -2.765214e-01  -8.441593e-24   1.525130e+06   2.308143e-42  7.837550e-315  1.044266e-314
     1680000   1.679999e-05   3.739519e-01   1.020197e+01   4.661120e+01   1.630854e+04  -3.416475e+04   1.524660e+06  -2.718394e-01  -1.297625e-01   3.635219e-24   1.525130e+06   5.081673e-43  7.837550e-315  1.044266e-314
     1688000   1.687999e-05   3.752566e-01   1.019923e+01   4.673317e+01   1.630854e+04  -3.416475e+04   1.524660e+06  -1.864105e+00  -8.898305e-01  -1.768700e-23   1.525130e+06   2.390295e-41  7.837550e-315  1.044266e-314
     1696000   1.695999e-05   3.765613e-01   1.019650e+01   4.685515e+01   1.630854e+04  -3.416475e+04   1.524660e+06   3.552266e-01   1.695674e-01  -3.428562e-23   1.525130e+06   8.675376e-43  7.837550e-315  1.044266e-314
     1704000   1.703999e-05   3.778660e-01   1.019377e+01   4.697712e+01   1.630854e+04  -3.416475e+04   1.524660e+06  -2.186117e+00  -1.043543e+00   5.675878e-23   1.525130e+06   3.287499e-41  7.837550e-315  1.044266e-314
     1712000   1.711999e-05   3.791707e-01   1.019103e+01   4.709909e+01   1.630854e+04  -3.416475e+04   1.524660e+06   6.903699e-01   3.295480e-01  -8.851097e-24   1.525130e+06   3.277787e-42  7.837550e-315  1.044266e-314
     1720000   1.719999e-05   3.804753e-01   1.018830e+01   4.722106e+01   1.630854e+04  -3.416475e+04   1.524660e+06   8.423655e-02   4.021032e-02  -5.601582e-24   1.525130e+06   4.868019e-44  7.837550e-315  1.044266e-314
     1728000   1.727999e-05   3.817800e-01   1.018557e+01   4.734304e+01   1.630854e+04  -3.416475e+04   1.524660e+06  -1.895431e+00  -9.047838e-01   7.429948e-24   1.525130e+06   2.471311e-41  7.837550e-315  1.044266e-314
     1736000   1.735999e-05   3.830847e-01   1.018284e+01   4.746501e+01   1.630854e+04  -3.416475e+04   1.524660e+06   4.193798e-01   2.001910e-01  -1.605110e-23   1.525130e+06   1.209307e-42  7.837550e-315  1.044266e-314
     1744000   1.743999e-05   3.843894e-01   1.018010e+01   4.758698e+01   1.630854e+04  -3.416475e+04   1.524660e+06  -2.217443e+00  -1.058496e+00   2.254236e-22   1.525130e+06   3.382394e-41  7.837550e-315  1.044266e-314
     1752000   1.751999e-05   3.856941e-01   1.017737e+01   4.770895e+01   1.630854e+04  -3.416475e+04   1.524660e+06  -1.604744e+00  -7.660245e-01   1.734560e-22   1.525130e+06   1.771387e-41  7.837550e-315  1.044266e-314
     1760000   1.759999e-05   3.869988e-01   1.017464e+01   4.783093e+01   1.630854e+04  -3.416475e+04   1.524660e+06   1.483898e-01   7.083388e-02   3.654295e-24   1.525130e+06   1.512462e-43  7.837550e-315  1.044266e-314
     1768000   1.767999e-05   3.883034e-01   1.017190e+01   4.795290e+01   1.630854e+04  -3.416475e+04   1.524660e+06  -1.926756e+00  -9.197370e-01   3.253175e-23   1.525130e+06   2.553677e-41  7.837550e-315  1.044266e-314
     1776000   1.775999e-05   3.896081e-01   1.016917e+01   4.807487e+01   1.630854e+04  -3.416475e+04   1.524660e+06   4.835331e-01   2.308145e-01   2.196676e-24   1.525130e+06   1.607704e-42  7.837550e-315  1.044266e-314
     1784000   1.783999e-05   3.909128e-01   1.016644e+01   4.819685e+01   1.630854e+04  -3.416475e+04   1.524660e+06  -2.248768e+00  -1.073450e+00  -3.662664e-23   1.525130e+06   3.478640e-41  7.837550e-315  1.044266e-314
     1792000   1.791999e-05   3.922175e-01   1.016370e+01   4.831882e+01   1.630854e+04  -3.416475e+04   1.524660e+06  -1.636070e+00  -7.809778e-01   5.500052e-23   1.525130e+06   1.841224e-41  7.837550e-315  1.044266e-314
     1800000   1.799999e-05   3.935222e-01   1.016097e+01   4.844079e+01   1.630854e+04  -3.416475e+04   1.524660e+06   2.125431e-01   1.014574e-01   3.947181e-24   1.525130e+06   3.104403e-43  7.837550e-315  1.044266e-314
     1808000   1.807999e-05   3.948269e-01   1.015824e+01   4.856276e+01   1.630854e+04  -3.416475e+04   1.524660e+06  -1.958082e+00  -9.346903e-01   1.294097e-22   1.525130e+06   2.637394e-41  7.837550e-315  1.044266e-314
     1816000   1.815999e-05   3.961315e-01   1.015550e+01   4.868474e+01   1.630854e+04  -3.416475e+04   1.524660e+06   5.476864e-01   2.614381e-01   2.045041e-23   1.525130e+06   2.062730e-42  7.837550e-315  1.044266e-314
     1824000   1.823999e-05   3.974362e-01   1.015277e+01   4.880671e+01   1.630854e+04  -3.416475e+04   1.524660e+06  -5.844695e-02  -2.789965e-02  -1.048324e-24   1.525130e+06   2.359585e-44  7.837550e-315  1.044266e-314
     1832000   1.831999e-05   3.987409e-01   1.015004e+01   4.892868e+01   1.630854e+04  -3.416475e+04   1.524660e+06  -1.667395e+00  -7.959311e-01   8.326467e-24   1.525130e+06   1.912412e-41  7.837550e-315  1.044266e-314
     1840000   1.839999e-05   4.000456e-01   1.014730e+01   4.905066e+01   1.630854e+04  -3.416475e+04   1.524660e+06  -6.046973e-01  -2.886522e-01  -5.370010e-23   1.525130e+06   2.514615e-42  7.837550e-315  1.044266e-314
     1848000   1.847999e-05   4.013503e-01   1.014457e+01   4.917263e+01   1.630854e+04  -3.416475e+04   1.524660e+06  -1.411067e-01  -6.735727e-02  -6.075019e-24   1.525130e+06   1.372065e-43  7.837550e-315  1.044266e-314
     1856000   1.855999e-05   4.026550e-01   1.014184e+01   4.929460e+01   1.630854e+04  -3.416475e+04   1.524660e+06  -9.480795e-01  -4.525657e-01   4.282100e-23   1.525130e+06   6.182247e-42  7.837550e-315  1.044266e-314
     1864000   1.863999e-05   4.039596e-01   1.013910e+01   4.941657e+01   1.630854e+04  -3.416475e+04   1.524660e+06  -3.462079e-01  -1.652624e-01   3.839718e-23   1.525130e+06   8.240294e-43  7.837550e-315  1.044266e-314
     1872000   1.871999e-05   4.052643e-01   1.013637e+01   4.953855e+01   1.630863e+04  -3.416489e+04   1.524660e+06   6.490008e+06  -1.074360e+07  -3.101655e+05   1.525130e+06   8.825541e-28  7.837550e-315  1.044266e-314
     1880000   1.879999e-05   4.065691e-01   1.013364e+01   4.966052e+01   1.630990e+04  -3.416700e+04   1.524660e+06   3.064701e+07  -5.073322e+07  -1.464754e+06   1.525130e+06   1.968897e-26  7.837550e-315  1.044266e-314
     1888000   1.887999e-05   4.078741e-01   1.013090e+01   4.978249e+01   1.631696e+04  -3.417871e+04   1.524659e+06   1.477035e+08  -2.448561e+08  -7.069737e+06   1.525130e+06   4.583560e-25  7.837550e-315  1.044266e-314
     1896000   1.895999e-05   4.091798e-01   1.012817e+01   4.990446e+01   1.632365e+04  -3.418980e+04   1.524659e+06   0.000000e+00   0.000000e+00   0.000000e+00   1.525130e+06   0.000000e+00  7.837550e-315  1.044266e-314
