     timestep     time              x             y              z              vx             vy             vz             ax             ay             az         v_magnitude      ELoss        Electronic      Nuclear
           0   0.000000e+00   1.000000e-01   7.208796e+00   1.989714e+01   3.878622e+05  -5.782078e+05   1.356930e+06   0.000000e+00   0.000000e+00   0.000000e+00   1.525130e+06   0.000000e+00   0.000000e+00   0.000000e+00
        8000   7.999000e-08   1.310287e-01   7.162540e+00   2.000570e+01   3.878570e+05  -5.781979e+05   1.356936e+06   5.214507e+07   1.458200e+07  -8.691310e+06   1.525130e+06   1.684810e-26   0.000000e+00   0.000000e+00
       16000   1.599900e-07   1.620575e-01   7.116284e+00   2.011425e+01   3.878612e+05  -5.781960e+05   1.356935e+06   1.355597e+07   9.093518e+06  -4.751777e-02   1.525130e+06   1.494146e-27   0.000000e+00   0.000000e+00
       24000   2.399900e-07   1.930865e-01   7.070028e+00   2.022281e+01   3.878636e+05  -5.781944e+05   1.356935e+06  -3.012593e+07  -2.020904e+07   2.678974e-15   1.525130e+06   7.370652e-27   0.000000e+00   0.000000e+00
       32000   3.199900e-07   2.241155e-01   7.023773e+00   2.033136e+01   3.878635e+05  -5.781945e+05   1.356935e+06   1.941073e+06   1.302108e+06   6.301182e-16   1.525130e+06   3.064463e-29   0.000000e+00   0.000000e+00
       40000   3.999900e-07   2.551446e-01   6.977517e+00   2.043992e+01   3.878635e+05  -5.781945e+05   1.356935e+06  -6.759889e+06  -4.534658e+06  -3.186108e-15   1.525130e+06   3.711265e-28   0.000000e+00   0.000000e+00
       48000   4.799900e-07   2.861737e-01   6.931262e+00   2.054847e+01   3.878633e+05  -5.781946e+05   1.356935e+06   7.437755e+06   4.989380e+06   1.115296e-14   1.525130e+06   4.493467e-28   0.000000e+00   0.000000e+00
       56000   5.599900e-07   3.172027e-01   6.885006e+00   2.065703e+01   3.878636e+05  -5.781944e+05   1.356935e+06  -2.109243e+01  -1.414920e+01  -2.495364e-21   1.525130e+06   3.614289e-39   0.000000e+00   0.000000e+00
       64000   6.399900e-07   3.482318e-01   6.838751e+00   2.076558e+01   3.878636e+05  -5.781944e+05   1.356935e+06  -1.646825e+01  -1.104721e+01  -1.655680e-20   1.525130e+06   2.203219e-39   0.000000e+00   0.000000e+00
       72000   7.199900e-07   3.792609e-01   6.792495e+00   2.087414e+01   3.878636e+05  -5.781944e+05   1.356935e+06  -4.771814e+00  -3.201022e+00   4.321592e-21   1.525130e+06   1.850692e-40   0.000000e+00   0.000000e+00
       80000   7.999900e-07   4.102900e-01   6.746240e+00   2.098269e+01   3.878636e+05  -5.781944e+05   1.356935e+06  -2.098658e+01  -1.407819e+01  -1.501067e-20   1.525130e+06   3.578284e-39   0.000000e+00   0.000000e+00
       88000   8.799900e-07   4.413191e-01   6.699984e+00   2.109125e+01   3.878636e+05  -5.781944e+05   1.356935e+06  -7.504405e+00  -5.034096e+00  -9.990391e-21   1.525130e+06   4.575620e-40   0.000000e+00   0.000000e+00
       96000   9.599900e-07   4.723482e-01   6.653728e+00   2.119980e+01   3.878636e+05  -5.781944e+05   1.356935e+06  -1.120589e+01  -7.517123e+00  -3.145106e-21   1.525130e+06   1.020068e-39   0.000000e+00   0.000000e+00
      104000   1.039990e-06   5.033773e-01   6.607473e+00   2.130836e+01   3.878636e+05  -5.781944e+05   1.356935e+06  -1.076714e+01  -7.222801e+00  -4.992655e-21   1.525130e+06   9.418330e-40   0.000000e+00   0.000000e+00
      112000   1.119990e-06   5.344064e-01   6.561217e+00   2.141691e+01   3.878636e+05  -5.781944e+05   1.356935e+06  -9.133425e+00  -6.126872e+00   6.673889e-21   1.525130e+06   6.779855e-40   0.000000e+00   0.000000e+00
      120000   1.199990e-06   5.654355e-01   6.514962e+00   2.152547e+01   3.878636e+05  -5.781944e+05   1.356935e+06  -1.057500e+01  -7.093911e+00   1.890884e-20   1.525130e+06   9.082812e-40   0.000000e+00   0.000000e+00
      128000   1.279990e-06   5.964645e-01   6.468706e+00   2.163402e+01   3.878636e+05  -5.781944e+05   1.356935e+06  -3.685192e+01  -2.472095e+01  -2.988422e-20   1.525130e+06   1.103255e-38   0.000000e+00   0.000000e+00
      136000   1.359990e-06   6.274936e-01   6.422451e+00   2.174258e+01   3.878636e+05  -5.781944e+05   1.356935e+06  -1.714464e+01  -1.150094e+01   1.752744e-20   1.525130e+06   2.388150e-39   0.000000e+00   0.000000e+00
      144000   1.439990e-06   6.585227e-01   6.376195e+00   2.185113e+01   3.878636e+05  -5.781944e+05   1.356935e+06  -2.581958e+01  -1.732026e+01  -1.807801e-20   1.525130e+06   5.416425e-39   0.000000e+00   0.000000e+00
      152000   1.519990e-06   6.895518e-01   6.329940e+00   2.195969e+01   3.878636e+05  -5.781944e+05   1.356935e+06  -2.787310e+01  -1.869779e+01   3.962056e-20   1.525130e+06   6.312014e-39   0.000000e+00   0.000000e+00
      160000   1.599990e-06   7.205809e-01   6.283684e+00   2.206824e+01   3.878636e+05  -5.781944e+05   1.356935e+06  -1.506322e+01  -1.010469e+01   5.513903e-21   1.525130e+06   1.843715e-39   0.000000e+00   0.000000e+00
      168000   1.679990e-06   7.516100e-01   6.237428e+00   2.217680e+01   3.878636e+05  -5.781944e+05   1.356935e+06  -2.406819e+01  -1.614539e+01  -9.695970e-21   1.525130e+06   4.705871e-39   0.000000e+00   0.000000e+00
      176000   1.759990e-06   7.826391e-01   6.191173e+00   2.228535e+01   3.878636e+05  -5.781944e+05   1.356935e+06  -1.014210e+01  -6.803510e+00   1.079423e-21   1.525130e+06   8.357756e-40   0.000000e+00   0.000000e+00
      184000   1.839990e-06   8.136682e-01   6.144917e+00   2.239391e+01   3.878636e+05  -5.781944e+05   1.356935e+06  -2.150055e+01  -1.442297e+01  -2.645000e-20   1.525130e+06   3.755225e-39   0.000000e+00   0.000000e+00
      192000   1.919990e-06   8.446972e-01   6.098662e+00   2.250246e+01   3.878636e+05  -5.781944e+05   1.356935e+06  -9.466284e+00  -6.350160e+00  -4.625346e-21   1.525130e+06   7.276001e-40   0.000000e+00   0.000000e+00
      200000   1.999990e-06   8.757263e-01   6.052406e+00   2.261102e+01   3.878636e+05  -5.781944e+05   1.356935e+06  -4.593231e+00  -3.081225e+00  -3.663595e-21   1.525130e+06   1.715962e-40   0.000000e+00   0.000000e+00
      208000   2.079990e-06   9.067554e-01   6.006151e+00   2.271957e+01   3.878636e+05  -5.781944e+05   1.356935e+06  -1.180637e+01  -7.919936e+00   2.736873e-20   1.525130e+06   1.132643e-39   0.000000e+00   0.000000e+00
      216000   2.159990e-06   9.377845e-01   5.959895e+00   2.282812e+01   3.878636e+05  -5.781944e+05   1.356935e+06  -1.092818e+00  -7.330826e-01   7.507225e-22   1.525130e+06   9.743447e-42   0.000000e+00   0.000000e+00
      224000   2.239990e-06   9.688136e-01   5.913640e+00   2.293668e+01   3.878636e+05  -5.781944e+05   1.356935e+06  -1.642295e+01  -1.101682e+01  -1.386130e-21   1.525130e+06   2.190607e-39   0.000000e+00   0.000000e+00
      232000   2.319990e-06   9.998427e-01   5.867384e+00   2.304523e+01   3.878636e+05  -5.781944e+05   1.356935e+06  -1.310326e+01  -8.789913e+00  -8.759306e-21   1.525130e+06   1.395263e-39   0.000000e+00   0.000000e+00
      240000   2.399990e-06   1.030872e+00   5.821129e+00   2.315379e+01   3.878636e+05  -5.781944e+05   1.356935e+06  -1.348118e+01  -9.043428e+00  -7.428538e-21   1.525130e+06   1.476413e-39   0.000000e+00   0.000000e+00
      248000   2.479990e-06   1.061901e+00   5.774873e+00   2.326234e+01   3.878636e+05  -5.781944e+05   1.356935e+06  -4.259703e+00  -2.857488e+00   5.395381e-21   1.525130e+06   1.475385e-40   0.000000e+00   0.000000e+00
      256000   2.559990e-06   1.092930e+00   5.728617e+00   2.337090e+01   3.878636e+05  -5.781944e+05   1.356935e+06  -2.477067e+01  -1.661663e+01  -1.013708e-20   1.525130e+06   4.984229e-39   0.000000e+00   0.000000e+00
      264000   2.639990e-06   1.123959e+00   5.682362e+00   2.347945e+01   3.878636e+05  -5.781944e+05   1.356935e+06  -1.297348e+01  -8.702855e+00  -2.833880e-20   1.525130e+06   1.367423e-39   0.000000e+00   0.000000e+00
      272000   2.719990e-06   1.154988e+00   5.636106e+00   2.358801e+01   3.878636e+05  -5.781944e+05   1.356935e+06  -1.193585e+01  -8.006790e+00   9.428151e-21   1.525130e+06   1.157485e-39   0.000000e+00   0.000000e+00
      280000   2.799990e-06   1.186017e+00   5.589851e+00   2.369656e+01   3.878636e+05  -5.781944e+05   1.356935e+06   4.337792e-01   2.909872e-01  -4.651155e-22   1.525130e+06   1.534240e-42   0.000000e+00   0.000000e+00
      288000   2.879990e-06   1.217046e+00   5.543595e+00   2.380512e+01   3.878636e+05  -5.781944e+05   1.356935e+06  -7.789918e+00  -5.225623e+00  -9.027107e-21   1.525130e+06   4.929148e-40   0.000000e+00   0.000000e+00
      296000   2.959990e-06   1.248075e+00   5.497340e+00   2.391367e+01   3.878636e+05  -5.781944e+05   1.356935e+06   1.679406e+00   1.126577e+00  -1.310470e-21   1.525130e+06   2.290775e-41   0.000000e+00   0.000000e+00
      304000   3.039990e-06   1.279104e+00   5.451084e+00   2.402223e+01   3.878636e+05  -5.781944e+05   1.356935e+06   9.352851e-01   6.274067e-01   4.252771e-22   1.525130e+06   7.126688e-42   0.000000e+00   0.000000e+00
      312000   3.119990e-06   1.310134e+00   5.404829e+00   2.413078e+01   3.878636e+05  -5.781944e+05   1.356935e+06  -8.772957e+00  -5.885064e+00  -3.759484e-22   1.525130e+06   6.253263e-40   0.000000e+00   0.000000e+00
      320000   3.199990e-06   1.341163e+00   5.358573e+00   2.423934e+01   3.878636e+05  -5.781944e+05   1.356935e+06  -7.766953e+00  -5.210217e+00   1.275731e-20   1.525130e+06   4.900993e-40   0.000000e+00   0.000000e+00
      328000   3.279990e-06   1.372192e+00   5.312317e+00   2.434789e+01   3.878636e+05  -5.781944e+05   1.356935e+06  -1.197947e+01  -8.036055e+00  -2.010919e-20   1.525130e+06   1.165764e-39   0.000000e+00   0.000000e+00
      336000   3.359990e-06   1.403221e+00   5.266062e+00   2.445645e+01   3.878636e+05  -5.781944e+05   1.356935e+06  -1.220463e+01  -8.187095e+00  -1.427328e-20   1.525130e+06   1.210318e-39   0.000000e+00   0.000000e+00
      344000   3.439990e-06   1.434250e+00   5.219806e+00   2.456500e+01   3.878636e+05  -5.781944e+05   1.356935e+06  -9.132650e+00  -6.126352e+00  -1.078295e-20   1.525130e+06   6.775798e-40   0.000000e+00   0.000000e+00
      352000   3.519990e-06   1.465279e+00   5.173551e+00   2.467356e+01   3.878636e+05  -5.781944e+05   1.356935e+06  -1.423720e+01  -9.550579e+00  -1.453404e-20   1.525130e+06   1.646729e-39   0.000000e+00   0.000000e+00
      360000   3.599990e-06   1.496308e+00   5.127295e+00   2.478211e+01   3.878636e+05  -5.781944e+05   1.356935e+06  -1.972910e+01  -1.323465e+01  -2.641947e-20   1.525130e+06   3.161970e-39   0.000000e+00   0.000000e+00
      368000   3.679990e-06   1.527337e+00   5.081040e+00   2.489067e+01   3.878636e+05  -5.781944e+05   1.356935e+06  -3.115735e+01  -2.090093e+01  -4.165835e-20   1.525130e+06   7.886499e-39   0.000000e+00   0.000000e+00
      376000   3.759990e-06   1.558366e+00   5.034784e+00   2.499922e+01   3.878636e+05  -5.781944e+05   1.356935e+06  -5.475746e+00  -3.673233e+00   3.209371e-22   1.525130e+06   2.437660e-40   0.000000e+00   0.000000e+00
      384000   3.839990e-06   1.589395e+00   4.988529e+00   2.510778e+01   3.878636e+05  -5.781944e+05   1.356935e+06   3.602224e+00   2.416439e+00  -2.910349e-22   1.525130e+06   1.055188e-40   0.000000e+00   0.000000e+00
      392000   3.919990e-06   1.620424e+00   4.942273e+00   2.521633e+01   3.878636e+05  -5.781944e+05   1.356935e+06  -1.286301e+01  -8.628746e+00   1.034825e-20   1.525130e+06   1.344277e-39   0.000000e+00   0.000000e+00
      400000   3.999990e-06   1.651454e+00   4.896017e+00   2.532489e+01   3.878636e+05  -5.781944e+05   1.356935e+06  -1.170640e+01  -7.852870e+00  -9.366778e-21   1.525130e+06   1.113167e-39   0.000000e+00   0.000000e+00
      408000   4.079990e-06   1.682483e+00   4.849762e+00   2.543344e+01   3.878636e+05  -5.781944e+05   1.356935e+06  -9.416060e+00  -6.316469e+00   1.363498e-20   1.525130e+06   7.203661e-40   0.000000e+00   0.000000e+00
      416000   4.159990e-06   1.713512e+00   4.803506e+00   2.554200e+01   3.878636e+05  -5.781944e+05   1.356935e+06  -1.373862e+01  -9.216120e+00   3.039693e-21   1.525130e+06   1.533378e-39   0.000000e+00   0.000000e+00
      424000   4.239990e-06   1.744541e+00   4.757251e+00   2.565055e+01   3.878636e+05  -5.781944e+05   1.356935e+06  -1.801118e+01  -1.208224e+01  -1.003834e-20   1.525130e+06   2.635482e-39   0.000000e+00   0.000000e+00
      432000   4.319990e-06   1.775570e+00   4.710995e+00   2.575910e+01   3.878636e+05  -5.781944e+05   1.356935e+06  -1.458391e+01  -9.783156e+00   1.308313e-20   1.525130e+06   1.727936e-39   0.000000e+00   0.000000e+00
      440000   4.399990e-06   1.806599e+00   4.664740e+00   2.586766e+01   3.878636e+05  -5.781944e+05   1.356935e+06  -1.532903e+01  -1.028300e+01  -1.060486e-20   1.525130e+06   1.909269e-39   0.000000e+00   0.000000e+00
      448000   4.479990e-06   1.837628e+00   4.618484e+00   2.597621e+01   3.878636e+05  -5.781944e+05   1.356935e+06  -1.551705e+01  -1.040913e+01  -6.249677e-21   1.525130e+06   1.956004e-39   0.000000e+00   0.000000e+00
      456000   4.559990e-06   1.868657e+00   4.572229e+00   2.608477e+01   3.878636e+05  -5.781944e+05   1.356935e+06  -6.955044e+00  -4.665574e+00   6.467286e-22   1.525130e+06   3.929772e-40   0.000000e+00   0.000000e+00
      464000   4.639990e-06   1.899686e+00   4.525973e+00   2.619332e+01   3.878636e+05  -5.781944e+05   1.356935e+06   1.122670e+00   7.531079e-01   8.175238e-22   1.525130e+06   1.024048e-41   0.000000e+00   0.000000e+00
      472000   4.719990e-06   1.930715e+00   4.479718e+00   2.630188e+01   3.878636e+05  -5.781944e+05   1.356935e+06  -6.548025e+00  -4.392538e+00   2.308625e-21   1.525130e+06   3.481158e-40   0.000000e+00   0.000000e+00
      480000   4.799990e-06   1.961744e+00   4.433462e+00   2.641043e+01   3.878636e+05  -5.781944e+05   1.356935e+06  -1.397530e+01  -9.374890e+00   6.297363e-21   1.525130e+06   1.586755e-39   0.000000e+00   0.000000e+00
      488000   4.879990e-06   1.992774e+00   4.387206e+00   2.651899e+01   3.878636e+05  -5.781944e+05   1.356935e+06  -3.544806e+01  -2.377922e+01  -5.298937e-20   1.525130e+06   1.020837e-38   0.000000e+00   0.000000e+00
      496000   4.959990e-06   2.023803e+00   4.340951e+00   2.662754e+01   3.878636e+05  -5.781944e+05   1.356935e+06  -1.713925e+01  -1.149733e+01   1.493517e-20   1.525130e+06   2.386554e-39   0.000000e+00   0.000000e+00
      504000   5.039990e-06   2.054832e+00   4.294695e+00   2.673610e+01   3.878636e+05  -5.781944e+05   1.356935e+06  -2.469021e+01  -1.656266e+01   3.412942e-21   1.525130e+06   4.952380e-39   0.000000e+00   0.000000e+00
      512000   5.119990e-06   2.085861e+00   4.248440e+00   2.684465e+01   3.878636e+05  -5.781944e+05   1.356935e+06  -2.015496e+01  -1.352033e+01   5.168010e-21   1.525130e+06   3.300595e-39   0.000000e+00   0.000000e+00
      520000   5.199990e-06   2.116890e+00   4.202184e+00   2.695321e+01   3.878636e+05  -5.781944e+05   1.356935e+06  -1.762187e+01  -1.182108e+01  -1.345805e-20   1.525130e+06   2.522897e-39   0.000000e+00   0.000000e+00
      528000   5.279990e-06   2.147919e+00   4.155929e+00   2.706176e+01   3.878636e+05  -5.781944e+05   1.356935e+06  -2.925551e+01  -1.962514e+01   6.134344e-21   1.525130e+06   6.952863e-39   0.000000e+00   0.000000e+00
      536000   5.359990e-06   2.178948e+00   4.109673e+00   2.717032e+01   3.878636e+05  -5.781944e+05   1.356935e+06  -1.365275e+01  -9.158519e+00   9.959372e-21   1.525130e+06   1.514511e-39   0.000000e+00   0.000000e+00
      544000   5.439990e-06   2.209977e+00   4.063418e+00   2.727887e+01   3.878636e+05  -5.781944e+05   1.356935e+06  -1.696425e+01  -1.137994e+01  -6.221690e-21   1.525130e+06   2.338527e-39   0.000000e+00   0.000000e+00
      552000   5.519990e-06   2.241006e+00   4.017162e+00   2.738743e+01   3.878636e+05  -5.781944e+05   1.356935e+06  -1.828154e+01  -1.226360e+01  -5.833859e-21   1.525130e+06   2.715116e-39   0.000000e+00   0.000000e+00
      560000   5.599990e-06   2.272035e+00   3.970906e+00   2.749598e+01   3.878636e+05  -5.781944e+05   1.356935e+06  -1.856430e+01  -1.245328e+01   8.482006e-21   1.525130e+06   2.799650e-39   0.000000e+00   0.000000e+00
      568000   5.679990e-06   2.303064e+00   3.924651e+00   2.760454e+01   3.878636e+05  -5.781944e+05   1.356935e+06  -1.857207e+01  -1.245849e+01  -3.675076e-20   1.525130e+06   2.802646e-39   0.000000e+00   0.000000e+00
      576000   5.759990e-06   2.334093e+00   3.878395e+00   2.771309e+01   3.878636e+05  -5.781944e+05   1.356935e+06  -1.371813e+01  -9.202379e+00  -1.614932e-20   1.525130e+06   1.528797e-39   0.000000e+00   0.000000e+00
      584000   5.839990e-06   2.365123e+00   3.832140e+00   2.782165e+01   3.878636e+05  -5.781944e+05   1.356935e+06  -2.091174e+01  -1.402799e+01  -1.448590e-21   1.525130e+06   3.552812e-39   0.000000e+00   0.000000e+00
      592000   5.919990e-06   2.396152e+00   3.785884e+00   2.793020e+01   3.878636e+05  -5.781944e+05   1.356935e+06  -2.420226e+01  -1.623533e+01  -1.111613e-20   1.525130e+06   4.758478e-39   0.000000e+00   0.000000e+00
      600000   5.999990e-06   2.427181e+00   3.739629e+00   2.803876e+01   3.878636e+05  -5.781944e+05   1.356935e+06  -1.721542e+01  -1.154842e+01   8.571454e-21   1.525130e+06   2.407636e-39   0.000000e+00   0.000000e+00
      608000   6.079990e-06   2.458210e+00   3.693373e+00   2.814731e+01   3.878636e+05  -5.781944e+05   1.356935e+06  -2.932531e+01  -1.967196e+01  -1.242985e-20   1.525130e+06   6.986377e-39   0.000000e+00   0.000000e+00
      616000   6.159990e-06   2.489239e+00   3.647118e+00   2.825587e+01   3.878636e+05  -5.781944e+05   1.356935e+06  -5.235521e+00  -3.512085e+00   1.034510e-20   1.525130e+06   2.227470e-40   0.000000e+00   0.000000e+00
      624000   6.239990e-06   2.520268e+00   3.600862e+00   2.836442e+01   3.878636e+05  -5.781944e+05   1.356935e+06  -1.190627e+01  -7.986946e+00   8.563060e-21   1.525130e+06   1.151936e-39   0.000000e+00   0.000000e+00
      632000   6.319990e-06   2.551297e+00   3.554607e+00   2.847298e+01   3.878636e+05  -5.781944e+05   1.356935e+06  -6.695654e+00  -4.491570e+00  -1.122581e-20   1.525130e+06   3.642654e-40   0.000000e+00   0.000000e+00
      640000   6.399990e-06   2.582326e+00   3.508351e+00   2.858153e+01   3.878636e+05  -5.781944e+05   1.356935e+06  -2.072155e+01  -1.390040e+01   2.149036e-20   1.525130e+06   3.488369e-39   0.000000e+00   0.000000e+00
      648000   6.479990e-06   2.613355e+00   3.462095e+00   2.869008e+01   3.878636e+05  -5.781944e+05   1.356935e+06  -1.142101e+01  -7.661424e+00  -4.166609e-21   1.525130e+06   1.059754e-39   0.000000e+00   0.000000e+00
      656000   6.559990e-06   2.644384e+00   3.415840e+00   2.879864e+01   3.878636e+05  -5.781944e+05   1.356935e+06  -1.512528e+01  -1.014632e+01  -1.178044e-20   1.525130e+06   1.858676e-39   0.000000e+00   0.000000e+00
      664000   6.639990e-06   2.675413e+00   3.369584e+00   2.890719e+01   3.878636e+05  -5.781944e+05   1.356935e+06  -1.698745e+01  -1.139550e+01  -1.381093e-20   1.525130e+06   2.344378e-39   0.000000e+00   0.000000e+00
      672000   6.719990e-06   2.706443e+00   3.323329e+00   2.901575e+01   3.878636e+05  -5.781944e+05   1.356935e+06  -1.231273e+01  -8.259609e+00   5.294086e-21   1.525130e+06   1.231672e-39   0.000000e+00   0.000000e+00
      680000   6.799990e-06   2.737472e+00   3.277073e+00   2.912430e+01   3.878636e+05  -5.781944e+05   1.356935e+06  -1.748937e+01  -1.173220e+01   1.109114e-20   1.525130e+06   2.484667e-39   0.000000e+00   0.000000e+00
      688000   6.879990e-06   2.768501e+00   3.230818e+00   2.923286e+01   3.878636e+05  -5.781944e+05   1.356935e+06  -1.190042e+01  -7.983027e+00  -7.237321e-21   1.525130e+06   1.150844e-39   0.000000e+00   0.000000e+00
      696000   6.959990e-06   2.799530e+00   3.184562e+00   2.934141e+01   3.878636e+05  -5.781944e+05   1.356935e+06  -6.477688e-02  -4.345354e-02   1.683850e-22   1.525130e+06   3.505552e-44   0.000000e+00   0.000000e+00
      704000   7.039990e-06   2.830559e+00   3.138307e+00   2.944997e+01   3.878636e+05  -5.781944e+05   1.356935e+06  -1.273645e+01  -8.543850e+00   3.300974e-21   1.525130e+06   1.317831e-39   0.000000e+00   0.000000e+00
      712000   7.119990e-06   2.861588e+00   3.092051e+00   2.955852e+01   3.878636e+05  -5.781944e+05   1.356935e+06  -1.011849e+01  -6.787672e+00  -4.166067e-22   1.525130e+06   8.316068e-40   0.000000e+00   0.000000e+00
      720000   7.199990e-06   2.892617e+00   3.045795e+00   2.966708e+01   3.878636e+05  -5.781944e+05   1.356935e+06   3.274015e+00   9.174997e+00   2.973657e+00   1.525130e+06   5.811149e-40   0.000000e+00   0.000000e+00
      728000   7.279990e-06   2.923646e+00   2.999540e+00   2.977563e+01   3.878636e+05  -5.781944e+05   1.356935e+06  -1.514800e+01  -4.712790e+00   2.321738e+00   1.525130e+06   1.440032e-39   0.000000e+00   0.000000e+00
      736000   7.359990e-06   2.954675e+00   2.953284e+00   2.988419e+01   3.878636e+05  -5.781944e+05   1.356935e+06   9.301807e+00  -1.392224e+01  -8.591122e+00   1.525130e+06   1.984066e-39   0.000000e+00   0.000000e+00
      744000   7.439990e-06   2.985704e+00   2.907029e+00   2.999274e+01   3.878636e+05  -5.781944e+05   1.356935e+06  -2.180379e+01  -2.640648e+01  -5.019531e+00   1.525130e+06   6.711467e-39   0.000000e+00   0.000000e+00
      752000   7.519990e-06   3.016733e+00   2.860773e+00   3.010130e+01   3.878636e+05  -5.781944e+05   1.356935e+06  -6.936137e+00  -6.856107e+00  -9.387977e-01   1.525130e+06   5.377668e-40   0.000000e+00   0.000000e+00
      760000   7.599990e-06   3.047763e+00   2.814518e+00   3.020985e+01   3.878636e+05  -5.781944e+05   1.356935e+06  -6.373263e+00  -4.275304e+00   2.031746e-21   1.525130e+06   3.300683e-40   0.000000e+00   0.000000e+00
      768000   7.679990e-06   3.078792e+00   2.768262e+00   3.031841e+01   3.878636e+05  -5.781944e+05   1.356935e+06  -1.343934e+01  -9.015362e+00  -1.199137e-21   1.525130e+06   1.467050e-39   0.000000e+00   0.000000e+00
      776000   7.759990e-06   3.109821e+00   2.722007e+00   3.042696e+01   3.878636e+05  -5.781944e+05   1.356935e+06  -9.551086e+00  -6.407047e+00   9.558205e-21   1.525130e+06   7.408610e-40   0.000000e+00   0.000000e+00
      784000   7.839990e-06   3.140850e+00   2.675751e+00   3.053552e+01   3.878636e+05  -5.781944e+05   1.356935e+06  -1.781313e+01  -1.194938e+01  -2.374991e-20   1.525130e+06   2.577533e-39   0.000000e+00   0.000000e+00
      792000   7.919990e-06   3.171879e+00   2.629495e+00   3.064407e+01   3.878636e+05  -5.781944e+05   1.356935e+06  -2.642377e+00  -1.772556e+00  -4.010382e-21   1.525130e+06   5.677132e-41   0.000000e+00   0.000000e+00
      800000   7.999990e-06   3.202908e+00   2.583240e+00   3.075263e+01   3.878636e+05  -5.781944e+05   1.356935e+06  -1.411030e+01  -9.465452e+00  -1.928973e-20   1.525130e+06   1.617591e-39   0.000000e+00   0.000000e+00
      808000   8.079990e-06   3.233937e+00   2.536984e+00   3.086118e+01   3.878636e+05  -5.781944e+05   1.356935e+06  -1.072172e+01  -7.192328e+00  -1.613818e-20   1.525130e+06   9.338644e-40   0.000000e+00   0.000000e+00
      816000   8.159990e-06   3.264966e+00   2.490729e+00   3.096974e+01   3.878636e+05  -5.781944e+05   1.356935e+06  -9.399775e-02  -6.305545e-02   6.814510e-23   1.525130e+06   7.307260e-44   0.000000e+00   0.000000e+00
      824000   8.239990e-06   3.295995e+00   2.444473e+00   3.107829e+01   3.878636e+05  -5.781944e+05   1.356935e+06  -1.190035e+01  -7.982975e+00  -4.794342e-22   1.525130e+06   1.150364e-39   0.000000e+00   0.000000e+00
      832000   8.319990e-06   3.327024e+00   2.398218e+00   3.118685e+01   3.878636e+05  -5.781944e+05   1.356935e+06  -1.691852e+01  -1.134926e+01   1.500401e-20   1.525130e+06   2.325317e-39   0.000000e+00   0.000000e+00
      840000   8.399990e-06   3.358053e+00   2.351962e+00   3.129540e+01   3.878636e+05  -5.781944e+05   1.356935e+06  -5.552475e+00  -3.724704e+00   3.236938e-21   1.525130e+06   2.504832e-40   0.000000e+00   0.000000e+00
      848000   8.479990e-06   3.389083e+00   2.305707e+00   3.140396e+01   3.878636e+05  -5.781944e+05   1.356935e+06  -1.129587e+01  -7.577484e+00  -3.370847e-21   1.525130e+06   1.036653e-39   0.000000e+00   0.000000e+00
      856000   8.559990e-06   3.420112e+00   2.259451e+00   3.151251e+01   3.878636e+05  -5.781944e+05   1.356935e+06  -1.286681e+01  -8.631294e+00   8.917680e-21   1.525130e+06   1.345005e-39   0.000000e+00   0.000000e+00
      864000   8.639990e-06   3.451141e+00   2.213196e+00   3.162106e+01   3.878636e+05  -5.781944e+05   1.356935e+06  -1.144630e+01  -7.678391e+00   7.979018e-21   1.525130e+06   1.064450e-39   0.000000e+00   0.000000e+00
      872000   8.719990e-06   3.482170e+00   2.166940e+00   3.172962e+01   3.878636e+05  -5.781944e+05   1.356935e+06  -1.083178e-01  -7.266159e-02  -2.121139e-23   1.525130e+06   9.575271e-44   0.000000e+00   0.000000e+00
      880000   8.799990e-06   3.513199e+00   2.120684e+00   3.183817e+01   3.878636e+05  -5.781944e+05   1.356935e+06  -9.244701e+00  -6.201518e+00  -5.407894e-21   1.525130e+06   6.941926e-40   0.000000e+00   0.000000e+00
      888000   8.879990e-06   3.544228e+00   2.074429e+00   3.194673e+01   3.878636e+05  -5.781944e+05   1.356935e+06  -2.440059e-01  -1.636837e-01  -8.950669e-23   1.525130e+06   4.894990e-43   0.000000e+00   0.000000e+00
      896000   8.959990e-06   3.575257e+00   2.028173e+00   3.205528e+01   3.878636e+05  -5.781944e+05   1.356935e+06  -5.556293e+00  -3.727265e+00  -2.448983e-21   1.525130e+06   2.506579e-40   0.000000e+00   0.000000e+00
      904000   9.039990e-06   3.606286e+00   1.981918e+00   3.216384e+01   3.878636e+05  -5.781944e+05   1.356935e+06  -6.529379e+00  -4.380029e+00   1.223760e-21   1.525130e+06   3.463999e-40   0.000000e+00   0.000000e+00
      912000   9.119990e-06   3.637315e+00   1.935662e+00   3.227239e+01   3.878636e+05  -5.781944e+05   1.356935e+06  -9.105440e+00  -6.108100e+00   6.184817e-21   1.525130e+06   6.733727e-40   0.000000e+00   0.000000e+00
      920000   9.199990e-06   3.668344e+00   1.889407e+00   3.238095e+01   3.878636e+05  -5.781944e+05   1.356935e+06  -2.575412e+01  -1.727635e+01   1.185650e-20   1.525130e+06   5.388850e-39   0.000000e+00   0.000000e+00
      928000   9.279990e-06   3.699373e+00   1.843151e+00   3.248950e+01   3.878636e+05  -5.781944e+05   1.356935e+06  -2.204810e+01  -1.479028e+01  -6.912669e-21   1.525130e+06   3.949280e-39   0.000000e+00   0.000000e+00
      936000   9.359990e-06   3.730402e+00   1.796896e+00   3.259806e+01   3.878636e+05  -5.781944e+05   1.356935e+06  -1.984057e+01  -1.330942e+01  -4.038098e-20   1.525130e+06   3.198347e-39   0.000000e+00   0.000000e+00
      944000   9.439990e-06   3.761432e+00   1.750640e+00   3.270661e+01   3.878636e+05  -5.781944e+05   1.356935e+06  -1.989414e+01  -1.334536e+01   2.117866e-20   1.525130e+06   3.215642e-39   0.000000e+00   0.000000e+00
      952000   9.519990e-06   3.792461e+00   1.704384e+00   3.281517e+01   3.878636e+05  -5.781944e+05   1.356935e+06  -1.715551e+01  -1.150824e+01   6.242159e-21   1.525130e+06   2.390998e-39   0.000000e+00   0.000000e+00
      960000   9.599990e-06   3.823490e+00   1.658129e+00   3.292372e+01   3.878636e+05  -5.781944e+05   1.356935e+06  -1.419161e+01  -9.519999e+00  -4.107970e-21   1.525130e+06   1.636385e-39   0.000000e+00   0.000000e+00
      968000   9.679990e-06   3.854519e+00   1.611873e+00   3.303228e+01   3.878636e+05  -5.781944e+05   1.356935e+06  -1.212737e+01  -8.135270e+00   1.997784e-20   1.525130e+06   1.194865e-39   0.000000e+00   0.000000e+00
      976000   9.759990e-06   3.885548e+00   1.565618e+00   3.314083e+01   3.878636e+05  -5.781944e+05   1.356935e+06  -1.385345e+01  -9.293153e+00  -4.663078e-21   1.525130e+06   1.558858e-39   0.000000e+00   0.000000e+00
      984000   9.839990e-06   3.916577e+00   1.519362e+00   3.324939e+01   3.878636e+05  -5.781944e+05   1.356935e+06  -1.405177e+01  -9.426193e+00   1.171071e-20   1.525130e+06   1.604014e-39   0.000000e+00   0.000000e+00
      992000   9.919990e-06   3.947606e+00   1.473107e+00   3.335794e+01   3.878636e+05  -5.781944e+05   1.356935e+06  -1.955568e+01  -1.311831e+01   3.327988e-20   1.525130e+06   3.106650e-39   0.000000e+00   0.000000e+00
     1000000   9.999990e-06   3.978635e+00   1.426851e+00   3.346650e+01   3.878636e+05  -5.781944e+05   1.356935e+06  -1.007535e+01  -6.758735e+00  -1.326804e-20   1.525130e+06   8.247363e-40   0.000000e+00   0.000000e+00
     1008000   1.007999e-05   4.009664e+00   1.380596e+00   3.357505e+01   3.878636e+05  -5.781944e+05   1.356935e+06  -2.170627e+01  -1.456097e+01  -3.432672e-20   1.525130e+06   3.827940e-39   0.000000e+00   0.000000e+00
     1016000   1.015999e-05   4.040693e+00   1.334340e+00   3.368361e+01   3.878636e+05  -5.781944e+05   1.356935e+06  -1.289904e+01  -8.652915e+00  -1.595492e-20   1.525130e+06   1.351769e-39   0.000000e+00   0.000000e+00
     1024000   1.023999e-05   4.071722e+00   1.288085e+00   3.379216e+01   3.878636e+05  -5.781944e+05   1.356935e+06  -2.376771e+01  -1.594382e+01  -2.838536e-20   1.525130e+06   4.589369e-39   0.000000e+00   0.000000e+00
     1032000   1.031999e-05   4.102752e+00   1.241829e+00   3.390072e+01   3.878636e+05  -5.781944e+05   1.356935e+06  -1.903237e+01  -1.276727e+01   3.829829e-21   1.525130e+06   2.942726e-39   0.000000e+00   0.000000e+00
     1040000   1.039999e-05   4.133781e+00   1.195573e+00   3.400927e+01   3.878636e+05  -5.781944e+05   1.356935e+06  -3.311566e+01  -2.221460e+01   3.401495e-20   1.525130e+06   8.909108e-39   0.000000e+00   0.000000e+00
     1048000   1.047999e-05   4.164810e+00   1.149318e+00   3.411783e+01   3.878636e+05  -5.781944e+05   1.356935e+06  -2.177768e+01  -1.460887e+01   3.390219e-20   1.525130e+06   3.853556e-39   0.000000e+00   0.000000e+00
     1056000   1.055999e-05   4.195839e+00   1.103062e+00   3.422638e+01   3.878636e+05  -5.781944e+05   1.356935e+06  -2.412513e+01  -1.618359e+01   3.322450e-20   1.525130e+06   4.728257e-39   0.000000e+00   0.000000e+00
     1064000   1.063999e-05   4.226868e+00   1.056807e+00   3.433494e+01   3.878636e+05  -5.781944e+05   1.356935e+06  -1.788729e+01  -1.199913e+01   3.393279e-20   1.525130e+06   2.599572e-39   0.000000e+00   0.000000e+00
     1072000   1.071999e-05   4.257897e+00   1.010551e+00   3.444349e+01   3.878636e+05  -5.781944e+05   1.356935e+06  -9.205290e+00  -6.175081e+00  -2.601040e-21   1.525130e+06   6.885280e-40   0.000000e+00   0.000000e+00
     1080000   1.079999e-05   4.288926e+00   9.642957e-01   3.455204e+01   3.878636e+05  -5.781944e+05   1.356935e+06   1.623174e+00   1.088856e+00   5.647024e-23   1.525130e+06   2.143459e-41   0.000000e+00   0.000000e+00
     1088000   1.087999e-05   4.319955e+00   9.180401e-01   3.466060e+01   3.878636e+05  -5.781944e+05   1.356935e+06  -9.289485e+00  -6.231560e+00  -1.148810e-20   1.525130e+06   7.011102e-40   0.000000e+00   0.000000e+00
     1096000   1.095999e-05   4.350984e+00   8.717846e-01   3.476915e+01   3.878636e+05  -5.781944e+05   1.356935e+06  -3.076257e+00  -2.063611e+00  -3.332143e-21   1.525130e+06   7.691680e-41   0.000000e+00   0.000000e+00
     1104000   1.103999e-05   4.382013e+00   8.255290e-01   3.487771e+01   3.878636e+05  -5.781944e+05   1.356935e+06  -1.865089e+01  -1.251137e+01  -1.806978e-20   1.525130e+06   2.825705e-39   0.000000e+00   0.000000e+00
     1112000   1.111999e-05   4.413042e+00   7.792735e-01   3.498626e+01   3.878636e+05  -5.781944e+05   1.356935e+06  -1.311599e+01  -8.798449e+00   9.067397e-21   1.525130e+06   1.397584e-39   0.000000e+00   0.000000e+00
     1120000   1.119999e-05   4.444072e+00   7.330179e-01   3.509482e+01   3.878636e+05  -5.781944e+05   1.356935e+06  -8.520463e+00  -5.715686e+00  -9.542958e-21   1.525130e+06   5.898758e-40   0.000000e+00   0.000000e+00
     1128000   1.127999e-05   4.475101e+00   6.867624e-01   3.520337e+01   3.878636e+05  -5.781944e+05   1.356935e+06  -2.275248e+01  -1.526279e+01  -2.665813e-21   1.525130e+06   4.205622e-39   0.000000e+00   0.000000e+00
     1136000   1.135999e-05   4.506130e+00   6.405068e-01   3.531193e+01   3.878636e+05  -5.781944e+05   1.356935e+06  -1.422929e+01  -9.545275e+00  -8.128928e-21   1.525130e+06   1.644527e-39   0.000000e+00   0.000000e+00
     1144000   1.143999e-05   4.537159e+00   5.942513e-01   3.542048e+01   3.878636e+05  -5.781944e+05   1.356935e+06  -2.311441e+01  -1.550558e+01   3.383795e-20   1.525130e+06   4.341342e-39   0.000000e+00   0.000000e+00
     1152000   1.151999e-05   4.568188e+00   5.479957e-01   3.552904e+01   3.878636e+05  -5.781944e+05   1.356935e+06  -1.719944e+01  -1.153771e+01   1.436651e-20   1.525130e+06   2.403026e-39   0.000000e+00   0.000000e+00
     1160000   1.159999e-05   4.599217e+00   5.017402e-01   3.563759e+01   3.878636e+05  -5.781944e+05   1.356935e+06  -1.326841e+01  -8.900699e+00   2.830794e-21   1.525130e+06   1.430713e-39   0.000000e+00   0.000000e+00
     1168000   1.167999e-05   4.630246e+00   4.554846e-01   3.574615e+01   3.878636e+05  -5.781944e+05   1.356935e+06  -1.291808e+01  -8.665687e+00  -2.967910e-21   1.525130e+06   1.355625e-39   0.000000e+00   0.000000e+00
     1176000   1.175999e-05   4.661275e+00   4.092291e-01   3.585470e+01   3.878636e+05  -5.781944e+05   1.356935e+06  -1.366280e+01  -9.165264e+00  -2.433242e-20   1.525130e+06   1.516677e-39   0.000000e+00   0.000000e+00
     1184000   1.183999e-05   4.692304e+00   3.629735e-01   3.596326e+01   3.878636e+05  -5.781944e+05   1.356935e+06  -1.371776e+01  -9.202131e+00  -1.649506e-20   1.525130e+06   1.528936e-39   0.000000e+00   0.000000e+00
     1192000   1.191999e-05   4.723333e+00   3.167180e-01   3.607181e+01   3.878636e+05  -5.781944e+05   1.356935e+06  -1.432844e+01  -9.611782e+00   2.645271e-20   1.525130e+06   1.667820e-39   0.000000e+00   0.000000e+00
     1200000   1.199999e-05   4.754362e+00   2.704624e-01   3.618037e+01   3.878640e+05  -5.781941e+05   1.356935e+06   1.154587e+07   7.745195e+06   1.463440e-14   1.525130e+06   1.082739e-27   0.000000e+00   0.000000e+00
     1208000   1.207999e-05   4.785392e+00   2.242069e-01   3.628892e+01   3.878638e+05  -5.781942e+05   1.356935e+06  -8.429645e+06  -5.654768e+06   9.250868e-15   1.525130e+06   5.771630e-28   0.000000e+00   0.000000e+00
     1216000   1.215999e-05   4.816421e+00   1.779514e-01   3.639748e+01   3.878655e+05  -5.781931e+05   1.356935e+06   5.160241e+07   3.461611e+07  -3.290005e-15   1.525130e+06   2.162751e-26   0.000000e+00   0.000000e+00
     1224000   1.223999e-05   4.847450e+00   1.316959e-01   3.650603e+01   3.878657e+05  -5.781930e+05   1.356935e+06   3.892889e+07   2.611443e+07  -6.330160e-14   1.525130e+06   1.230757e-26   0.000000e+00   0.000000e+00
     1232000   1.231999e-05   4.878479e+00   8.544061e-02   3.661459e+01   3.878701e+05  -5.781900e+05   1.356935e+06   5.521492e+07   3.704010e+07  -7.657188e-14   1.525130e+06   2.476902e-26   0.000000e+00   0.000000e+00
     1240000   1.239999e-05   4.909509e+00   3.918553e-02   3.672314e+01   3.878747e+05  -5.781869e+05   1.356935e+06   6.878834e+07   4.614642e+07   8.361486e-14   1.525130e+06   3.844403e-26   0.000000e+00   0.000000e+00
