     timestep     time              x             y              z              vx             vy             vz             ax             ay             az         v_magnitude      ELoss        Electronic      Nuclear
           0   0.000000e+00   1.000000e-01   5.239433e+00   5.935596e+00   1.526312e+06  -1.370347e+06  -1.204741e+06   0.000000e+00   0.000000e+00   0.000000e+00   2.378840e+06   0.000000e+00   0.000000e+00   0.000000e+00
        8000   7.999000e-08   2.221050e-01   5.129805e+00   5.839217e+00   1.526312e+06  -1.370347e+06  -1.204741e+06   0.000000e+00   0.000000e+00   0.000000e+00   2.378840e+06   0.000000e+00   0.000000e+00   0.000000e+00
       16000   1.599900e-07   3.442100e-01   5.020178e+00   5.742838e+00   1.526312e+06  -1.370347e+06  -1.204741e+06   0.000000e+00   0.000000e+00   0.000000e+00   2.378840e+06   0.000000e+00   0.000000e+00   0.000000e+00
       24000   2.399900e-07   4.663149e-01   4.910550e+00   5.646458e+00   1.526312e+06  -1.370347e+06  -1.204741e+06   0.000000e+00   0.000000e+00   0.000000e+00   2.378840e+06   0.000000e+00   0.000000e+00   0.000000e+00
       32000   3.199900e-07   5.884199e-01   4.800922e+00   5.550079e+00   1.526312e+06  -1.370347e+06  -1.204741e+06   0.000000e+00   0.000000e+00   0.000000e+00   2.378840e+06   0.000000e+00   0.000000e+00   0.000000e+00
       40000   3.999900e-07   7.105249e-01   4.691294e+00   5.453700e+00   1.526312e+06  -1.370347e+06  -1.204741e+06   0.000000e+00   0.000000e+00   0.000000e+00   2.378840e+06   0.000000e+00   0.000000e+00   0.000000e+00
       48000   4.799900e-07   8.326299e-01   4.581667e+00   5.357321e+00   1.526312e+06  -1.370347e+06  -1.204741e+06   0.000000e+00   0.000000e+00   0.000000e+00   2.378840e+06   0.000000e+00   0.000000e+00   0.000000e+00
       56000   5.599900e-07   9.547349e-01   4.472039e+00   5.260941e+00   1.526312e+06  -1.370347e+06  -1.204741e+06   0.000000e+00   0.000000e+00   0.000000e+00   2.378840e+06   0.000000e+00   0.000000e+00   0.000000e+00
       64000   6.399900e-07   1.076840e+00   4.362411e+00   5.164562e+00   1.526312e+06  -1.370347e+06  -1.204741e+06   0.000000e+00   0.000000e+00   0.000000e+00   2.378840e+06   0.000000e+00   0.000000e+00   0.000000e+00
       72000   7.199900e-07   1.198945e+00   4.252783e+00   5.068183e+00   1.526312e+06  -1.370347e+06  -1.204741e+06   0.000000e+00   0.000000e+00   0.000000e+00   2.378840e+06   0.000000e+00   0.000000e+00   0.000000e+00
       80000   7.999900e-07   1.321050e+00   4.143156e+00   4.971804e+00   1.526312e+06  -1.370347e+06  -1.204741e+06   0.000000e+00   0.000000e+00   0.000000e+00   2.378840e+06   0.000000e+00   0.000000e+00   0.000000e+00
       88000   8.799900e-07   1.443155e+00   4.033528e+00   4.875424e+00   1.526312e+06  -1.370347e+06  -1.204741e+06   0.000000e+00   0.000000e+00   0.000000e+00   2.378840e+06   0.000000e+00   0.000000e+00   0.000000e+00
       96000   9.599900e-07   1.565260e+00   3.923900e+00   4.779045e+00   1.526312e+06  -1.370347e+06  -1.204741e+06   0.000000e+00   0.000000e+00   0.000000e+00   2.378840e+06   0.000000e+00   0.000000e+00   0.000000e+00
      104000   1.039990e-06   1.687365e+00   3.814273e+00   4.682666e+00   1.526312e+06  -1.370347e+06  -1.204741e+06   0.000000e+00   0.000000e+00   0.000000e+00   2.378840e+06   0.000000e+00   0.000000e+00   0.000000e+00
      112000   1.119990e-06   1.809470e+00   3.704645e+00   4.586287e+00   1.526312e+06  -1.370347e+06  -1.204741e+06   0.000000e+00   0.000000e+00   0.000000e+00   2.378840e+06   0.000000e+00   0.000000e+00   0.000000e+00
      120000   1.199990e-06   1.931575e+00   3.595017e+00   4.489907e+00   1.526312e+06  -1.370347e+06  -1.204741e+06   0.000000e+00   0.000000e+00   0.000000e+00   2.378840e+06   0.000000e+00   0.000000e+00   0.000000e+00
      128000   1.279990e-06   2.053680e+00   3.485389e+00   4.393528e+00   1.526312e+06  -1.370347e+06  -1.204741e+06   0.000000e+00   0.000000e+00   0.000000e+00   2.378840e+06   0.000000e+00   0.000000e+00   0.000000e+00
      136000   1.359990e-06   2.175785e+00   3.375762e+00   4.297149e+00   1.526312e+06  -1.370347e+06  -1.204741e+06   0.000000e+00   0.000000e+00   0.000000e+00   2.378840e+06   0.000000e+00   0.000000e+00   0.000000e+00
      144000   1.439990e-06   2.297890e+00   3.266134e+00   4.200770e+00   1.526312e+06  -1.370347e+06  -1.204741e+06   0.000000e+00   0.000000e+00   0.000000e+00   2.378840e+06   0.000000e+00   0.000000e+00   0.000000e+00
      152000   1.519990e-06   2.419995e+00   3.156506e+00   4.104390e+00   1.526312e+06  -1.370347e+06  -1.204741e+06   0.000000e+00   0.000000e+00   0.000000e+00   2.378840e+06   0.000000e+00   0.000000e+00   0.000000e+00
      160000   1.599990e-06   2.542100e+00   3.046879e+00   4.008011e+00   1.526312e+06  -1.370347e+06  -1.204741e+06   0.000000e+00   0.000000e+00   0.000000e+00   2.378840e+06   0.000000e+00   0.000000e+00   0.000000e+00
      168000   1.679990e-06   2.664205e+00   2.937251e+00   3.911632e+00   1.526312e+06  -1.370347e+06  -1.204741e+06   0.000000e+00   0.000000e+00   0.000000e+00   2.378840e+06   0.000000e+00   0.000000e+00   0.000000e+00
      176000   1.759990e-06   2.786310e+00   2.827623e+00   3.815253e+00   1.526312e+06  -1.370347e+06  -1.204741e+06   0.000000e+00   0.000000e+00   0.000000e+00   2.378840e+06   0.000000e+00   0.000000e+00   0.000000e+00
      184000   1.839990e-06   2.908415e+00   2.717995e+00   3.718873e+00   1.526312e+06  -1.370347e+06  -1.204741e+06   0.000000e+00   0.000000e+00   0.000000e+00   2.378840e+06   0.000000e+00   0.000000e+00   0.000000e+00
      192000   1.919990e-06   3.030520e+00   2.608368e+00   3.622494e+00   1.526312e+06  -1.370347e+06  -1.204741e+06   0.000000e+00   0.000000e+00   0.000000e+00   2.378840e+06   0.000000e+00   0.000000e+00   0.000000e+00
      200000   1.999990e-06   3.152624e+00   2.498740e+00   3.526115e+00   1.526312e+06  -1.370347e+06  -1.204741e+06   0.000000e+00   0.000000e+00   0.000000e+00   2.378840e+06   0.000000e+00   0.000000e+00   0.000000e+00
      208000   2.079990e-06   3.274729e+00   2.389112e+00   3.429736e+00   1.526312e+06  -1.370347e+06  -1.204741e+06   0.000000e+00   0.000000e+00   0.000000e+00   2.378840e+06   0.000000e+00   0.000000e+00   0.000000e+00
      216000   2.159990e-06   3.396834e+00   2.279484e+00   3.333356e+00   1.526312e+06  -1.370347e+06  -1.204741e+06   0.000000e+00   0.000000e+00   0.000000e+00   2.378840e+06   0.000000e+00   0.000000e+00   0.000000e+00
      224000   2.239990e-06   3.518939e+00   2.169857e+00   3.236977e+00   1.526312e+06  -1.370347e+06  -1.204741e+06   0.000000e+00   0.000000e+00   0.000000e+00   2.378840e+06   0.000000e+00   0.000000e+00   0.000000e+00
      232000   2.319990e-06   3.641044e+00   2.060229e+00   3.140598e+00   1.526312e+06  -1.370347e+06  -1.204741e+06   0.000000e+00   0.000000e+00   0.000000e+00   2.378840e+06   0.000000e+00   0.000000e+00   0.000000e+00
      240000   2.399990e-06   3.763149e+00   1.950601e+00   3.044219e+00   1.526312e+06  -1.370347e+06  -1.204741e+06   0.000000e+00   0.000000e+00   0.000000e+00   2.378840e+06   0.000000e+00   0.000000e+00   0.000000e+00
      248000   2.479990e-06   3.885254e+00   1.840974e+00   2.947839e+00   1.526312e+06  -1.370347e+06  -1.204741e+06   0.000000e+00   0.000000e+00   0.000000e+00   2.378840e+06   0.000000e+00   0.000000e+00   0.000000e+00
      256000   2.559990e-06   4.007359e+00   1.731346e+00   2.851460e+00   1.526312e+06  -1.370347e+06  -1.204741e+06   0.000000e+00   0.000000e+00   0.000000e+00   2.378840e+06   0.000000e+00   0.000000e+00   0.000000e+00
      264000   2.639990e-06   4.129464e+00   1.621718e+00   2.755081e+00   1.526312e+06  -1.370347e+06  -1.204741e+06   0.000000e+00   0.000000e+00   0.000000e+00   2.378840e+06   0.000000e+00   0.000000e+00   0.000000e+00
      272000   2.719990e-06   4.251569e+00   1.512090e+00   2.658702e+00   1.526312e+06  -1.370347e+06  -1.204741e+06   0.000000e+00   0.000000e+00   0.000000e+00   2.378840e+06   0.000000e+00   0.000000e+00   0.000000e+00
      280000   2.799990e-06   4.373674e+00   1.402463e+00   2.562322e+00   1.526312e+06  -1.370347e+06  -1.204741e+06   0.000000e+00   0.000000e+00   0.000000e+00   2.378840e+06   0.000000e+00   0.000000e+00   0.000000e+00
      288000   2.879990e-06   4.495779e+00   1.292835e+00   2.465943e+00   1.526312e+06  -1.370347e+06  -1.204741e+06   0.000000e+00   0.000000e+00   0.000000e+00   2.378840e+06   0.000000e+00   0.000000e+00   0.000000e+00
      296000   2.959990e-06   4.617884e+00   1.183207e+00   2.369564e+00   1.526312e+06  -1.370347e+06  -1.204741e+06   0.000000e+00   0.000000e+00   0.000000e+00   2.378840e+06   0.000000e+00   0.000000e+00   0.000000e+00
      304000   3.039990e-06   4.739989e+00   1.073579e+00   2.273185e+00   1.526312e+06  -1.370347e+06  -1.204741e+06   0.000000e+00   0.000000e+00   0.000000e+00   2.378840e+06   0.000000e+00   0.000000e+00   0.000000e+00
      312000   3.119990e-06   4.862094e+00   9.639518e-01   2.176806e+00   1.526312e+06  -1.370347e+06  -1.204741e+06   0.000000e+00   0.000000e+00   0.000000e+00   2.378840e+06   0.000000e+00   0.000000e+00   0.000000e+00
      320000   3.199990e-06   4.984199e+00   8.543240e-01   2.080426e+00   1.526312e+06  -1.370347e+06  -1.204741e+06   0.000000e+00   0.000000e+00   0.000000e+00   2.378840e+06   0.000000e+00   0.000000e+00   0.000000e+00
      328000   3.279990e-06   5.106304e+00   7.446963e-01   1.984047e+00   1.526312e+06  -1.370347e+06  -1.204741e+06   0.000000e+00   0.000000e+00   0.000000e+00   2.378840e+06   0.000000e+00   0.000000e+00   0.000000e+00
      336000   3.359990e-06   5.228409e+00   6.350686e-01   1.887668e+00   1.526312e+06  -1.370347e+06  -1.204741e+06   0.000000e+00   0.000000e+00   0.000000e+00   2.378840e+06   0.000000e+00   0.000000e+00   0.000000e+00
      344000   3.439990e-06   5.350514e+00   5.254409e-01   1.791289e+00   1.526312e+06  -1.370347e+06  -1.204741e+06   0.000000e+00   0.000000e+00   0.000000e+00   2.378840e+06   0.000000e+00   0.000000e+00   0.000000e+00
      352000   3.519990e-06   5.472619e+00   4.158131e-01   1.694909e+00   1.526312e+06  -1.370347e+06  -1.204741e+06   0.000000e+00   0.000000e+00   0.000000e+00   2.378840e+06   0.000000e+00   0.000000e+00   0.000000e+00
      360000   3.599990e-06   5.594724e+00   3.061854e-01   1.598530e+00   1.526312e+06  -1.370347e+06  -1.204741e+06   0.000000e+00   0.000000e+00   0.000000e+00   2.378840e+06   0.000000e+00   0.000000e+00   0.000000e+00
      368000   3.679990e-06   5.716829e+00   1.965577e-01   1.502151e+00   1.526312e+06  -1.370347e+06  -1.204741e+06   0.000000e+00   0.000000e+00   0.000000e+00   2.378840e+06   0.000000e+00   0.000000e+00   0.000000e+00
      376000   3.759990e-06   5.838934e+00   8.692996e-02   1.405772e+00   1.526312e+06  -1.370347e+06  -1.204741e+06   0.000000e+00   0.000000e+00   0.000000e+00   2.378840e+06   0.000000e+00   0.000000e+00   0.000000e+00
