     timestep     time              x             y              z              vx             vy             vz             ax             ay             az         v_magnitude      ELoss        Electronic      Nuclear
           0   0.000000e+00   1.000000e-01   1.199967e+01   2.094277e+01   8.962968e+04   2.378065e+05   2.365226e+06   0.000000e+00   0.000000e+00   0.000000e+00   2.378840e+06   0.000000e+00   0.000000e+00   0.000000e+00
        8000   7.999000e-08   1.071703e-01   1.201870e+01   2.113199e+01   8.962794e+04   2.378071e+05   2.365226e+06  -2.254454e+07   8.496890e+06  -3.270435e-15   2.378840e+06   7.909526e-27   0.000000e+00   0.000000e+00
       16000   1.599900e-07   1.143405e-01   1.203772e+01   2.132121e+01   8.962633e+04   2.378077e+05   2.365226e+06  -2.341602e+07   8.825161e+06  -2.145132e-15   2.378840e+06   8.532929e-27   0.000000e+00   0.000000e+00
       24000   2.399900e-07   1.215105e-01   1.205675e+01   2.151043e+01   8.962486e+04   2.378083e+05   2.365226e+06  -2.428751e+07   9.153444e+06   2.609619e-15   2.378840e+06   9.179993e-27   0.000000e+00   0.000000e+00
       32000   3.199900e-07   1.286804e-01   1.207577e+01   2.169964e+01   8.962354e+04   2.378088e+05   2.365226e+06   9.220130e+06  -3.474812e+06  -6.634408e-16   2.378840e+06   1.322022e-27   0.000000e+00   0.000000e+00
       40000   3.999900e-07   1.358502e-01   1.209480e+01   2.188886e+01   8.962219e+04   2.378093e+05   2.365226e+06   1.304152e+07  -4.914902e+06   7.124345e-15   2.378840e+06   2.645813e-27   0.000000e+00   0.000000e+00
       48000   4.799900e-07   1.430199e-01   1.211382e+01   2.207808e+01   8.962091e+04   2.378098e+05   2.365226e+06  -2.688419e+07   1.013157e+07  -7.057181e-15   2.378840e+06   1.124814e-26   0.000000e+00   0.000000e+00
       56000   5.599900e-07   1.501896e-01   1.213285e+01   2.226730e+01   8.961986e+04   2.378102e+05   2.365226e+06  -2.775851e+07   1.046092e+07   1.424120e-15   2.378840e+06   1.199174e-26   0.000000e+00   0.000000e+00
       64000   6.399900e-07   1.573591e-01   1.215187e+01   2.245652e+01   8.961895e+04   2.378105e+05   2.365226e+06  -2.863283e+07   1.079029e+07  -1.730772e-14   2.378840e+06   1.275915e-26   0.000000e+00   0.000000e+00
       72000   7.199900e-07   1.645286e-01   1.217090e+01   2.264573e+01   8.961819e+04   2.378108e+05   2.365226e+06  -2.950716e+07   1.111967e+07   9.243981e-15   2.378840e+06   1.355038e-26   0.000000e+00   0.000000e+00
       80000   7.999900e-07   1.716980e-01   1.218992e+01   2.283495e+01   8.961759e+04   2.378110e+05   2.365226e+06  -3.038150e+07   1.144908e+07   1.889629e-14   2.378840e+06   1.436541e-26   0.000000e+00   0.000000e+00
       88000   8.799900e-07   1.788673e-01   1.220895e+01   2.302417e+01   8.961619e+04   2.378116e+05   2.365226e+06  -7.402013e+05   2.789352e+05   7.045142e-16   2.378840e+06   8.647856e-30   0.000000e+00   0.000000e+00
       96000   9.599900e-07   1.860366e-01   1.222797e+01   2.321339e+01   8.961562e+04   2.378118e+05   2.365226e+06   3.106095e+06  -1.170483e+06   2.663218e-15   2.378840e+06   1.497033e-28   0.000000e+00   0.000000e+00
      104000   1.039990e-06   1.932059e-01   1.224700e+01   2.340261e+01   8.961513e+04   2.378120e+05   2.365226e+06   6.952390e+06  -2.619882e+06  -4.397490e-15   2.378840e+06   7.513822e-28   0.000000e+00   0.000000e+00
      112000   1.119990e-06   2.003751e-01   1.226602e+01   2.359182e+01   8.961504e+04   2.378120e+05   2.365226e+06   2.690875e+06  -1.014006e+06  -1.345611e-15   2.378840e+06   1.126202e-28   0.000000e+00   0.000000e+00
      120000   1.199990e-06   2.075443e-01   1.228505e+01   2.378104e+01   8.961485e+04   2.378121e+05   2.365226e+06   3.403544e+06  -1.282560e+06  -7.396086e-16   2.378840e+06   1.802088e-28   0.000000e+00   0.000000e+00
      128000   1.279990e-06   2.147135e-01   1.230407e+01   2.397026e+01   8.961458e+04   2.378122e+05   2.365226e+06  -3.447596e+06   1.299155e+06   1.950591e-16   2.378840e+06   1.849094e-28   0.000000e+00   0.000000e+00
      136000   1.359990e-06   2.218826e-01   1.232310e+01   2.415948e+01   8.961443e+04   2.378122e+05   2.365226e+06  -3.832826e+06   1.444318e+06   2.838290e-15   2.378840e+06   2.285572e-28   0.000000e+00   0.000000e+00
      144000   1.439990e-06   2.290518e-01   1.234212e+01   2.434870e+01   8.961430e+04   2.378123e+05   2.365226e+06  -4.218057e+06   1.589481e+06  -3.718064e-15   2.378840e+06   2.768256e-28   0.000000e+00   0.000000e+00
      152000   1.519990e-06   2.362209e-01   1.236115e+01   2.453791e+01   8.961419e+04   2.378123e+05   2.365226e+06  -4.603287e+06   1.734645e+06  -3.889974e-16   2.378840e+06   3.297147e-28   0.000000e+00   0.000000e+00
      160000   1.599990e-06   2.433901e-01   1.238017e+01   2.472713e+01   8.961410e+04   2.378124e+05   2.365226e+06  -4.988518e+06   1.879808e+06   2.626953e-15   2.378840e+06   3.872243e-28   0.000000e+00   0.000000e+00
      168000   1.679990e-06   2.505592e-01   1.239920e+01   2.491635e+01   8.961403e+04   2.378124e+05   2.365226e+06  -5.373749e+06   2.024972e+06   1.860044e-15   2.378840e+06   4.493547e-28   0.000000e+00   0.000000e+00
      176000   1.759990e-06   2.577283e-01   1.241822e+01   2.510557e+01   8.961392e+04   2.378124e+05   2.365226e+06  -8.613949e+05   3.245960e+05  -7.362820e-16   2.378840e+06   1.158502e-29   0.000000e+00   0.000000e+00
      184000   1.839990e-06   2.648974e-01   1.243725e+01   2.529479e+01   8.961383e+04   2.378125e+05   2.365226e+06  -6.148958e+06   2.317085e+06  -1.541408e-16   2.378840e+06   5.883847e-28   0.000000e+00   0.000000e+00
      192000   1.919990e-06   2.720665e-01   1.245627e+01   2.548400e+01   8.961378e+04   2.378125e+05   2.365226e+06  -6.535409e+06   2.462708e+06   2.788567e-15   2.378840e+06   6.646821e-28   0.000000e+00   0.000000e+00
      200000   1.999990e-06   2.792356e-01   1.247530e+01   2.567322e+01   8.961375e+04   2.378125e+05   2.365226e+06  -6.921861e+06   2.608332e+06  -2.151434e-15   2.378840e+06   7.456295e-28   0.000000e+00   0.000000e+00
      208000   2.079990e-06   2.864047e-01   1.249432e+01   2.586244e+01   8.961374e+04   2.378125e+05   2.365226e+06  -7.308312e+06   2.753956e+06   1.510829e-15   2.378840e+06   8.312269e-28   0.000000e+00   0.000000e+00
      216000   2.159990e-06   2.935738e-01   1.251335e+01   2.605166e+01   8.961357e+04   2.378126e+05   2.365226e+06   2.733636e+06  -1.030101e+06   4.129257e-16   2.378840e+06   1.162281e-28   0.000000e+00   0.000000e+00
      224000   2.239990e-06   3.007429e-01   1.253237e+01   2.624088e+01   8.961353e+04   2.378126e+05   2.365226e+06   1.198577e+00  -4.516529e-01  -5.578936e-22   2.378840e+06   2.238160e-41   0.000000e+00   0.000000e+00
      232000   2.319990e-06   3.079120e-01   1.255140e+01   2.643009e+01   8.961353e+04   2.378126e+05   2.365226e+06   7.503486e-01  -2.827495e-01  -3.992590e-23   2.378840e+06   8.775711e-42   0.000000e+00   0.000000e+00
      240000   2.399990e-06   3.150811e-01   1.257042e+01   2.661931e+01   8.961353e+04   2.378126e+05   2.365226e+06   3.021200e-01  -1.138461e-01   4.850537e-23   2.378840e+06   1.425268e-42   0.000000e+00   0.000000e+00
      248000   2.479990e-06   3.222502e-01   1.258945e+01   2.680853e+01   8.961353e+04   2.378126e+05   2.365226e+06  -1.461086e-01   5.505726e-02  -7.739499e-23   2.378840e+06   3.302700e-43   0.000000e+00   0.000000e+00
      256000   2.559990e-06   3.294192e-01   1.260847e+01   2.699775e+01   8.961353e+04   2.378126e+05   2.365226e+06  -1.399611e+00   5.274074e-01  -5.979531e-22   2.378840e+06   3.044791e-41   0.000000e+00   0.000000e+00
      264000   2.639990e-06   3.365883e-01   1.262750e+01   2.718697e+01   8.961353e+04   2.378126e+05   2.365226e+06  -2.526117e+00   9.519019e-01  -2.711763e-22   2.378840e+06   9.925574e-41   0.000000e+00   0.000000e+00
      272000   2.719990e-06   3.437574e-01   1.264652e+01   2.737619e+01   8.961353e+04   2.378126e+05   2.365226e+06  -3.652622e+00   1.376396e+00  -2.239953e-21   2.378840e+06   2.075753e-40   0.000000e+00   0.000000e+00
      280000   2.799990e-06   3.509265e-01   1.266555e+01   2.756540e+01   8.961353e+04   2.378126e+05   2.365226e+06  -4.779128e+00   1.800891e+00   2.682358e-21   2.378840e+06   3.554065e-40   0.000000e+00   0.000000e+00
      288000   2.879990e-06   3.580956e-01   1.268457e+01   2.775462e+01   8.961353e+04   2.378126e+05   2.365226e+06  -5.905633e+00   2.225385e+00  -2.730987e-21   2.378840e+06   5.427494e-40   0.000000e+00   0.000000e+00
      296000   2.959990e-06   3.652646e-01   1.270360e+01   2.794384e+01   8.961353e+04   2.378126e+05   2.365226e+06   3.878904e+00  -1.461665e+00  -8.211017e-22   2.378840e+06   2.340884e-40   0.000000e+00   0.000000e+00
      304000   3.039990e-06   3.724337e-01   1.272262e+01   2.813306e+01   8.961353e+04   2.378126e+05   2.365226e+06   4.511362e+00  -1.699990e+00  -1.250781e-21   2.378840e+06   3.166757e-40   0.000000e+00   0.000000e+00
      312000   3.119990e-06   3.796028e-01   1.274165e+01   2.832228e+01   8.961353e+04   2.378126e+05   2.365226e+06   5.143820e+00  -1.938316e+00   2.907006e-21   2.378840e+06   4.117174e-40   0.000000e+00   0.000000e+00
      320000   3.199990e-06   3.867719e-01   1.276067e+01   2.851149e+01   8.961353e+04   2.378126e+05   2.365226e+06   5.776278e+00  -2.176641e+00   2.465171e-21   2.378840e+06   5.192135e-40   0.000000e+00   0.000000e+00
      328000   3.279990e-06   3.939410e-01   1.277970e+01   2.870071e+01   8.961353e+04   2.378126e+05   2.365226e+06   6.408736e+00  -2.414967e+00   4.317083e-21   2.378840e+06   6.391639e-40   0.000000e+00   0.000000e+00
      336000   3.359990e-06   4.011101e-01   1.279872e+01   2.888993e+01   8.961353e+04   2.378126e+05   2.365226e+06   8.315627e-01  -3.133529e-01   4.186437e-22   2.378840e+06   1.077501e-41   0.000000e+00   0.000000e+00
      344000   3.439990e-06   4.082791e-01   1.281775e+01   2.907915e+01   8.961353e+04   2.378126e+05   2.365226e+06   5.609101e+00  -2.113645e+00   1.293485e-21   2.378840e+06   4.896418e-40   0.000000e+00   0.000000e+00
      352000   3.519990e-06   4.154482e-01   1.283677e+01   2.926837e+01   8.961353e+04   2.378126e+05   2.365226e+06   6.794321e+00  -2.560264e+00  -1.177706e-21   2.378840e+06   7.184690e-40   0.000000e+00   0.000000e+00
      360000   3.599990e-06   4.226173e-01   1.285580e+01   2.945758e+01   8.961353e+04   2.378126e+05   2.365226e+06   7.979541e+00  -3.006884e+00   3.230592e-21   2.378840e+06   9.910340e-40   0.000000e+00   0.000000e+00
      368000   3.679990e-06   4.297864e-01   1.287482e+01   2.964680e+01   8.961353e+04   2.378126e+05   2.365226e+06   5.654470e+00   1.912916e+00  -4.065711e-01   2.378840e+06   4.880088e-40   0.000000e+00   0.000000e+00
      376000   3.759990e-06   4.369555e-01   1.289385e+01   2.983602e+01   8.961353e+04   2.378126e+05   2.365226e+06  -1.121300e+01   3.238908e+01  -2.831736e+00   2.378840e+06   1.613296e-38   0.000000e+00   0.000000e+00
      384000   3.839990e-06   4.441245e-01   1.291287e+01   3.002524e+01   8.961353e+04   2.378126e+05   2.365226e+06   2.342201e+01  -4.322619e+01   3.458783e+00   2.378840e+06   3.314032e-38   0.000000e+00   0.000000e+00
      392000   3.919990e-06   4.512936e-01   1.293190e+01   3.021446e+01   8.961353e+04   2.378126e+05   2.365226e+06   2.427551e+00  -9.147600e-01   1.295114e-21   2.378840e+06   9.176699e-41   0.000000e+00   0.000000e+00
      400000   3.999990e-06   4.584627e-01   1.295092e+01   3.040367e+01   8.961353e+04   2.378126e+05   2.365226e+06   4.348801e-01  -1.638733e-01   2.629169e-22   2.378840e+06   2.948771e-42   0.000000e+00   0.000000e+00
      408000   4.079990e-06   4.656318e-01   1.296995e+01   3.059289e+01   8.961353e+04   2.378126e+05   2.365226e+06  -5.596110e+00   2.108750e+00  -2.119703e-21   2.378840e+06   4.874900e-40   0.000000e+00   0.000000e+00
      416000   4.159990e-06   4.728009e-01   1.298897e+01   3.078211e+01   8.961353e+04   2.378126e+05   2.365226e+06  -8.147318e+00   3.070106e+00  -3.925179e-21   2.378840e+06   1.033318e-39   0.000000e+00   0.000000e+00
      424000   4.239990e-06   4.799700e-01   1.300800e+01   3.097133e+01   8.961353e+04   2.378126e+05   2.365226e+06   3.910984e+00  -1.473753e+00   1.703401e-21   2.378840e+06   2.380892e-40   0.000000e+00   0.000000e+00
      432000   4.319990e-06   4.871390e-01   1.302702e+01   3.116055e+01   8.961353e+04   2.378126e+05   2.365226e+06   4.595784e+00  -1.731803e+00   1.285945e-21   2.378840e+06   3.287729e-40   0.000000e+00   0.000000e+00
      440000   4.399990e-06   4.943081e-01   1.304605e+01   3.134976e+01   8.961353e+04   2.378126e+05   2.365226e+06   5.280584e+00  -1.989852e+00   2.017333e-21   2.378840e+06   4.340578e-40   0.000000e+00   0.000000e+00
      448000   4.479990e-06   5.014772e-01   1.306507e+01   3.153898e+01   8.961353e+04   2.378126e+05   2.365226e+06   1.318070e+00  -4.966805e-01   3.132851e-22   2.378840e+06   2.707259e-41   0.000000e+00   0.000000e+00
      456000   4.559990e-06   5.086463e-01   1.308410e+01   3.172820e+01   8.961353e+04   2.378126e+05   2.365226e+06   1.755671e+00  -6.615793e-01   9.176923e-22   2.378840e+06   4.802128e-41   0.000000e+00   0.000000e+00
      464000   4.639990e-06   5.158154e-01   1.310312e+01   3.191742e+01   8.961353e+04   2.378126e+05   2.365226e+06   1.124858e+00  -4.238736e-01   4.876176e-22   2.378840e+06   1.968746e-41   0.000000e+00   0.000000e+00
      472000   4.719990e-06   5.229845e-01   1.312215e+01   3.210664e+01   8.961353e+04   2.378126e+05   2.365226e+06   6.672794e-01  -2.514470e-01  -1.612105e-22   2.378840e+06   6.925463e-42   0.000000e+00   0.000000e+00
      480000   4.799990e-06   5.301535e-01   1.314117e+01   3.229585e+01   8.961353e+04   2.378126e+05   2.365226e+06   2.521423e+00  -9.501332e-01   4.983339e-23   2.378840e+06   9.899640e-41   0.000000e+00   0.000000e+00
      488000   4.879990e-06   5.373226e-01   1.316020e+01   3.248507e+01   8.961353e+04   2.378126e+05   2.365226e+06   3.115946e+00  -1.174164e+00  -2.542438e-21   2.378840e+06   1.511781e-40   0.000000e+00   0.000000e+00
      496000   4.959990e-06   5.444917e-01   1.317922e+01   3.267429e+01   8.961353e+04   2.378126e+05   2.365226e+06   3.710469e+00  -1.398195e+00  -1.690879e-21   2.378840e+06   2.143650e-40   0.000000e+00   0.000000e+00
      504000   5.039990e-06   5.516608e-01   1.319825e+01   3.286351e+01   8.961353e+04   2.378126e+05   2.365226e+06   4.304993e+00  -1.622225e+00   1.456654e-21   2.378840e+06   2.885571e-40   0.000000e+00   0.000000e+00
      512000   5.119990e-06   5.588299e-01   1.321727e+01   3.305273e+01   8.961353e+04   2.378126e+05   2.365226e+06  -2.192424e+00   8.261584e-01  -9.532517e-22   2.378840e+06   7.475357e-41   0.000000e+00   0.000000e+00
      520000   5.199990e-06   5.659989e-01   1.323630e+01   3.324195e+01   8.961353e+04   2.378126e+05   2.365226e+06  -3.556948e+00   1.340344e+00   2.993643e-22   2.378840e+06   1.968381e-40   0.000000e+00   0.000000e+00
      528000   5.279990e-06   5.731680e-01   1.325532e+01   3.343116e+01   8.961353e+04   2.378126e+05   2.365226e+06  -4.921472e+00   1.854530e+00   2.700273e-21   2.378840e+06   3.768950e-40   0.000000e+00   0.000000e+00
      536000   5.359990e-06   5.803371e-01   1.327435e+01   3.362038e+01   8.961353e+04   2.378126e+05   2.365226e+06  -6.285996e+00   2.368715e+00  -6.423607e-22   2.378840e+06   6.149244e-40   0.000000e+00   0.000000e+00
      544000   5.439990e-06   5.875062e-01   1.329337e+01   3.380960e+01   8.961353e+04   2.378126e+05   2.365226e+06  -7.650520e+00   2.882901e+00  -3.987755e-21   2.378840e+06   9.109262e-40   0.000000e+00   0.000000e+00
      552000   5.519990e-06   5.946753e-01   1.331240e+01   3.399882e+01   8.961353e+04   2.378126e+05   2.365226e+06  -4.579779e+00   1.725771e+00  -5.392732e-21   2.378840e+06   3.263360e-40   0.000000e+00   0.000000e+00
      560000   5.599990e-06   6.018444e-01   1.333142e+01   3.418804e+01   8.961353e+04   2.378126e+05   2.365226e+06   4.485344e+00  -1.690186e+00  -1.337700e-23   2.378840e+06   3.130519e-40   0.000000e+00   0.000000e+00
      568000   5.679990e-06   6.090134e-01   1.335045e+01   3.437725e+01   8.961353e+04   2.378126e+05   2.365226e+06   3.924913e+00  -1.479002e+00  -3.137059e-23   2.378840e+06   2.396932e-40   0.000000e+00   0.000000e+00
      576000   5.759990e-06   6.161825e-01   1.336947e+01   3.456647e+01   8.961353e+04   2.378126e+05   2.365226e+06   3.364481e+00  -1.267818e+00   1.101123e-21   2.378840e+06   1.761136e-40   0.000000e+00   0.000000e+00
      584000   5.839990e-06   6.233516e-01   1.338850e+01   3.475569e+01   8.961353e+04   2.378126e+05   2.365226e+06   2.804050e+00  -1.056634e+00   1.086988e-21   2.378840e+06   1.223133e-40   0.000000e+00   0.000000e+00
      592000   5.919990e-06   6.305207e-01   1.340752e+01   3.494491e+01   8.961353e+04   2.378126e+05   2.365226e+06   1.210038e+00  -4.559714e-01  -1.667681e-22   2.378840e+06   2.277877e-41   0.000000e+00   0.000000e+00
      600000   5.999990e-06   6.376898e-01   1.342655e+01   3.513413e+01   8.961353e+04   2.378126e+05   2.365226e+06   1.804723e+00  -6.800632e-01  -3.520674e-22   2.378840e+06   5.068172e-41   0.000000e+00   0.000000e+00
      608000   6.079990e-06   6.448588e-01   1.344557e+01   3.532334e+01   8.961353e+04   2.378126e+05   2.365226e+06   2.399408e+00  -9.041550e-01   6.105735e-22   2.378840e+06   8.959584e-41   0.000000e+00   0.000000e+00
      616000   6.159990e-06   6.520279e-01   1.346460e+01   3.551256e+01   8.961353e+04   2.378126e+05   2.365226e+06   2.994093e+00  -1.128247e+00   4.243748e-22   2.378840e+06   1.395211e-40   0.000000e+00   0.000000e+00
      624000   6.239990e-06   6.591970e-01   1.348362e+01   3.570178e+01   8.961353e+04   2.378126e+05   2.365226e+06   3.588779e+00  -1.352339e+00   2.376925e-22   2.378840e+06   2.004576e-40   0.000000e+00   0.000000e+00
      632000   6.319990e-06   6.663661e-01   1.350265e+01   3.589100e+01   8.961353e+04   2.378126e+05   2.365226e+06   3.975236e+00  -1.497965e+00  -1.486342e-21   2.378840e+06   2.459362e-40   0.000000e+00   0.000000e+00
      640000   6.399990e-06   6.735352e-01   1.352167e+01   3.608022e+01   8.961353e+04   2.378126e+05   2.365226e+06   3.958744e+00  -1.491751e+00  -5.248403e-22   2.378840e+06   2.438995e-40   0.000000e+00   0.000000e+00
      648000   6.479990e-06   6.807043e-01   1.354070e+01   3.626943e+01   8.961353e+04   2.378126e+05   2.365226e+06   3.942252e+00  -1.485536e+00  -7.105024e-22   2.378840e+06   2.418712e-40   0.000000e+00   0.000000e+00
      656000   6.559990e-06   6.878733e-01   1.355972e+01   3.645865e+01   8.961353e+04   2.378126e+05   2.365226e+06   3.925760e+00  -1.479321e+00   2.534738e-22   2.378840e+06   2.398514e-40   0.000000e+00   0.000000e+00
      664000   6.639990e-06   6.950424e-01   1.357875e+01   3.664787e+01   8.961353e+04   2.378126e+05   2.365226e+06   3.909268e+00  -1.473107e+00   2.367088e-21   2.378840e+06   2.378401e-40   0.000000e+00   0.000000e+00
      672000   6.719990e-06   7.022115e-01   1.359777e+01   3.683709e+01   8.961353e+04   2.378126e+05   2.365226e+06   1.312537e+00  -4.945957e-01   6.361949e-22   2.378840e+06   2.683738e-41   0.000000e+00   0.000000e+00
      680000   6.799990e-06   7.093806e-01   1.361680e+01   3.702631e+01   8.961353e+04   2.378126e+05   2.365226e+06   1.121166e+00  -4.224826e-01  -1.769691e-22   2.378840e+06   1.961897e-41   0.000000e+00   0.000000e+00
      688000   6.879990e-06   7.165497e-01   1.363582e+01   3.721552e+01   8.961353e+04   2.378126e+05   2.365226e+06   2.784810e+00  -1.049384e+00   2.507286e-22   2.378840e+06   1.208554e-40   0.000000e+00   0.000000e+00
      696000   6.959990e-06   7.237188e-01   1.365485e+01   3.740474e+01   8.961353e+04   2.378126e+05   2.365226e+06   4.448454e+00  -1.676285e+00  -1.627936e-21   2.378840e+06   3.082665e-40   0.000000e+00   0.000000e+00
      704000   7.039990e-06   7.308878e-01   1.367387e+01   3.759396e+01   8.961353e+04   2.378126e+05   2.365226e+06   1.572258e+01  -5.924649e+00   4.435489e-21   2.378840e+06   3.847395e-39   0.000000e+00   0.000000e+00
      712000   7.119990e-06   7.380569e-01   1.369290e+01   3.778318e+01   8.961353e+04   2.378126e+05   2.365226e+06   1.857158e+01  -6.998219e+00  -1.463537e-20   2.378840e+06   5.368259e-39   0.000000e+00   0.000000e+00
      720000   7.199990e-06   7.452260e-01   1.371192e+01   3.797240e+01   8.961353e+04   2.378126e+05   2.365226e+06  -1.208749e+00   4.554858e-01   1.958377e-22   2.378840e+06   2.269995e-41   0.000000e+00   0.000000e+00
      728000   7.279990e-06   7.523951e-01   1.373095e+01   3.816161e+01   8.961353e+04   2.378126e+05   2.365226e+06  -4.593282e+00   1.730860e+00  -9.474755e-22   2.378840e+06   3.282803e-40   0.000000e+00   0.000000e+00
      736000   7.359990e-06   7.595642e-01   1.374997e+01   3.835083e+01   8.961353e+04   2.378126e+05   2.365226e+06  -7.977815e+00   3.006234e+00  -1.529332e-21   2.378840e+06   9.905224e-40   0.000000e+00   0.000000e+00
      744000   7.439990e-06   7.667332e-01   1.376900e+01   3.854005e+01   8.961353e+04   2.378126e+05   2.365226e+06  -1.136235e+01   4.281607e+00   1.577505e-22   2.378840e+06   2.009426e-39   0.000000e+00   0.000000e+00
      752000   7.519990e-06   7.739023e-01   1.378802e+01   3.872927e+01   8.961353e+04   2.378126e+05   2.365226e+06  -1.474688e+01   5.556981e+00  -1.427280e-20   2.378840e+06   3.384992e-39   0.000000e+00   0.000000e+00
      760000   7.599990e-06   7.810714e-01   1.380705e+01   3.891849e+01   8.961353e+04   2.378126e+05   2.365226e+06   2.885703e+00  -1.087403e+00  -1.327878e-21   2.378840e+06   1.294692e-40   0.000000e+00   0.000000e+00
      768000   7.679990e-06   7.882405e-01   1.382607e+01   3.910771e+01   8.961353e+04   2.378126e+05   2.365226e+06   3.982424e+00  -1.500674e+00  -1.922360e-21   2.378840e+06   2.466686e-40   0.000000e+00   0.000000e+00
      776000   7.759990e-06   7.954096e-01   1.384510e+01   3.929692e+01   8.961353e+04   2.378126e+05   2.365226e+06  -7.442195e+00   2.804399e+00   2.155324e-21   2.378840e+06   8.618390e-40   0.000000e+00   0.000000e+00
      784000   7.839990e-06   8.025787e-01   1.386412e+01   3.948614e+01   8.961353e+04   2.378126e+05   2.365226e+06   5.479478e+00  -2.064800e+00   1.361254e-21   2.378840e+06   4.673400e-40   0.000000e+00   0.000000e+00
      792000   7.919990e-06   8.097477e-01   1.388315e+01   3.967536e+01   8.961353e+04   2.378126e+05   2.365226e+06   6.540287e+00  -2.464538e+00   5.493244e-22   2.378840e+06   6.658253e-40   0.000000e+00   0.000000e+00
      800000   7.999990e-06   8.169168e-01   1.390217e+01   3.986458e+01   8.961353e+04   2.378126e+05   2.365226e+06   4.817063e+00  -1.815186e+00  -2.620619e-21   2.378840e+06   3.612678e-40   0.000000e+00   0.000000e+00
      808000   8.079990e-06   8.240859e-01   1.392120e+01   4.005380e+01   8.961353e+04   2.378126e+05   2.365226e+06   2.626910e+00  -9.898831e-01   1.505223e-21   2.378840e+06   1.074446e-40   0.000000e+00   0.000000e+00
      816000   8.159990e-06   8.312550e-01   1.394022e+01   4.024301e+01   8.961353e+04   2.378126e+05   2.365226e+06   4.367567e-01  -1.645805e-01  -1.026838e-22   2.378840e+06   2.972345e-42   0.000000e+00   0.000000e+00
      824000   8.239990e-06   8.384241e-01   1.395925e+01   4.043223e+01   8.961353e+04   2.378126e+05   2.365226e+06  -1.753396e+00   6.607221e-01   1.160247e-21   2.378840e+06   4.785110e-41   0.000000e+00   0.000000e+00
      832000   8.319990e-06   8.455931e-01   1.397827e+01   4.062145e+01   8.961353e+04   2.378126e+05   2.365226e+06  -3.943549e+00   1.486025e+00  -1.030762e-21   2.378840e+06   2.420808e-40   0.000000e+00   0.000000e+00
      840000   8.399990e-06   8.527622e-01   1.399730e+01   4.081067e+01   8.961353e+04   2.378126e+05   2.365226e+06  -6.133703e+00   2.311327e+00   1.928886e-21   2.378840e+06   5.856615e-40   0.000000e+00   0.000000e+00
      848000   8.479990e-06   8.599313e-01   1.401632e+01   4.099989e+01   8.961353e+04   2.378126e+05   2.365226e+06   3.457937e+00  -1.303034e+00  -8.013237e-22   2.378840e+06   1.861130e-40   0.000000e+00   0.000000e+00
      856000   8.559990e-06   8.671004e-01   1.403535e+01   4.118910e+01   8.961353e+04   2.378126e+05   2.365226e+06   4.848181e+00  -1.826912e+00  -3.108238e-21   2.378840e+06   3.658684e-40   0.000000e+00   0.000000e+00
      864000   8.639990e-06   8.742695e-01   1.405437e+01   4.137832e+01   8.961353e+04   2.378126e+05   2.365226e+06   6.238424e+00  -2.350789e+00   3.237168e-22   2.378840e+06   6.058022e-40   0.000000e+00   0.000000e+00
      872000   8.719990e-06   8.814386e-01   1.407340e+01   4.156754e+01   8.961353e+04   2.378126e+05   2.365226e+06   7.628667e+00  -2.874666e+00  -8.410968e-22   2.378840e+06   9.059144e-40   0.000000e+00   0.000000e+00
      880000   8.799990e-06   8.886076e-01   1.409242e+01   4.175676e+01   8.961353e+04   2.378126e+05   2.365226e+06   9.018911e+00  -3.398544e+00  -2.011189e-21   2.378840e+06   1.266205e-39   0.000000e+00   0.000000e+00
      888000   8.879990e-06   8.957767e-01   1.411145e+01   4.194598e+01   8.961353e+04   2.378126e+05   2.365226e+06  -3.435144e+00   1.294445e+00   6.214787e-22   2.378840e+06   1.835050e-40   0.000000e+00   0.000000e+00
      896000   8.959990e-06   9.029458e-01   1.413047e+01   4.213519e+01   8.961353e+04   2.378126e+05   2.365226e+06   3.274423e+00  -1.233882e+00  -2.513809e-22   2.378840e+06   1.668046e-40   0.000000e+00   0.000000e+00
      904000   9.039990e-06   9.101149e-01   1.414950e+01   4.232441e+01   8.961353e+04   2.378126e+05   2.365226e+06   3.890532e+00  -1.466046e+00  -3.073743e-24   2.378840e+06   2.355063e-40   0.000000e+00   0.000000e+00
      912000   9.119990e-06   9.172840e-01   1.416852e+01   4.251363e+01   8.961353e+04   2.378126e+05   2.365226e+06   4.506641e+00  -1.698211e+00   1.389349e-21   2.378840e+06   3.160268e-40   0.000000e+00   0.000000e+00
      920000   9.199990e-06   9.244531e-01   1.418755e+01   4.270285e+01   8.961353e+04   2.378126e+05   2.365226e+06   5.122750e+00  -1.930376e+00   2.776937e-21   2.378840e+06   4.083661e-40   0.000000e+00   0.000000e+00
      928000   9.279990e-06   9.316221e-01   1.420657e+01   4.289207e+01   8.961353e+04   2.378126e+05   2.365226e+06   3.260162e+00  -1.228508e+00   7.961651e-23   2.378840e+06   1.655553e-40   0.000000e+00   0.000000e+00
      936000   9.359990e-06   9.387912e-01   1.422560e+01   4.308128e+01   8.961353e+04   2.378126e+05   2.365226e+06   1.202858e+00  -4.532662e-01   4.697140e-22   2.378840e+06   2.255778e-41   0.000000e+00   0.000000e+00
      944000   9.439990e-06   9.459603e-01   1.424462e+01   4.327050e+01   8.961353e+04   2.378126e+05   2.365226e+06  -8.544451e-01   3.219756e-01  -5.684335e-22   2.378840e+06   1.134223e-41   0.000000e+00   0.000000e+00
      952000   9.519990e-06   9.531294e-01   1.426365e+01   4.345972e+01   8.961353e+04   2.378126e+05   2.365226e+06  -2.911749e+00   1.097217e+00  -4.576384e-22   2.378840e+06   1.319086e-40   0.000000e+00   0.000000e+00
      960000   9.599990e-06   9.602985e-01   1.428267e+01   4.364894e+01   8.961353e+04   2.378126e+05   2.365226e+06  -4.969052e+00   1.872459e+00  -6.400277e-22   2.378840e+06   3.842569e-40   0.000000e+00   0.000000e+00
      968000   9.679990e-06   9.674675e-01   1.430170e+01   4.383816e+01   8.961353e+04   2.378126e+05   2.365226e+06  -1.770782e+00   6.672735e-01   4.557537e-24   2.378840e+06   4.880706e-41   0.000000e+00   0.000000e+00
      976000   9.759990e-06   9.746366e-01   1.432072e+01   4.402737e+01   8.961353e+04   2.378126e+05   2.365226e+06  -2.349692e+00   8.854206e-01   4.950800e-22   2.378840e+06   8.593954e-41   0.000000e+00   0.000000e+00
      984000   9.839990e-06   9.818057e-01   1.433975e+01   4.421659e+01   8.961353e+04   2.378126e+05   2.365226e+06  -2.928601e+00   1.103568e+00   4.107155e-22   2.378840e+06   1.335067e-40   0.000000e+00   0.000000e+00
      992000   9.919990e-06   9.889748e-01   1.435877e+01   4.440581e+01   8.961353e+04   2.378126e+05   2.365226e+06  -3.507511e+00   1.321715e+00   1.475848e-21   2.378840e+06   1.915087e-40   0.000000e+00   0.000000e+00
     1000000   9.999990e-06   9.961439e-01   1.437780e+01   4.459503e+01   8.961353e+04   2.378126e+05   2.365226e+06   3.926195e+00  -1.479485e+00   2.180730e-21   2.378840e+06   2.399565e-40   0.000000e+00   0.000000e+00
     1008000   1.007999e-05   1.003313e+00   1.439682e+01   4.478425e+01   8.961353e+04   2.378126e+05   2.365226e+06  -1.121437e+00   4.225845e-01   7.782331e-22   2.378840e+06   1.955596e-41   0.000000e+00   0.000000e+00
     1016000   1.015999e-05   1.010482e+00   1.441585e+01   4.497347e+01   8.961353e+04   2.378126e+05   2.365226e+06   2.466516e+00  -9.294428e-01  -1.735851e-21   2.378840e+06   9.467597e-41   0.000000e+00   0.000000e+00
     1024000   1.023999e-05   1.017651e+00   1.443487e+01   4.516268e+01   8.961353e+04   2.378126e+05   2.365226e+06   2.263438e+00  -8.529183e-01   4.123888e-22   2.378840e+06   7.972511e-41   0.000000e+00   0.000000e+00
     1032000   1.031999e-05   1.024820e+00   1.445390e+01   4.535190e+01   8.961353e+04   2.378126e+05   2.365226e+06   2.060361e+00  -7.763937e-01   2.645228e-22   2.378840e+06   6.605830e-41   0.000000e+00   0.000000e+00
     1040000   1.039999e-05   1.031989e+00   1.447292e+01   4.554112e+01   8.961353e+04   2.378126e+05   2.365226e+06   1.857283e+00  -6.998691e-01   1.171231e-22   2.378840e+06   5.367555e-41   0.000000e+00   0.000000e+00
     1048000   1.047999e-05   1.039158e+00   1.449195e+01   4.573034e+01   8.961353e+04   2.378126e+05   2.365226e+06   1.654205e+00  -6.233445e-01  -2.960536e-23   2.378840e+06   4.257685e-41   0.000000e+00   0.000000e+00
     1056000   1.055999e-05   1.046327e+00   1.451097e+01   4.591956e+01   8.961353e+04   2.378126e+05   2.365226e+06   4.543405e-01  -1.712065e-01   2.183066e-22   2.378840e+06   3.221828e-42   0.000000e+00   0.000000e+00
     1064000   1.063999e-05   1.053497e+00   1.453000e+01   4.610877e+01   8.961353e+04   2.378126e+05   2.365226e+06  -1.413323e+00   5.325741e-01   1.629728e-22   2.378840e+06   3.107095e-41   0.000000e+00   0.000000e+00
     1072000   1.071999e-05   1.060666e+00   1.454902e+01   4.629799e+01   8.961353e+04   2.378126e+05   2.365226e+06   1.978631e+00  -7.455958e-01   8.784711e-22   2.378840e+06   6.092934e-41   0.000000e+00   0.000000e+00
     1080000   1.079999e-05   1.067835e+00   1.456805e+01   4.648721e+01   8.961353e+04   2.378126e+05   2.365226e+06   1.604511e+00  -6.046186e-01   1.706120e-22   2.378840e+06   4.006376e-41   0.000000e+00   0.000000e+00
     1088000   1.087999e-05   1.075004e+00   1.458707e+01   4.667643e+01   8.961353e+04   2.378126e+05   2.365226e+06   1.230392e+00  -4.636414e-01   6.112380e-22   2.378840e+06   2.355610e-41   0.000000e+00   0.000000e+00
     1096000   1.095999e-05   1.082173e+00   1.460610e+01   4.686565e+01   8.961353e+04   2.378126e+05   2.365226e+06  -3.860965e+00   1.454905e+00  -5.242943e-22   2.378840e+06   2.318637e-40   0.000000e+00   0.000000e+00
     1104000   1.103999e-05   1.089342e+00   1.462512e+01   4.705486e+01   8.961353e+04   2.378126e+05   2.365226e+06  -2.825398e+00   1.064678e+00  -7.009701e-22   2.378840e+06   1.241247e-40   0.000000e+00   0.000000e+00
     1112000   1.111999e-05   1.096511e+00   1.464415e+01   4.724408e+01   8.961353e+04   2.378126e+05   2.365226e+06  -1.789831e+00   6.744517e-01  -3.026044e-22   2.378840e+06   4.977555e-41   0.000000e+00   0.000000e+00
     1120000   1.119999e-05   1.103680e+00   1.466317e+01   4.743330e+01   8.961353e+04   2.378126e+05   2.365226e+06   4.172880e-01  -1.572442e-01   8.045652e-23   2.378840e+06   2.718062e-42   0.000000e+00   0.000000e+00
     1128000   1.127999e-05   1.110849e+00   1.468220e+01   4.762252e+01   8.961353e+04   2.378126e+05   2.365226e+06   8.197099e-01  -3.088865e-01   6.526654e-22   2.378840e+06   1.047465e-41   0.000000e+00   0.000000e+00
     1136000   1.135999e-05   1.118018e+00   1.470122e+01   4.781174e+01   8.961353e+04   2.378126e+05   2.365226e+06   2.201202e-01  -8.294663e-02   1.628749e-22   2.378840e+06   7.520731e-43   0.000000e+00   0.000000e+00
     1144000   1.143999e-05   1.125187e+00   1.472025e+01   4.800095e+01   8.961353e+04   2.378126e+05   2.365226e+06   8.063061e-01  -3.038356e-01   3.060158e-22   2.378840e+06   1.011294e-41   0.000000e+00   0.000000e+00
     1152000   1.151999e-05   1.132356e+00   1.473927e+01   4.819017e+01   8.961353e+04   2.378126e+05   2.365226e+06  -3.332180e+00   1.255646e+00  -1.182911e-21   2.378840e+06   1.728152e-40   0.000000e+00   0.000000e+00
     1160000   1.159999e-05   1.139526e+00   1.475830e+01   4.837939e+01   8.961353e+04   2.378126e+05   2.365226e+06  -4.498591e+00   1.695178e+00  -2.471421e-21   2.378840e+06   3.149960e-40   0.000000e+00   0.000000e+00
     1168000   1.167999e-05   1.146695e+00   1.477732e+01   4.856861e+01   8.961353e+04   2.378126e+05   2.365226e+06  -5.665002e+00   2.134710e+00  -2.612459e-21   2.378840e+06   4.995374e-40   0.000000e+00   0.000000e+00
     1176000   1.175999e-05   1.153864e+00   1.479635e+01   4.875783e+01   8.961353e+04   2.378126e+05   2.365226e+06  -6.831412e+00   2.574241e+00  -4.583095e-22   2.378840e+06   7.264394e-40   0.000000e+00   0.000000e+00
     1184000   1.183999e-05   1.161033e+00   1.481537e+01   4.894704e+01   8.961353e+04   2.378126e+05   2.365226e+06   4.901954e+00  -1.847175e+00  -1.048377e-21   2.378840e+06   3.738336e-40   0.000000e+00   0.000000e+00
     1192000   1.191999e-05   1.168202e+00   1.483440e+01   4.913626e+01   8.961353e+04   2.378126e+05   2.365226e+06   2.939890e+00  -1.107822e+00  -2.024910e-21   2.378840e+06   1.344030e-40   0.000000e+00   0.000000e+00
     1200000   1.199999e-05   1.175371e+00   1.485342e+01   4.932548e+01   8.961353e+04   2.378126e+05   2.365226e+06   9.778263e-01  -3.684686e-01   7.339078e-22   2.378840e+06   1.483547e-41   0.000000e+00   0.000000e+00
     1208000   1.207999e-05   1.182540e+00   1.487245e+01   4.951470e+01   8.961354e+04   2.378125e+05   2.365226e+06   3.207271e+06  -7.557729e+06   6.383779e+05   2.378840e+06   9.214647e-28   0.000000e+00   0.000000e+00
     1216000   1.215999e-05   1.189709e+00   1.489147e+01   4.970392e+01   8.961461e+04   2.378100e+05   2.365226e+06   2.287184e+08  -5.408716e+08   4.571578e+07   2.378840e+06   4.728389e-24   0.000000e+00   0.000000e+00
     1224000   1.223999e-05   1.196879e+00   1.491049e+01   4.989314e+01   8.962858e+04   2.377770e+05   2.365229e+06  -8.581849e+06   2.170215e+07  -1.856519e+06   2.378840e+06   7.393220e-27   0.000000e+00   0.000000e+00
