     timestep     time              x             y              z              vx             vy             vz             ax             ay             az         v_magnitude      ELoss        Electronic      Nuclear
           0   0.000000e+00   1.000000e-01   1.715703e+01   8.472191e+00   1.578157e+06   1.301937e+06  -5.345183e+05   0.000000e+00   0.000000e+00   0.000000e+00   2.114552e+06   0.000000e+00   0.000000e+00   0.000000e+00
        8000   7.999000e-08   2.262526e-01   1.726119e+01   8.429430e+00   1.578157e+06   1.301937e+06  -5.345183e+05   0.000000e+00   0.000000e+00   0.000000e+00   2.114552e+06   0.000000e+00   0.000000e+00   0.000000e+00
       16000   1.599900e-07   3.525052e-01   1.736534e+01   8.386668e+00   1.578157e+06   1.301937e+06  -5.345183e+05   0.000000e+00   0.000000e+00   0.000000e+00   2.114552e+06   0.000000e+00   0.000000e+00   0.000000e+00
       24000   2.399900e-07   4.787578e-01   1.746950e+01   8.343907e+00   1.578157e+06   1.301937e+06  -5.345183e+05   0.000000e+00   0.000000e+00   0.000000e+00   2.114552e+06   0.000000e+00   0.000000e+00   0.000000e+00
       32000   3.199900e-07   6.050104e-01   1.757365e+01   8.301145e+00   1.578157e+06   1.301937e+06  -5.345183e+05   0.000000e+00   0.000000e+00   0.000000e+00   2.114552e+06   0.000000e+00   0.000000e+00   0.000000e+00
       40000   3.999900e-07   7.312629e-01   1.767781e+01   8.258384e+00   1.578157e+06   1.301937e+06  -5.345183e+05   0.000000e+00   0.000000e+00   0.000000e+00   2.114552e+06   0.000000e+00   0.000000e+00   0.000000e+00
       48000   4.799900e-07   8.575155e-01   1.778196e+01   8.215622e+00   1.578157e+06   1.301937e+06  -5.345183e+05   0.000000e+00   0.000000e+00   0.000000e+00   2.114552e+06   0.000000e+00   0.000000e+00   0.000000e+00
       56000   5.599900e-07   9.837681e-01   1.788612e+01   8.172861e+00   1.578157e+06   1.301937e+06  -5.345183e+05   0.000000e+00   0.000000e+00   0.000000e+00   2.114552e+06   0.000000e+00   0.000000e+00   0.000000e+00
       64000   6.399900e-07   1.110021e+00   1.799027e+01   8.130099e+00   1.578157e+06   1.301937e+06  -5.345183e+05   0.000000e+00   0.000000e+00   0.000000e+00   2.114552e+06   0.000000e+00   0.000000e+00   0.000000e+00
       72000   7.199900e-07   1.236273e+00   1.809443e+01   8.087338e+00   1.578157e+06   1.301937e+06  -5.345183e+05   0.000000e+00   0.000000e+00   0.000000e+00   2.114552e+06   0.000000e+00   0.000000e+00   0.000000e+00
       80000   7.999900e-07   1.362526e+00   1.819858e+01   8.044576e+00   1.578157e+06   1.301937e+06  -5.345183e+05   0.000000e+00   0.000000e+00   0.000000e+00   2.114552e+06   0.000000e+00   0.000000e+00   0.000000e+00
       88000   8.799900e-07   1.488778e+00   1.830274e+01   8.001815e+00   1.578157e+06   1.301937e+06  -5.345183e+05   0.000000e+00   0.000000e+00   0.000000e+00   2.114552e+06   0.000000e+00   0.000000e+00   0.000000e+00
       96000   9.599900e-07   1.615031e+00   1.840689e+01   7.959053e+00   1.578157e+06   1.301937e+06  -5.345183e+05   0.000000e+00   0.000000e+00   0.000000e+00   2.114552e+06   0.000000e+00   0.000000e+00   0.000000e+00
      104000   1.039990e-06   1.741284e+00   1.851105e+01   7.916292e+00   1.578157e+06   1.301937e+06  -5.345183e+05   0.000000e+00   0.000000e+00   0.000000e+00   2.114552e+06   0.000000e+00   0.000000e+00   0.000000e+00
      112000   1.119990e-06   1.867536e+00   1.861520e+01   7.873530e+00   1.578157e+06   1.301937e+06  -5.345183e+05   0.000000e+00   0.000000e+00   0.000000e+00   2.114552e+06   0.000000e+00   0.000000e+00   0.000000e+00
      120000   1.199990e-06   1.993789e+00   1.871936e+01   7.830769e+00   1.578157e+06   1.301937e+06  -5.345183e+05   0.000000e+00   0.000000e+00   0.000000e+00   2.114552e+06   0.000000e+00   0.000000e+00   0.000000e+00
      128000   1.279990e-06   2.120041e+00   1.882351e+01   7.788008e+00   1.578157e+06   1.301937e+06  -5.345183e+05   0.000000e+00   0.000000e+00   0.000000e+00   2.114552e+06   0.000000e+00   0.000000e+00   0.000000e+00
      136000   1.359990e-06   2.246294e+00   1.892767e+01   7.745246e+00   1.578157e+06   1.301937e+06  -5.345183e+05   0.000000e+00   0.000000e+00   0.000000e+00   2.114552e+06   0.000000e+00   0.000000e+00   0.000000e+00
      144000   1.439990e-06   2.372547e+00   1.903182e+01   7.702485e+00   1.578157e+06   1.301937e+06  -5.345183e+05   0.000000e+00   0.000000e+00   0.000000e+00   2.114552e+06   0.000000e+00   0.000000e+00   0.000000e+00
      152000   1.519990e-06   2.498799e+00   1.913598e+01   7.659723e+00   1.578157e+06   1.301937e+06  -5.345183e+05   0.000000e+00   0.000000e+00   0.000000e+00   2.114552e+06   0.000000e+00   0.000000e+00   0.000000e+00
      160000   1.599990e-06   2.625052e+00   1.924013e+01   7.616962e+00   1.578157e+06   1.301937e+06  -5.345183e+05   0.000000e+00   0.000000e+00   0.000000e+00   2.114552e+06   0.000000e+00   0.000000e+00   0.000000e+00
      168000   1.679990e-06   2.751304e+00   1.934429e+01   7.574200e+00   1.578157e+06   1.301937e+06  -5.345183e+05   0.000000e+00   0.000000e+00   0.000000e+00   2.114552e+06   0.000000e+00   0.000000e+00   0.000000e+00
      176000   1.759990e-06   2.877557e+00   1.944844e+01   7.531439e+00   1.578157e+06   1.301937e+06  -5.345183e+05   0.000000e+00   0.000000e+00   0.000000e+00   2.114552e+06   0.000000e+00   0.000000e+00   0.000000e+00
      184000   1.839990e-06   3.003810e+00   1.955260e+01   7.488677e+00   1.578157e+06   1.301937e+06  -5.345183e+05   0.000000e+00   0.000000e+00   0.000000e+00   2.114552e+06   0.000000e+00   0.000000e+00   0.000000e+00
      192000   1.919990e-06   3.130062e+00   1.965675e+01   7.445916e+00   1.578157e+06   1.301937e+06  -5.345183e+05   0.000000e+00   0.000000e+00   0.000000e+00   2.114552e+06   0.000000e+00   0.000000e+00   0.000000e+00
      200000   1.999990e-06   3.256315e+00   1.976091e+01   7.403154e+00   1.578157e+06   1.301937e+06  -5.345183e+05   0.000000e+00   0.000000e+00   0.000000e+00   2.114552e+06   0.000000e+00   0.000000e+00   0.000000e+00
      208000   2.079990e-06   3.382567e+00   1.986506e+01   7.360393e+00   1.578157e+06   1.301937e+06  -5.345183e+05   0.000000e+00   0.000000e+00   0.000000e+00   2.114552e+06   0.000000e+00   0.000000e+00   0.000000e+00
      216000   2.159990e-06   3.508820e+00   1.996922e+01   7.317631e+00   1.578157e+06   1.301937e+06  -5.345183e+05   0.000000e+00   0.000000e+00   0.000000e+00   2.114552e+06   0.000000e+00   0.000000e+00   0.000000e+00
      224000   2.239990e-06   3.635073e+00   2.007337e+01   7.274870e+00   1.578157e+06   1.301937e+06  -5.345183e+05   0.000000e+00   0.000000e+00   0.000000e+00   2.114552e+06   0.000000e+00   0.000000e+00   0.000000e+00
      232000   2.319990e-06   3.761325e+00   2.017753e+01   7.232109e+00   1.578157e+06   1.301937e+06  -5.345183e+05   0.000000e+00   0.000000e+00   0.000000e+00   2.114552e+06   0.000000e+00   0.000000e+00   0.000000e+00
      240000   2.399990e-06   3.887578e+00   2.028168e+01   7.189347e+00   1.578157e+06   1.301937e+06  -5.345183e+05   0.000000e+00   0.000000e+00   0.000000e+00   2.114552e+06   0.000000e+00   0.000000e+00   0.000000e+00
      248000   2.479990e-06   4.013830e+00   2.038584e+01   7.146586e+00   1.578157e+06   1.301937e+06  -5.345183e+05   0.000000e+00   0.000000e+00   0.000000e+00   2.114552e+06   0.000000e+00   0.000000e+00   0.000000e+00
      256000   2.559990e-06   4.140083e+00   2.048999e+01   7.103824e+00   1.578157e+06   1.301937e+06  -5.345183e+05   0.000000e+00   0.000000e+00   0.000000e+00   2.114552e+06   0.000000e+00   0.000000e+00   0.000000e+00
      264000   2.639990e-06   4.266335e+00   2.059415e+01   7.061063e+00   1.578157e+06   1.301937e+06  -5.345183e+05   0.000000e+00   0.000000e+00   0.000000e+00   2.114552e+06   0.000000e+00   0.000000e+00   0.000000e+00
      272000   2.719990e-06   4.392588e+00   2.069830e+01   7.018301e+00   1.578157e+06   1.301937e+06  -5.345183e+05   0.000000e+00   0.000000e+00   0.000000e+00   2.114552e+06   0.000000e+00   0.000000e+00   0.000000e+00
      280000   2.799990e-06   4.518841e+00   2.080246e+01   6.975540e+00   1.578157e+06   1.301937e+06  -5.345183e+05   0.000000e+00   0.000000e+00   0.000000e+00   2.114552e+06   0.000000e+00   0.000000e+00   0.000000e+00
      288000   2.879990e-06   4.645093e+00   2.090661e+01   6.932778e+00   1.578157e+06   1.301937e+06  -5.345183e+05   0.000000e+00   0.000000e+00   0.000000e+00   2.114552e+06   0.000000e+00   0.000000e+00   0.000000e+00
      296000   2.959990e-06   4.771346e+00   2.101077e+01   6.890017e+00   1.578157e+06   1.301937e+06  -5.345183e+05   0.000000e+00   0.000000e+00   0.000000e+00   2.114552e+06   0.000000e+00   0.000000e+00   0.000000e+00
      304000   3.039990e-06   4.897598e+00   2.111492e+01   6.847255e+00   1.578157e+06   1.301937e+06  -5.345183e+05   0.000000e+00   0.000000e+00   0.000000e+00   2.114552e+06   0.000000e+00   0.000000e+00   0.000000e+00
      312000   3.119990e-06   5.023851e+00   2.121908e+01   6.804494e+00   1.578157e+06   1.301937e+06  -5.345183e+05   0.000000e+00   0.000000e+00   0.000000e+00   2.114552e+06   0.000000e+00   0.000000e+00   0.000000e+00
      320000   3.199990e-06   5.150104e+00   2.132323e+01   6.761732e+00   1.578157e+06   1.301937e+06  -5.345183e+05   0.000000e+00   0.000000e+00   0.000000e+00   2.114552e+06   0.000000e+00   0.000000e+00   0.000000e+00
      328000   3.279990e-06   5.276356e+00   2.142739e+01   6.718971e+00   1.578157e+06   1.301937e+06  -5.345183e+05   0.000000e+00   0.000000e+00   0.000000e+00   2.114552e+06   0.000000e+00   0.000000e+00   0.000000e+00
      336000   3.359990e-06   5.402609e+00   2.153154e+01   6.676209e+00   1.578157e+06   1.301937e+06  -5.345183e+05   0.000000e+00   0.000000e+00   0.000000e+00   2.114552e+06   0.000000e+00   0.000000e+00   0.000000e+00
      344000   3.439990e-06   5.528861e+00   2.163569e+01   6.633448e+00   1.578157e+06   1.301937e+06  -5.345183e+05   0.000000e+00   0.000000e+00   0.000000e+00   2.114552e+06   0.000000e+00   0.000000e+00   0.000000e+00
      352000   3.519990e-06   5.655114e+00   2.173985e+01   6.590687e+00   1.578157e+06   1.301937e+06  -5.345183e+05   0.000000e+00   0.000000e+00   0.000000e+00   2.114552e+06   0.000000e+00   0.000000e+00   0.000000e+00
      360000   3.599990e-06   5.781367e+00   2.184400e+01   6.547925e+00   1.578157e+06   1.301937e+06  -5.345183e+05   0.000000e+00   0.000000e+00   0.000000e+00   2.114552e+06   0.000000e+00   0.000000e+00   0.000000e+00
      368000   3.679990e-06   5.907619e+00   2.194816e+01   6.505164e+00   1.578157e+06   1.301937e+06  -5.345183e+05   0.000000e+00   0.000000e+00   0.000000e+00   2.114552e+06   0.000000e+00   0.000000e+00   0.000000e+00
      376000   3.759990e-06   6.033872e+00   2.205231e+01   6.462402e+00   1.578157e+06   1.301937e+06  -5.345183e+05   0.000000e+00   0.000000e+00   0.000000e+00   2.114552e+06   0.000000e+00   0.000000e+00   0.000000e+00
      384000   3.839990e-06   6.160124e+00   2.215647e+01   6.419641e+00   1.578157e+06   1.301937e+06  -5.345183e+05   0.000000e+00   0.000000e+00   0.000000e+00   2.114552e+06   0.000000e+00   0.000000e+00   0.000000e+00
      392000   3.919990e-06   6.286377e+00   2.226062e+01   6.376879e+00   1.578157e+06   1.301937e+06  -5.345183e+05   0.000000e+00   0.000000e+00   0.000000e+00   2.114552e+06   0.000000e+00   0.000000e+00   0.000000e+00
      400000   3.999990e-06   6.412629e+00   2.236478e+01   6.334118e+00   1.578157e+06   1.301937e+06  -5.345183e+05   0.000000e+00   0.000000e+00   0.000000e+00   2.114552e+06   0.000000e+00   0.000000e+00   0.000000e+00
      408000   4.079990e-06   6.538882e+00   2.246893e+01   6.291356e+00   1.578157e+06   1.301937e+06  -5.345183e+05   0.000000e+00   0.000000e+00   0.000000e+00   2.114552e+06   0.000000e+00   0.000000e+00   0.000000e+00
      416000   4.159990e-06   6.665135e+00   2.257309e+01   6.248595e+00   1.578157e+06   1.301937e+06  -5.345183e+05   0.000000e+00   0.000000e+00   0.000000e+00   2.114552e+06   0.000000e+00   0.000000e+00   0.000000e+00
      424000   4.239990e-06   6.791387e+00   2.267724e+01   6.205833e+00   1.578157e+06   1.301937e+06  -5.345183e+05   0.000000e+00   0.000000e+00   0.000000e+00   2.114552e+06   0.000000e+00   0.000000e+00   0.000000e+00
      432000   4.319990e-06   6.917640e+00   2.278140e+01   6.163072e+00   1.578157e+06   1.301937e+06  -5.345183e+05   0.000000e+00   0.000000e+00   0.000000e+00   2.114552e+06   0.000000e+00   0.000000e+00   0.000000e+00
      440000   4.399990e-06   7.043892e+00   2.288555e+01   6.120310e+00   1.578157e+06   1.301937e+06  -5.345183e+05   0.000000e+00   0.000000e+00   0.000000e+00   2.114552e+06   0.000000e+00   0.000000e+00   0.000000e+00
      448000   4.479990e-06   7.170145e+00   2.298971e+01   6.077549e+00   1.578157e+06   1.301937e+06  -5.345183e+05   0.000000e+00   0.000000e+00   0.000000e+00   2.114552e+06   0.000000e+00   0.000000e+00   0.000000e+00
      456000   4.559990e-06   7.296398e+00   2.309386e+01   6.034788e+00   1.578157e+06   1.301937e+06  -5.345183e+05   0.000000e+00   0.000000e+00   0.000000e+00   2.114552e+06   0.000000e+00   0.000000e+00   0.000000e+00
      464000   4.639990e-06   7.422650e+00   2.319802e+01   5.992026e+00   1.578157e+06   1.301937e+06  -5.345183e+05   0.000000e+00   0.000000e+00   0.000000e+00   2.114552e+06   0.000000e+00   0.000000e+00   0.000000e+00
      472000   4.719990e-06   7.548903e+00   2.330217e+01   5.949265e+00   1.578157e+06   1.301937e+06  -5.345183e+05   0.000000e+00   0.000000e+00   0.000000e+00   2.114552e+06   0.000000e+00   0.000000e+00   0.000000e+00
      480000   4.799990e-06   7.675155e+00   2.340633e+01   5.906503e+00   1.578157e+06   1.301937e+06  -5.345183e+05   0.000000e+00   0.000000e+00   0.000000e+00   2.114552e+06   0.000000e+00   0.000000e+00   0.000000e+00
      488000   4.879990e-06   7.801408e+00   2.351048e+01   5.863742e+00   1.578157e+06   1.301937e+06  -5.345183e+05   0.000000e+00   0.000000e+00   0.000000e+00   2.114552e+06   0.000000e+00   0.000000e+00   0.000000e+00
      496000   4.959990e-06   7.927661e+00   2.361464e+01   5.820980e+00   1.578157e+06   1.301937e+06  -5.345183e+05   0.000000e+00   0.000000e+00   0.000000e+00   2.114552e+06   0.000000e+00   0.000000e+00   0.000000e+00
      504000   5.039990e-06   8.053913e+00   2.371879e+01   5.778219e+00   1.578157e+06   1.301937e+06  -5.345183e+05   0.000000e+00   0.000000e+00   0.000000e+00   2.114552e+06   0.000000e+00   0.000000e+00   0.000000e+00
      512000   5.119990e-06   8.180166e+00   2.382295e+01   5.735457e+00   1.578157e+06   1.301937e+06  -5.345183e+05   0.000000e+00   0.000000e+00   0.000000e+00   2.114552e+06   0.000000e+00   0.000000e+00   0.000000e+00
      520000   5.199990e-06   8.306418e+00   2.392710e+01   5.692696e+00   1.578157e+06   1.301937e+06  -5.345183e+05   0.000000e+00   0.000000e+00   0.000000e+00   2.114552e+06   0.000000e+00   0.000000e+00   0.000000e+00
      528000   5.279990e-06   8.432671e+00   2.403126e+01   5.649934e+00   1.578157e+06   1.301937e+06  -5.345183e+05   0.000000e+00   0.000000e+00   0.000000e+00   2.114552e+06   0.000000e+00   0.000000e+00   0.000000e+00
      536000   5.359990e-06   8.558924e+00   2.413541e+01   5.607173e+00   1.578157e+06   1.301937e+06  -5.345183e+05   0.000000e+00   0.000000e+00   0.000000e+00   2.114552e+06   0.000000e+00   0.000000e+00   0.000000e+00
      544000   5.439990e-06   8.685176e+00   2.423957e+01   5.564411e+00   1.578157e+06   1.301937e+06  -5.345183e+05   0.000000e+00   0.000000e+00   0.000000e+00   2.114552e+06   0.000000e+00   0.000000e+00   0.000000e+00
      552000   5.519990e-06   8.811429e+00   2.434372e+01   5.521650e+00   1.578157e+06   1.301937e+06  -5.345183e+05   0.000000e+00   0.000000e+00   0.000000e+00   2.114552e+06   0.000000e+00   0.000000e+00   0.000000e+00
      560000   5.599990e-06   8.937681e+00   2.444788e+01   5.478888e+00   1.578157e+06   1.301937e+06  -5.345183e+05   0.000000e+00   0.000000e+00   0.000000e+00   2.114552e+06   0.000000e+00   0.000000e+00   0.000000e+00
      568000   5.679990e-06   9.063934e+00   2.455203e+01   5.436127e+00   1.578157e+06   1.301937e+06  -5.345183e+05   0.000000e+00   0.000000e+00   0.000000e+00   2.114552e+06   0.000000e+00   0.000000e+00   0.000000e+00
      576000   5.759990e-06   9.190186e+00   2.465619e+01   5.393366e+00   1.578157e+06   1.301937e+06  -5.345183e+05   0.000000e+00   0.000000e+00   0.000000e+00   2.114552e+06   0.000000e+00   0.000000e+00   0.000000e+00
      584000   5.839990e-06   9.316439e+00   2.476034e+01   5.350604e+00   1.578157e+06   1.301937e+06  -5.345183e+05   0.000000e+00   0.000000e+00   0.000000e+00   2.114552e+06   0.000000e+00   0.000000e+00   0.000000e+00
      592000   5.919990e-06   9.442692e+00   2.486450e+01   5.307843e+00   1.578157e+06   1.301937e+06  -5.345183e+05   0.000000e+00   0.000000e+00   0.000000e+00   2.114552e+06   0.000000e+00   0.000000e+00   0.000000e+00
      600000   5.999990e-06   9.568944e+00   2.496865e+01   5.265081e+00   1.578157e+06   1.301937e+06  -5.345183e+05   0.000000e+00   0.000000e+00   0.000000e+00   2.114552e+06   0.000000e+00   0.000000e+00   0.000000e+00
      608000   6.079990e-06   9.695197e+00   2.507281e+01   5.222320e+00   1.578157e+06   1.301937e+06  -5.345183e+05   0.000000e+00   0.000000e+00   0.000000e+00   2.114552e+06   0.000000e+00   0.000000e+00   0.000000e+00
      616000   6.159990e-06   9.821449e+00   2.517696e+01   5.179558e+00   1.578157e+06   1.301937e+06  -5.345183e+05   0.000000e+00   0.000000e+00   0.000000e+00   2.114552e+06   0.000000e+00   0.000000e+00   0.000000e+00
      624000   6.239990e-06   9.947702e+00   2.528112e+01   5.136797e+00   1.578157e+06   1.301937e+06  -5.345183e+05   0.000000e+00   0.000000e+00   0.000000e+00   2.114552e+06   0.000000e+00   0.000000e+00   0.000000e+00
      632000   6.319990e-06   1.007395e+01   2.538527e+01   5.094035e+00   1.578157e+06   1.301937e+06  -5.345183e+05   0.000000e+00   0.000000e+00   0.000000e+00   2.114552e+06   0.000000e+00   0.000000e+00   0.000000e+00
      640000   6.399990e-06   1.020021e+01   2.548943e+01   5.051274e+00   1.578157e+06   1.301937e+06  -5.345183e+05   0.000000e+00   0.000000e+00   0.000000e+00   2.114552e+06   0.000000e+00   0.000000e+00   0.000000e+00
      648000   6.479990e-06   1.032646e+01   2.559358e+01   5.008512e+00   1.578157e+06   1.301937e+06  -5.345183e+05   0.000000e+00   0.000000e+00   0.000000e+00   2.114552e+06   0.000000e+00   0.000000e+00   0.000000e+00
      656000   6.559990e-06   1.045271e+01   2.569774e+01   4.965751e+00   1.578157e+06   1.301937e+06  -5.345183e+05   0.000000e+00   0.000000e+00   0.000000e+00   2.114552e+06   0.000000e+00   0.000000e+00   0.000000e+00
      664000   6.639990e-06   1.057896e+01   2.580189e+01   4.922989e+00   1.578157e+06   1.301937e+06  -5.345183e+05   0.000000e+00   0.000000e+00   0.000000e+00   2.114552e+06   0.000000e+00   0.000000e+00   0.000000e+00
      672000   6.719990e-06   1.070522e+01   2.590605e+01   4.880228e+00   1.578157e+06   1.301937e+06  -5.345183e+05   0.000000e+00   0.000000e+00   0.000000e+00   2.114552e+06   0.000000e+00   0.000000e+00   0.000000e+00
      680000   6.799990e-06   1.083147e+01   2.601020e+01   4.837466e+00   1.578157e+06   1.301937e+06  -5.345183e+05   0.000000e+00   0.000000e+00   0.000000e+00   2.114552e+06   0.000000e+00   0.000000e+00   0.000000e+00
      688000   6.879990e-06   1.095772e+01   2.611436e+01   4.794705e+00   1.578157e+06   1.301937e+06  -5.345183e+05   0.000000e+00   0.000000e+00   0.000000e+00   2.114552e+06   0.000000e+00   0.000000e+00   0.000000e+00
      696000   6.959990e-06   1.108398e+01   2.621851e+01   4.751944e+00   1.578157e+06   1.301937e+06  -5.345183e+05   0.000000e+00   0.000000e+00   0.000000e+00   2.114552e+06   0.000000e+00   0.000000e+00   0.000000e+00
      704000   7.039990e-06   1.121023e+01   2.632267e+01   4.709182e+00   1.578157e+06   1.301937e+06  -5.345183e+05   0.000000e+00   0.000000e+00   0.000000e+00   2.114552e+06   0.000000e+00   0.000000e+00   0.000000e+00
      712000   7.119990e-06   1.133648e+01   2.642682e+01   4.666421e+00   1.578157e+06   1.301937e+06  -5.345183e+05   0.000000e+00   0.000000e+00   0.000000e+00   2.114552e+06   0.000000e+00   0.000000e+00   0.000000e+00
      720000   7.199990e-06   1.146273e+01   2.653098e+01   4.623659e+00   1.578157e+06   1.301937e+06  -5.345183e+05   0.000000e+00   0.000000e+00   0.000000e+00   2.114552e+06   0.000000e+00   0.000000e+00   0.000000e+00
      728000   7.279990e-06   1.158899e+01   2.663513e+01   4.580898e+00   1.578157e+06   1.301937e+06  -5.345183e+05   0.000000e+00   0.000000e+00   0.000000e+00   2.114552e+06   0.000000e+00   0.000000e+00   0.000000e+00
      736000   7.359990e-06   1.171524e+01   2.673929e+01   4.538136e+00   1.578157e+06   1.301937e+06  -5.345183e+05   0.000000e+00   0.000000e+00   0.000000e+00   2.114552e+06   0.000000e+00   0.000000e+00   0.000000e+00
      744000   7.439990e-06   1.184149e+01   2.684344e+01   4.495375e+00   1.578157e+06   1.301937e+06  -5.345183e+05   0.000000e+00   0.000000e+00   0.000000e+00   2.114552e+06   0.000000e+00   0.000000e+00   0.000000e+00
      752000   7.519990e-06   1.196774e+01   2.694760e+01   4.452613e+00   1.578157e+06   1.301937e+06  -5.345183e+05   0.000000e+00   0.000000e+00   0.000000e+00   2.114552e+06   0.000000e+00   0.000000e+00   0.000000e+00
      760000   7.599990e-06   1.209400e+01   2.705175e+01   4.409852e+00   1.578157e+06   1.301937e+06  -5.345183e+05   0.000000e+00   0.000000e+00   0.000000e+00   2.114552e+06   0.000000e+00   0.000000e+00   0.000000e+00
      768000   7.679990e-06   1.222025e+01   2.715591e+01   4.367090e+00   1.578157e+06   1.301937e+06  -5.345183e+05   0.000000e+00   0.000000e+00   0.000000e+00   2.114552e+06   0.000000e+00   0.000000e+00   0.000000e+00
      776000   7.759990e-06   1.234650e+01   2.726006e+01   4.324329e+00   1.578157e+06   1.301937e+06  -5.345183e+05   0.000000e+00   0.000000e+00   0.000000e+00   2.114552e+06   0.000000e+00   0.000000e+00   0.000000e+00
      784000   7.839990e-06   1.247275e+01   2.736422e+01   4.281567e+00   1.578157e+06   1.301937e+06  -5.345183e+05   0.000000e+00   0.000000e+00   0.000000e+00   2.114552e+06   0.000000e+00   0.000000e+00   0.000000e+00
      792000   7.919990e-06   1.259901e+01   2.746837e+01   4.238806e+00   1.578157e+06   1.301937e+06  -5.345183e+05   0.000000e+00   0.000000e+00   0.000000e+00   2.114552e+06   0.000000e+00   0.000000e+00   0.000000e+00
      800000   7.999990e-06   1.272526e+01   2.757253e+01   4.196045e+00   1.578157e+06   1.301937e+06  -5.345183e+05   0.000000e+00   0.000000e+00   0.000000e+00   2.114552e+06   0.000000e+00   0.000000e+00   0.000000e+00
      808000   8.079990e-06   1.285151e+01   2.767668e+01   4.153283e+00   1.578157e+06   1.301937e+06  -5.345183e+05   0.000000e+00   0.000000e+00   0.000000e+00   2.114552e+06   0.000000e+00   0.000000e+00   0.000000e+00
      816000   8.159990e-06   1.297776e+01   2.778084e+01   4.110522e+00   1.578157e+06   1.301937e+06  -5.345183e+05   0.000000e+00   0.000000e+00   0.000000e+00   2.114552e+06   0.000000e+00   0.000000e+00   0.000000e+00
      824000   8.239990e-06   1.310402e+01   2.788499e+01   4.067760e+00   1.578157e+06   1.301937e+06  -5.345183e+05   0.000000e+00   0.000000e+00   0.000000e+00   2.114552e+06   0.000000e+00   0.000000e+00   0.000000e+00
      832000   8.319990e-06   1.323027e+01   2.798915e+01   4.024999e+00   1.578157e+06   1.301937e+06  -5.345183e+05   0.000000e+00   0.000000e+00   0.000000e+00   2.114552e+06   0.000000e+00   0.000000e+00   0.000000e+00
      840000   8.399990e-06   1.335652e+01   2.809330e+01   3.982237e+00   1.578157e+06   1.301937e+06  -5.345183e+05   0.000000e+00   0.000000e+00   0.000000e+00   2.114552e+06   0.000000e+00   0.000000e+00   0.000000e+00
      848000   8.479990e-06   1.348277e+01   2.819746e+01   3.939476e+00   1.578157e+06   1.301937e+06  -5.345183e+05   0.000000e+00   0.000000e+00   0.000000e+00   2.114552e+06   0.000000e+00   0.000000e+00   0.000000e+00
      856000   8.559990e-06   1.360903e+01   2.830161e+01   3.896714e+00   1.578157e+06   1.301937e+06  -5.345183e+05   0.000000e+00   0.000000e+00   0.000000e+00   2.114552e+06   0.000000e+00   0.000000e+00   0.000000e+00
      864000   8.639990e-06   1.373528e+01   2.840577e+01   3.853953e+00   1.578157e+06   1.301937e+06  -5.345183e+05   0.000000e+00   0.000000e+00   0.000000e+00   2.114552e+06   0.000000e+00   0.000000e+00   0.000000e+00
      872000   8.719990e-06   1.386153e+01   2.850992e+01   3.811191e+00   1.578157e+06   1.301937e+06  -5.345183e+05   0.000000e+00   0.000000e+00   0.000000e+00   2.114552e+06   0.000000e+00   0.000000e+00   0.000000e+00
      880000   8.799990e-06   1.398778e+01   2.861408e+01   3.768430e+00   1.578157e+06   1.301937e+06  -5.345183e+05   0.000000e+00   0.000000e+00   0.000000e+00   2.114552e+06   0.000000e+00   0.000000e+00   0.000000e+00
      888000   8.879990e-06   1.411404e+01   2.871823e+01   3.725668e+00   1.578157e+06   1.301937e+06  -5.345183e+05   0.000000e+00   0.000000e+00   0.000000e+00   2.114552e+06   0.000000e+00   0.000000e+00   0.000000e+00
      896000   8.959990e-06   1.424029e+01   2.882239e+01   3.682907e+00   1.578157e+06   1.301937e+06  -5.345183e+05   0.000000e+00   0.000000e+00   0.000000e+00   2.114552e+06   0.000000e+00   0.000000e+00   0.000000e+00
      904000   9.039990e-06   1.436654e+01   2.892654e+01   3.640145e+00   1.578157e+06   1.301937e+06  -5.345183e+05   0.000000e+00   0.000000e+00   0.000000e+00   2.114552e+06   0.000000e+00   0.000000e+00   0.000000e+00
      912000   9.119990e-06   1.449280e+01   2.903070e+01   3.597384e+00   1.578157e+06   1.301937e+06  -5.345183e+05   0.000000e+00   0.000000e+00   0.000000e+00   2.114552e+06   0.000000e+00   0.000000e+00   0.000000e+00
      920000   9.199990e-06   1.461905e+01   2.913485e+01   3.554623e+00   1.578157e+06   1.301937e+06  -5.345183e+05   0.000000e+00   0.000000e+00   0.000000e+00   2.114552e+06   0.000000e+00   0.000000e+00   0.000000e+00
      928000   9.279990e-06   1.474530e+01   2.923900e+01   3.511861e+00   1.578157e+06   1.301937e+06  -5.345183e+05   0.000000e+00   0.000000e+00   0.000000e+00   2.114552e+06   0.000000e+00   0.000000e+00   0.000000e+00
      936000   9.359990e-06   1.487155e+01   2.934316e+01   3.469100e+00   1.578157e+06   1.301937e+06  -5.345183e+05   0.000000e+00   0.000000e+00   0.000000e+00   2.114552e+06   0.000000e+00   0.000000e+00   0.000000e+00
      944000   9.439990e-06   1.499781e+01   2.944731e+01   3.426338e+00   1.578157e+06   1.301937e+06  -5.345183e+05   0.000000e+00   0.000000e+00   0.000000e+00   2.114552e+06   0.000000e+00   0.000000e+00   0.000000e+00
      952000   9.519990e-06   1.512406e+01   2.955147e+01   3.383577e+00   1.578157e+06   1.301937e+06  -5.345183e+05   0.000000e+00   0.000000e+00   0.000000e+00   2.114552e+06   0.000000e+00   0.000000e+00   0.000000e+00
      960000   9.599990e-06   1.525031e+01   2.965562e+01   3.340815e+00   1.578157e+06   1.301937e+06  -5.345183e+05   0.000000e+00   0.000000e+00   0.000000e+00   2.114552e+06   0.000000e+00   0.000000e+00   0.000000e+00
      968000   9.679990e-06   1.537656e+01   2.975978e+01   3.298054e+00   1.578157e+06   1.301937e+06  -5.345183e+05   0.000000e+00   0.000000e+00   0.000000e+00   2.114552e+06   0.000000e+00   0.000000e+00   0.000000e+00
      976000   9.759990e-06   1.550282e+01   2.986393e+01   3.255292e+00   1.578157e+06   1.301937e+06  -5.345183e+05   0.000000e+00   0.000000e+00   0.000000e+00   2.114552e+06   0.000000e+00   0.000000e+00   0.000000e+00
      984000   9.839990e-06   1.562907e+01   2.996809e+01   3.212531e+00   1.578157e+06   1.301937e+06  -5.345183e+05   0.000000e+00   0.000000e+00   0.000000e+00   2.114552e+06   0.000000e+00   0.000000e+00   0.000000e+00
      992000   9.919990e-06   1.575532e+01   3.007224e+01   3.169769e+00   1.578157e+06   1.301937e+06  -5.345183e+05   0.000000e+00   0.000000e+00   0.000000e+00   2.114552e+06   0.000000e+00   0.000000e+00   0.000000e+00
     1000000   9.999990e-06   1.588157e+01   3.017640e+01   3.127008e+00   1.578157e+06   1.301937e+06  -5.345183e+05   0.000000e+00   0.000000e+00   0.000000e+00   2.114552e+06   0.000000e+00   0.000000e+00   0.000000e+00
     1008000   1.007999e-05   1.600783e+01   3.028055e+01   3.084246e+00   1.578157e+06   1.301937e+06  -5.345183e+05   0.000000e+00   0.000000e+00   0.000000e+00   2.114552e+06   0.000000e+00   0.000000e+00   0.000000e+00
     1016000   1.015999e-05   1.613408e+01   3.038471e+01   3.041485e+00   1.578157e+06   1.301937e+06  -5.345183e+05   0.000000e+00   0.000000e+00   0.000000e+00   2.114552e+06   0.000000e+00   0.000000e+00   0.000000e+00
     1024000   1.023999e-05   1.626033e+01   3.048886e+01   2.998724e+00   1.578157e+06   1.301937e+06  -5.345183e+05   0.000000e+00   0.000000e+00   0.000000e+00   2.114552e+06   0.000000e+00   0.000000e+00   0.000000e+00
     1032000   1.031999e-05   1.638658e+01   3.059302e+01   2.955962e+00   1.578157e+06   1.301937e+06  -5.345183e+05   0.000000e+00   0.000000e+00   0.000000e+00   2.114552e+06   0.000000e+00   0.000000e+00   0.000000e+00
     1040000   1.039999e-05   1.651284e+01   3.069717e+01   2.913201e+00   1.578157e+06   1.301937e+06  -5.345183e+05   0.000000e+00   0.000000e+00   0.000000e+00   2.114552e+06   0.000000e+00   0.000000e+00   0.000000e+00
     1048000   1.047999e-05   1.663909e+01   3.080133e+01   2.870439e+00   1.578157e+06   1.301937e+06  -5.345183e+05   0.000000e+00   0.000000e+00   0.000000e+00   2.114552e+06   0.000000e+00   0.000000e+00   0.000000e+00
     1056000   1.055999e-05   1.676534e+01   3.090548e+01   2.827678e+00   1.578157e+06   1.301937e+06  -5.345183e+05   0.000000e+00   0.000000e+00   0.000000e+00   2.114552e+06   0.000000e+00   0.000000e+00   0.000000e+00
     1064000   1.063999e-05   1.689159e+01   3.100964e+01   2.784916e+00   1.578157e+06   1.301937e+06  -5.345183e+05   0.000000e+00   0.000000e+00   0.000000e+00   2.114552e+06   0.000000e+00   0.000000e+00   0.000000e+00
     1072000   1.071999e-05   1.701785e+01   3.111379e+01   2.742155e+00   1.578157e+06   1.301937e+06  -5.345183e+05   0.000000e+00   0.000000e+00   0.000000e+00   2.114552e+06   0.000000e+00   0.000000e+00   0.000000e+00
     1080000   1.079999e-05   1.714410e+01   3.121795e+01   2.699393e+00   1.578157e+06   1.301937e+06  -5.345183e+05   0.000000e+00   0.000000e+00   0.000000e+00   2.114552e+06   0.000000e+00   0.000000e+00   0.000000e+00
     1088000   1.087999e-05   1.727035e+01   3.132210e+01   2.656632e+00   1.578157e+06   1.301937e+06  -5.345183e+05   0.000000e+00   0.000000e+00   0.000000e+00   2.114552e+06   0.000000e+00   0.000000e+00   0.000000e+00
     1096000   1.095999e-05   1.739660e+01   3.142626e+01   2.613870e+00   1.578157e+06   1.301937e+06  -5.345183e+05   0.000000e+00   0.000000e+00   0.000000e+00   2.114552e+06   0.000000e+00   0.000000e+00   0.000000e+00
     1104000   1.103999e-05   1.752286e+01   3.153041e+01   2.571109e+00   1.578157e+06   1.301937e+06  -5.345183e+05   0.000000e+00   0.000000e+00   0.000000e+00   2.114552e+06   0.000000e+00   0.000000e+00   0.000000e+00
     1112000   1.111999e-05   1.764911e+01   3.163457e+01   2.528347e+00   1.578157e+06   1.301937e+06  -5.345183e+05   0.000000e+00   0.000000e+00   0.000000e+00   2.114552e+06   0.000000e+00   0.000000e+00   0.000000e+00
     1120000   1.119999e-05   1.777536e+01   3.173872e+01   2.485586e+00   1.578157e+06   1.301937e+06  -5.345183e+05   0.000000e+00   0.000000e+00   0.000000e+00   2.114552e+06   0.000000e+00   0.000000e+00   0.000000e+00
     1128000   1.127999e-05   1.790162e+01   3.184288e+01   2.442824e+00   1.578157e+06   1.301937e+06  -5.345183e+05   0.000000e+00   0.000000e+00   0.000000e+00   2.114552e+06   0.000000e+00   0.000000e+00   0.000000e+00
     1136000   1.135999e-05   1.802787e+01   3.194703e+01   2.400063e+00   1.578157e+06   1.301937e+06  -5.345183e+05   0.000000e+00   0.000000e+00   0.000000e+00   2.114552e+06   0.000000e+00   0.000000e+00   0.000000e+00
     1144000   1.143999e-05   1.815412e+01   3.205119e+01   2.357302e+00   1.578157e+06   1.301937e+06  -5.345183e+05   0.000000e+00   0.000000e+00   0.000000e+00   2.114552e+06   0.000000e+00   0.000000e+00   0.000000e+00
     1152000   1.151999e-05   1.828037e+01   3.215534e+01   2.314540e+00   1.578157e+06   1.301937e+06  -5.345183e+05   0.000000e+00   0.000000e+00   0.000000e+00   2.114552e+06   0.000000e+00   0.000000e+00   0.000000e+00
     1160000   1.159999e-05   1.840663e+01   3.225950e+01   2.271779e+00   1.578157e+06   1.301937e+06  -5.345183e+05   0.000000e+00   0.000000e+00   0.000000e+00   2.114552e+06   0.000000e+00   0.000000e+00   0.000000e+00
     1168000   1.167999e-05   1.853288e+01   3.236365e+01   2.229017e+00   1.578157e+06   1.301937e+06  -5.345183e+05   0.000000e+00   0.000000e+00   0.000000e+00   2.114552e+06   0.000000e+00   0.000000e+00   0.000000e+00
     1176000   1.175999e-05   1.865913e+01   3.246781e+01   2.186256e+00   1.578157e+06   1.301937e+06  -5.345183e+05   0.000000e+00   0.000000e+00   0.000000e+00   2.114552e+06   0.000000e+00   0.000000e+00   0.000000e+00
     1184000   1.183999e-05   1.878538e+01   3.257196e+01   2.143494e+00   1.578157e+06   1.301937e+06  -5.345183e+05   0.000000e+00   0.000000e+00   0.000000e+00   2.114552e+06   0.000000e+00   0.000000e+00   0.000000e+00
     1192000   1.191999e-05   1.891164e+01   3.267612e+01   2.100733e+00   1.578157e+06   1.301937e+06  -5.345183e+05   0.000000e+00   0.000000e+00   0.000000e+00   2.114552e+06   0.000000e+00   0.000000e+00   0.000000e+00
     1200000   1.199999e-05   1.903789e+01   3.278027e+01   2.057971e+00   1.578157e+06   1.301937e+06  -5.345183e+05   0.000000e+00   0.000000e+00   0.000000e+00   2.114552e+06   0.000000e+00   0.000000e+00   0.000000e+00
     1208000   1.207999e-05   1.916414e+01   3.288443e+01   2.015210e+00   1.578157e+06   1.301937e+06  -5.345183e+05   0.000000e+00   0.000000e+00   0.000000e+00   2.114552e+06   0.000000e+00   0.000000e+00   0.000000e+00
     1216000   1.215999e-05   1.929039e+01   3.298858e+01   1.972448e+00   1.578157e+06   1.301937e+06  -5.345183e+05   0.000000e+00   0.000000e+00   0.000000e+00   2.114552e+06   0.000000e+00   0.000000e+00   0.000000e+00
     1224000   1.223999e-05   1.941665e+01   3.309274e+01   1.929687e+00   1.578157e+06   1.301937e+06  -5.345183e+05   0.000000e+00   0.000000e+00   0.000000e+00   2.114552e+06   0.000000e+00   0.000000e+00   0.000000e+00
     1232000   1.231999e-05   1.954290e+01   3.319689e+01   1.886925e+00   1.578157e+06   1.301937e+06  -5.345183e+05   0.000000e+00   0.000000e+00   0.000000e+00   2.114552e+06   0.000000e+00   0.000000e+00   0.000000e+00
     1240000   1.239999e-05   1.966915e+01   3.330105e+01   1.844164e+00   1.578157e+06   1.301937e+06  -5.345183e+05   0.000000e+00   0.000000e+00   0.000000e+00   2.114552e+06   0.000000e+00   0.000000e+00   0.000000e+00
     1248000   1.247999e-05   1.979540e+01   3.340520e+01   1.801403e+00   1.578157e+06   1.301937e+06  -5.345183e+05   0.000000e+00   0.000000e+00   0.000000e+00   2.114552e+06   0.000000e+00   0.000000e+00   0.000000e+00
     1256000   1.255999e-05   1.992166e+01   3.350936e+01   1.758641e+00   1.578157e+06   1.301937e+06  -5.345183e+05   0.000000e+00   0.000000e+00   0.000000e+00   2.114552e+06   0.000000e+00   0.000000e+00   0.000000e+00
     1264000   1.263999e-05   2.004791e+01   3.361351e+01   1.715880e+00   1.578157e+06   1.301937e+06  -5.345183e+05   0.000000e+00   0.000000e+00   0.000000e+00   2.114552e+06   0.000000e+00   0.000000e+00   0.000000e+00
     1272000   1.271999e-05   2.017416e+01   3.371767e+01   1.673118e+00   1.578157e+06   1.301937e+06  -5.345183e+05   0.000000e+00   0.000000e+00   0.000000e+00   2.114552e+06   0.000000e+00   0.000000e+00   0.000000e+00
     1280000   1.279999e-05   2.030041e+01   3.382182e+01   1.630357e+00   1.578157e+06   1.301937e+06  -5.345183e+05   0.000000e+00   0.000000e+00   0.000000e+00   2.114552e+06   0.000000e+00   0.000000e+00   0.000000e+00
     1288000   1.287999e-05   2.042667e+01   3.392598e+01   1.587595e+00   1.578157e+06   1.301937e+06  -5.345183e+05   0.000000e+00   0.000000e+00   0.000000e+00   2.114552e+06   0.000000e+00   0.000000e+00   0.000000e+00
     1296000   1.295999e-05   2.055292e+01   3.403013e+01   1.544834e+00   1.578157e+06   1.301937e+06  -5.345183e+05   0.000000e+00   0.000000e+00   0.000000e+00   2.114552e+06   0.000000e+00   0.000000e+00   0.000000e+00
     1304000   1.303999e-05   2.067917e+01   3.413429e+01   1.502072e+00   1.578157e+06   1.301937e+06  -5.345183e+05   0.000000e+00   0.000000e+00   0.000000e+00   2.114552e+06   0.000000e+00   0.000000e+00   0.000000e+00
     1312000   1.311999e-05   2.080542e+01   3.423844e+01   1.459311e+00   1.578157e+06   1.301937e+06  -5.345183e+05   0.000000e+00   0.000000e+00   0.000000e+00   2.114552e+06   0.000000e+00   0.000000e+00   0.000000e+00
     1320000   1.319999e-05   2.093168e+01   3.434260e+01   1.416549e+00   1.578157e+06   1.301937e+06  -5.345183e+05   0.000000e+00   0.000000e+00   0.000000e+00   2.114552e+06   0.000000e+00   0.000000e+00   0.000000e+00
     1328000   1.327999e-05   2.105793e+01   3.444675e+01   1.373788e+00   1.578157e+06   1.301937e+06  -5.345183e+05   0.000000e+00   0.000000e+00   0.000000e+00   2.114552e+06   0.000000e+00   0.000000e+00   0.000000e+00
     1336000   1.335999e-05   2.118418e+01   3.455091e+01   1.331026e+00   1.578157e+06   1.301937e+06  -5.345183e+05   0.000000e+00   0.000000e+00   0.000000e+00   2.114552e+06   0.000000e+00   0.000000e+00   0.000000e+00
     1344000   1.343999e-05   2.131044e+01   3.465506e+01   1.288265e+00   1.578157e+06   1.301937e+06  -5.345183e+05   0.000000e+00   0.000000e+00   0.000000e+00   2.114552e+06   0.000000e+00   0.000000e+00   0.000000e+00
     1352000   1.351999e-05   2.143669e+01   3.475922e+01   1.245503e+00   1.578157e+06   1.301937e+06  -5.345183e+05   0.000000e+00   0.000000e+00   0.000000e+00   2.114552e+06   0.000000e+00   0.000000e+00   0.000000e+00
     1360000   1.359999e-05   2.156294e+01   3.486337e+01   1.202742e+00   1.578157e+06   1.301937e+06  -5.345183e+05   0.000000e+00   0.000000e+00   0.000000e+00   2.114552e+06   0.000000e+00   0.000000e+00   0.000000e+00
     1368000   1.367999e-05   2.168919e+01   3.496753e+01   1.159981e+00   1.578157e+06   1.301937e+06  -5.345183e+05   0.000000e+00   0.000000e+00   0.000000e+00   2.114552e+06   0.000000e+00   0.000000e+00   0.000000e+00
     1376000   1.375999e-05   2.181545e+01   3.507168e+01   1.117219e+00   1.578157e+06   1.301937e+06  -5.345183e+05   0.000000e+00   0.000000e+00   0.000000e+00   2.114552e+06   0.000000e+00   0.000000e+00   0.000000e+00
     1384000   1.383999e-05   2.194170e+01   3.517584e+01   1.074458e+00   1.578157e+06   1.301937e+06  -5.345183e+05   0.000000e+00   0.000000e+00   0.000000e+00   2.114552e+06   0.000000e+00   0.000000e+00   0.000000e+00
     1392000   1.391999e-05   2.206795e+01   3.527999e+01   1.031696e+00   1.578157e+06   1.301937e+06  -5.345183e+05   0.000000e+00   0.000000e+00   0.000000e+00   2.114552e+06   0.000000e+00   0.000000e+00   0.000000e+00
     1400000   1.399999e-05   2.219420e+01   3.538415e+01   9.889347e-01   1.578157e+06   1.301937e+06  -5.345183e+05   0.000000e+00   0.000000e+00   0.000000e+00   2.114552e+06   0.000000e+00   0.000000e+00   0.000000e+00
     1408000   1.407999e-05   2.232046e+01   3.548830e+01   9.461732e-01   1.578157e+06   1.301937e+06  -5.345183e+05   0.000000e+00   0.000000e+00   0.000000e+00   2.114552e+06   0.000000e+00   0.000000e+00   0.000000e+00
     1416000   1.415999e-05   2.244671e+01   3.559246e+01   9.034117e-01   1.578157e+06   1.301937e+06  -5.345183e+05   0.000000e+00   0.000000e+00   0.000000e+00   2.114552e+06   0.000000e+00   0.000000e+00   0.000000e+00
     1424000   1.423999e-05   2.257296e+01   3.569661e+01   8.606503e-01   1.578157e+06   1.301937e+06  -5.345183e+05   0.000000e+00   0.000000e+00   0.000000e+00   2.114552e+06   0.000000e+00   0.000000e+00   0.000000e+00
     1432000   1.431999e-05   2.269921e+01   3.580077e+01   8.178888e-01   1.578157e+06   1.301937e+06  -5.345183e+05   0.000000e+00   0.000000e+00   0.000000e+00   2.114552e+06   0.000000e+00   0.000000e+00   0.000000e+00
     1440000   1.439999e-05   2.282547e+01   3.590492e+01   7.751273e-01   1.578157e+06   1.301937e+06  -5.345183e+05   0.000000e+00   0.000000e+00   0.000000e+00   2.114552e+06   0.000000e+00   0.000000e+00   0.000000e+00
     1448000   1.447999e-05   2.295172e+01   3.600908e+01   7.323659e-01   1.578157e+06   1.301937e+06  -5.345183e+05   0.000000e+00   0.000000e+00   0.000000e+00   2.114552e+06   0.000000e+00   0.000000e+00   0.000000e+00
     1456000   1.455999e-05   2.307797e+01   3.611323e+01   6.896044e-01   1.578157e+06   1.301937e+06  -5.345183e+05   0.000000e+00   0.000000e+00   0.000000e+00   2.114552e+06   0.000000e+00   0.000000e+00   0.000000e+00
     1464000   1.463999e-05   2.320422e+01   3.621739e+01   6.468430e-01   1.578157e+06   1.301937e+06  -5.345183e+05   0.000000e+00   0.000000e+00   0.000000e+00   2.114552e+06   0.000000e+00   0.000000e+00   0.000000e+00
     1472000   1.471999e-05   2.333048e+01   3.632154e+01   6.040815e-01   1.578157e+06   1.301937e+06  -5.345183e+05   0.000000e+00   0.000000e+00   0.000000e+00   2.114552e+06   0.000000e+00   0.000000e+00   0.000000e+00
     1480000   1.479999e-05   2.345673e+01   3.642570e+01   5.613200e-01   1.578157e+06   1.301937e+06  -5.345183e+05   0.000000e+00   0.000000e+00   0.000000e+00   2.114552e+06   0.000000e+00   0.000000e+00   0.000000e+00
     1488000   1.487999e-05   2.358298e+01   3.652985e+01   5.185586e-01   1.578157e+06   1.301937e+06  -5.345183e+05   0.000000e+00   0.000000e+00   0.000000e+00   2.114552e+06   0.000000e+00   0.000000e+00   0.000000e+00
     1496000   1.495999e-05   2.370923e+01   3.663400e+01   4.757971e-01   1.578157e+06   1.301937e+06  -5.345183e+05   0.000000e+00   0.000000e+00   0.000000e+00   2.114552e+06   0.000000e+00   0.000000e+00   0.000000e+00
     1504000   1.503999e-05   2.383549e+01   3.673816e+01   4.330356e-01   1.578157e+06   1.301937e+06  -5.345183e+05   0.000000e+00   0.000000e+00   0.000000e+00   2.114552e+06   0.000000e+00   0.000000e+00   0.000000e+00
     1512000   1.511999e-05   2.396174e+01   3.684231e+01   3.902742e-01   1.578157e+06   1.301937e+06  -5.345183e+05   0.000000e+00   0.000000e+00   0.000000e+00   2.114552e+06   0.000000e+00   0.000000e+00   0.000000e+00
     1520000   1.519999e-05   2.408799e+01   3.694647e+01   3.475127e-01   1.578157e+06   1.301937e+06  -5.345183e+05   0.000000e+00   0.000000e+00   0.000000e+00   2.114552e+06   0.000000e+00   0.000000e+00   0.000000e+00
     1528000   1.527999e-05   2.421424e+01   3.705062e+01   3.047512e-01   1.578157e+06   1.301937e+06  -5.345183e+05   0.000000e+00   0.000000e+00   0.000000e+00   2.114552e+06   0.000000e+00   0.000000e+00   0.000000e+00
     1536000   1.535999e-05   2.434050e+01   3.715478e+01   2.619898e-01   1.578157e+06   1.301937e+06  -5.345183e+05   0.000000e+00   0.000000e+00   0.000000e+00   2.114552e+06   0.000000e+00   0.000000e+00   0.000000e+00
     1544000   1.543999e-05   2.446675e+01   3.725893e+01   2.192283e-01   1.578157e+06   1.301937e+06  -5.345183e+05   0.000000e+00   0.000000e+00   0.000000e+00   2.114552e+06   0.000000e+00   0.000000e+00   0.000000e+00
     1552000   1.551999e-05   2.459300e+01   3.736309e+01   1.764668e-01   1.578157e+06   1.301937e+06  -5.345183e+05   0.000000e+00   0.000000e+00   0.000000e+00   2.114552e+06   0.000000e+00   0.000000e+00   0.000000e+00
     1560000   1.559999e-05   2.471926e+01   3.746724e+01   1.337054e-01   1.578157e+06   1.301937e+06  -5.345183e+05   0.000000e+00   0.000000e+00   0.000000e+00   2.114552e+06   0.000000e+00   0.000000e+00   0.000000e+00
     1568000   1.567999e-05   2.484551e+01   3.757140e+01   9.094391e-02   1.578157e+06   1.301937e+06  -5.345183e+05   0.000000e+00   0.000000e+00   0.000000e+00   2.114552e+06   0.000000e+00   0.000000e+00   0.000000e+00
     1576000   1.575999e-05   2.497176e+01   3.767555e+01   4.818245e-02   1.578157e+06   1.301937e+06  -5.345183e+05   0.000000e+00   0.000000e+00   0.000000e+00   2.114552e+06   0.000000e+00   0.000000e+00   0.000000e+00
     1584000   1.583999e-05   2.509801e+01   3.777971e+01   5.420982e-03   1.578157e+06   1.301937e+06  -5.345183e+05   0.000000e+00   0.000000e+00   0.000000e+00   2.114552e+06   0.000000e+00   0.000000e+00   0.000000e+00
