     timestep     time              x             y              z              vx             vy             vz             ax             ay             az         v_magnitude      ELoss        Electronic      Nuclear
           0   0.000000e+00   1.000000e-01   9.735096e+00   2.089565e+01   8.127648e+04  -1.489917e+05   1.165598e+06   0.000000e+00   0.000000e+00   0.000000e+00   1.177889e+06   0.000000e+00   0.000000e+00   0.000000e+00
        8000   7.999000e-08   1.065022e-01   9.723177e+00   2.098890e+01   8.127734e+04  -1.489912e+05   1.165598e+06   5.539983e+06   3.022158e+06   6.548960e-16   1.177889e+06   1.331525e-28   0.000000e+00   0.000000e+00
       16000   1.599900e-07   1.130044e-01   9.711257e+00   2.108215e+01   8.127835e+04  -1.489907e+05   1.165598e+06   1.729239e+07   9.433454e+06   2.475143e-15   1.177889e+06   1.296582e-27   0.000000e+00   0.000000e+00
       24000   2.399900e-07   1.195067e-01   9.699338e+00   2.117539e+01   8.127942e+04  -1.489901e+05   1.165598e+06   2.557501e+07   1.395208e+07   4.200824e-15   1.177889e+06   2.836234e-27   0.000000e+00   0.000000e+00
       32000   3.199900e-07   1.260091e-01   9.687419e+00   2.126864e+01   8.128004e+04  -1.489898e+05   1.165598e+06  -2.763200e+06  -1.507439e+06  -1.143146e-16   1.177889e+06   3.308149e-29   0.000000e+00   0.000000e+00
       40000   3.999900e-07   1.325115e-01   9.675500e+00   2.136189e+01   8.128088e+04  -1.489893e+05   1.165598e+06   2.089860e+07   1.140120e+07  -1.688181e-15   1.177889e+06   1.893832e-27   0.000000e+00   0.000000e+00
       48000   4.799900e-07   1.390140e-01   9.663581e+00   2.145514e+01   8.128170e+04  -1.489888e+05   1.165598e+06  -1.227393e+06  -6.696110e+05   1.383486e-16   1.177889e+06   6.520010e-30   0.000000e+00   0.000000e+00
       56000   5.599900e-07   1.455166e-01   9.651662e+00   2.154838e+01   8.128215e+04  -1.489886e+05   1.165598e+06   1.622225e+07   8.850200e+06   1.198488e-15   1.177889e+06   1.141092e-27   0.000000e+00   0.000000e+00
       64000   6.399900e-07   1.520192e-01   9.639743e+00   2.164163e+01   8.128306e+04  -1.489881e+05   1.165598e+06   3.083424e+05   1.682216e+05   5.547218e-18   1.177889e+06   4.156084e-31   0.000000e+00   0.000000e+00
       72000   7.199900e-07   1.585218e-01   9.627823e+00   2.173488e+01   8.128322e+04  -1.489880e+05   1.165598e+06   1.154595e+07   6.299108e+06  -1.011477e-15   1.177889e+06   5.780146e-28   0.000000e+00   0.000000e+00
       80000   7.999900e-07   1.650245e-01   9.615904e+00   2.182813e+01   8.128410e+04  -1.489875e+05   1.165598e+06   1.844020e+06   1.006054e+06   7.044690e-16   1.177889e+06   1.476629e-29   0.000000e+00   0.000000e+00
       88000   8.799900e-07   1.715273e-01   9.603985e+00   2.192138e+01   8.128409e+04  -1.489875e+05   1.165598e+06   6.869690e+06   3.747941e+06  -1.488230e-15   1.177889e+06   2.045992e-28   0.000000e+00   0.000000e+00
       96000   9.599900e-07   1.780300e-01   9.592066e+00   2.201462e+01   8.128393e+04  -1.489876e+05   1.165598e+06   1.515962e+07   8.270710e+06   2.762916e-15   1.177889e+06   9.965000e-28   0.000000e+00   0.000000e+00
      104000   1.039990e-06   1.845328e-01   9.580147e+00   2.210787e+01   8.128528e+04  -1.489869e+05   1.165598e+06  -6.416560e+06  -3.500790e+06   1.947731e-15   1.177889e+06   1.784854e-28   0.000000e+00   0.000000e+00
      112000   1.119990e-06   1.910355e-01   9.568229e+00   2.220112e+01   8.128440e+04  -1.489874e+05   1.165598e+06   1.050002e+07   5.728593e+06   3.619710e-16   1.177889e+06   4.780315e-28   0.000000e+00   0.000000e+00
      120000   1.199990e-06   1.975383e-01   9.556310e+00   2.229437e+01   8.128557e+04  -1.489867e+05   1.165598e+06   1.874792e+07   1.022866e+07  -2.243735e-15   1.177889e+06   1.524135e-27   0.000000e+00   0.000000e+00
      128000   1.279990e-06   2.040412e-01   9.544391e+00   2.238762e+01   8.128562e+04  -1.489867e+05   1.165598e+06   3.491581e+06   1.904971e+06  -3.567977e-17   1.177889e+06   5.286188e-29   0.000000e+00   0.000000e+00
      136000   1.359990e-06   2.105440e-01   9.532472e+00   2.248086e+01   8.128569e+04  -1.489867e+05   1.165598e+06  -6.306034e+05  -3.440511e+05   1.172318e-16   1.177889e+06   1.722973e-30   0.000000e+00   0.000000e+00
      144000   1.439990e-06   2.170469e-01   9.520553e+00   2.257411e+01   8.128578e+04  -1.489866e+05   1.165598e+06   2.502731e+06   1.365468e+06  -2.044102e-16   1.177889e+06   2.715819e-29   0.000000e+00   0.000000e+00
      152000   1.519990e-06   2.235498e-01   9.508634e+00   2.266736e+01   8.128589e+04  -1.489866e+05   1.165598e+06   1.237737e+04   6.752993e+03  -2.986754e-18   1.177889e+06   6.958947e-34   0.000000e+00   0.000000e+00
      160000   1.599990e-06   2.300526e-01   9.496715e+00   2.276061e+01   8.128585e+04  -1.489866e+05   1.165598e+06  -2.299932e+06  -1.254824e+06  -5.951370e-16   1.177889e+06   2.293436e-29   0.000000e+00   0.000000e+00
      168000   1.679990e-06   2.365555e-01   9.484796e+00   2.285385e+01   8.128590e+04  -1.489866e+05   1.165598e+06   3.657859e+06   1.995699e+06   6.004365e-16   1.177889e+06   5.801718e-29   0.000000e+00   0.000000e+00
      176000   1.759990e-06   2.430584e-01   9.472877e+00   2.294710e+01   8.128602e+04  -1.489865e+05   1.165598e+06  -1.659248e+06  -9.052744e+05  -1.573023e-16   1.177889e+06   1.193542e-29   0.000000e+00   0.000000e+00
      184000   1.839990e-06   2.495613e-01   9.460958e+00   2.304035e+01   8.128599e+04  -1.489865e+05   1.165598e+06   2.672536e+06   1.458117e+06   4.622345e-16   1.177889e+06   3.096895e-29   0.000000e+00   0.000000e+00
      192000   1.919990e-06   2.560641e-01   9.449039e+00   2.313360e+01   8.128615e+04  -1.489864e+05   1.165598e+06  -1.018566e+06  -5.557238e+05   1.101374e-16   1.177889e+06   4.496749e-30   0.000000e+00   0.000000e+00
      200000   1.999990e-06   2.625670e-01   9.437120e+00   2.322685e+01   8.128607e+04  -1.489865e+05   1.165598e+06   1.687213e+06   9.205326e+05   2.883606e-16   1.177889e+06   1.234152e-29   0.000000e+00   0.000000e+00
      208000   2.079990e-06   2.690699e-01   9.425201e+00   2.332009e+01   8.128623e+04  -1.489864e+05   1.165598e+06  -3.778852e+05  -2.061723e+05   9.750946e-17   1.177889e+06   6.183329e-31   0.000000e+00   0.000000e+00
      216000   2.159990e-06   2.755728e-01   9.413282e+00   2.341334e+01   8.128614e+04  -1.489864e+05   1.165598e+06   7.018907e+05   3.829476e+05   2.358267e-17   1.177889e+06   2.134887e-30   0.000000e+00   0.000000e+00
      224000   2.239990e-06   2.820757e-01   9.401364e+00   2.350659e+01   8.128627e+04  -1.489864e+05   1.165598e+06   2.627947e+05   1.433796e+05   5.181331e-19   1.177889e+06   3.001617e-31   0.000000e+00   0.000000e+00
      232000   2.319990e-06   2.885786e-01   9.389445e+00   2.359984e+01   8.128656e+04  -1.489862e+05   1.165598e+06   4.973350e+06   2.713449e+06   6.073579e-16   1.177889e+06   1.072555e-28   0.000000e+00   0.000000e+00
      240000   2.399990e-06   2.950815e-01   9.377526e+00   2.369309e+01   8.128630e+04  -1.489863e+05   1.165598e+06  -4.346118e+06  -2.371223e+06   1.039986e-16   1.177889e+06   8.190547e-29   0.000000e+00   0.000000e+00
      248000   2.479990e-06   3.015845e-01   9.365607e+00   2.378633e+01   8.128643e+04  -1.489863e+05   1.165598e+06  -1.696464e-01  -9.255852e-02  -1.287029e-23   1.177889e+06   1.250713e-43   0.000000e+00   0.000000e+00
      256000   2.559990e-06   3.080874e-01   9.353688e+00   2.387958e+01   8.128643e+04  -1.489863e+05   1.165598e+06  -3.672018e+00  -2.003441e+00  -3.274035e-24   1.177889e+06   5.846584e-41   0.000000e+00   0.000000e+00
      264000   2.639990e-06   3.145903e-01   9.341769e+00   2.397283e+01   8.128643e+04  -1.489863e+05   1.165598e+06  -1.577458e+00  -8.606558e-01   3.729430e-22   1.177889e+06   1.079394e-41   0.000000e+00   0.000000e+00
      272000   2.719990e-06   3.210932e-01   9.329850e+00   2.406608e+01   8.128643e+04  -1.489863e+05   1.165598e+06  -4.535824e+00  -2.474731e+00  -1.040714e-21   1.177889e+06   8.921117e-41   0.000000e+00   0.000000e+00
      280000   2.799990e-06   3.275961e-01   9.317931e+00   2.415932e+01   8.128643e+04  -1.489863e+05   1.165598e+06  -2.985269e+00  -1.628753e+00   5.035833e-22   1.177889e+06   3.865325e-41   0.000000e+00   0.000000e+00
      288000   2.879990e-06   3.340990e-01   9.306012e+00   2.425257e+01   8.128643e+04  -1.489863e+05   1.165598e+06  -5.399630e+00  -2.946020e+00  -3.595129e-22   1.177889e+06   1.264284e-40   0.000000e+00   0.000000e+00
      296000   2.959990e-06   3.406019e-01   9.294093e+00   2.434582e+01   8.128643e+04  -1.489863e+05   1.165598e+06  -7.822507e+00  -4.267934e+00   2.966155e-21   1.177889e+06   2.653710e-40   0.000000e+00   0.000000e+00
      304000   3.039990e-06   3.471049e-01   9.282175e+00   2.443907e+01   8.128643e+04  -1.489863e+05   1.165598e+06  -4.208875e+00  -2.296349e+00  -4.340628e-22   1.177889e+06   7.682859e-41   0.000000e+00   0.000000e+00
      312000   3.119990e-06   3.536078e-01   9.270256e+00   2.453232e+01   8.128643e+04  -1.489863e+05   1.165598e+06  -7.056575e+00  -3.850045e+00  -2.003462e-21   1.177889e+06   2.159478e-40   0.000000e+00   0.000000e+00
      320000   3.199990e-06   3.601107e-01   9.258337e+00   2.462556e+01   8.128643e+04  -1.489863e+05   1.165598e+06  -4.099384e+00  -2.236610e+00  -3.910942e-22   1.177889e+06   7.288339e-41   0.000000e+00   0.000000e+00
      328000   3.279990e-06   3.666136e-01   9.246418e+00   2.471881e+01   8.128643e+04  -1.489863e+05   1.165598e+06  -6.290643e+00  -3.432155e+00   2.219628e-21   1.177889e+06   1.716130e-40   0.000000e+00   0.000000e+00
      336000   3.359990e-06   3.731165e-01   9.234499e+00   2.481206e+01   8.128643e+04  -1.489863e+05   1.165598e+06  -3.989892e+00  -2.176872e+00   2.278619e-22   1.177889e+06   6.904217e-41   0.000000e+00   0.000000e+00
      344000   3.439990e-06   3.796194e-01   9.222580e+00   2.490531e+01   8.128643e+04  -1.489863e+05   1.165598e+06  -5.524712e+00  -3.014265e+00  -1.593546e-21   1.177889e+06   1.323665e-40   0.000000e+00   0.000000e+00
      352000   3.519990e-06   3.861223e-01   9.210661e+00   2.499855e+01   8.128643e+04  -1.489863e+05   1.165598e+06  -5.980087e+00  -3.262716e+00   2.652027e-21   1.177889e+06   1.550867e-40   0.000000e+00   0.000000e+00
      360000   3.599990e-06   3.926253e-01   9.198742e+00   2.509180e+01   8.128643e+04  -1.489863e+05   1.165598e+06   9.178987e-02   5.008025e-02  -5.831131e-24   1.177889e+06   3.645146e-44   0.000000e+00   0.000000e+00
      368000   3.679990e-06   3.991282e-01   9.186823e+00   2.518505e+01   8.128643e+04  -1.489863e+05   1.165598e+06  -3.761234e+00  -2.052117e+00  -2.747804e-22   1.177889e+06   6.134884e-41   0.000000e+00   0.000000e+00
      376000   3.759990e-06   4.056311e-01   9.174904e+00   2.527830e+01   8.128643e+04  -1.489863e+05   1.165598e+06  -5.265570e+00  -2.872878e+00   9.983585e-22   1.177889e+06   1.202294e-40   0.000000e+00   0.000000e+00
      384000   3.839990e-06   4.121340e-01   9.162986e+00   2.537155e+01   8.128643e+04  -1.489863e+05   1.165598e+06  -1.875236e+00  -1.023123e+00   3.013901e-22   1.177889e+06   1.525667e-41   0.000000e+00   0.000000e+00
      392000   3.919990e-06   4.186369e-01   9.151067e+00   2.546479e+01   8.128643e+04  -1.489863e+05   1.165598e+06  -4.326826e+00  -2.360702e+00   6.261689e-22   1.177889e+06   8.117986e-41   0.000000e+00   0.000000e+00
      400000   3.999990e-06   4.251398e-01   9.139148e+00   2.555804e+01   8.128643e+04  -1.489863e+05   1.165598e+06  -1.249662e+00  -6.818115e-01   1.926248e-22   1.177889e+06   6.776771e-42   0.000000e+00   0.000000e+00
      408000   4.079990e-06   4.316427e-01   9.127229e+00   2.565129e+01   8.128643e+04  -1.489863e+05   1.165598e+06  -3.388082e+00  -1.848527e+00   2.576097e-22   1.177889e+06   4.977384e-41   0.000000e+00   0.000000e+00
      416000   4.159990e-06   4.381456e-01   9.115310e+00   2.574454e+01   8.128643e+04  -1.489863e+05   1.165598e+06  -6.240875e-01  -3.405001e-01   2.291359e-22   1.177889e+06   1.691216e-42   0.000000e+00   0.000000e+00
      424000   4.239990e-06   4.446486e-01   9.103391e+00   2.583779e+01   8.128643e+04  -1.489863e+05   1.165598e+06  -2.449339e+00  -1.336351e+00  -1.082447e-22   1.177889e+06   2.601132e-41   0.000000e+00   0.000000e+00
      432000   4.319990e-06   4.511515e-01   9.091472e+00   2.593103e+01   8.128643e+04  -1.489863e+05   1.165598e+06  -1.846355e+00  -1.007365e+00  -3.674309e-22   1.177889e+06   1.478855e-41   0.000000e+00   0.000000e+00
      440000   4.399990e-06   4.576544e-01   9.079553e+00   2.602428e+01   8.128643e+04  -1.489863e+05   1.165598e+06  -4.815841e-01  -2.627507e-01   9.549658e-23   1.177889e+06   1.004500e-42   0.000000e+00   0.000000e+00
      448000   4.479990e-06   4.641573e-01   9.067634e+00   2.611753e+01   8.128643e+04  -1.489863e+05   1.165598e+06  -2.489871e+00  -1.358465e+00  -4.332499e-22   1.177889e+06   2.689155e-41   0.000000e+00   0.000000e+00
      456000   4.559990e-06   4.706602e-01   9.055715e+00   2.621078e+01   8.128643e+04  -1.489863e+05   1.165598e+06  -4.896171e-01  -2.671335e-01   1.971503e-23   1.177889e+06   1.038313e-42   0.000000e+00   0.000000e+00
      464000   4.639990e-06   4.771631e-01   9.043796e+00   2.630402e+01   8.128643e+04  -1.489863e+05   1.165598e+06  -3.133386e+00  -1.709565e+00   9.354403e-22   1.177889e+06   4.258638e-41   0.000000e+00   0.000000e+00
      472000   4.719990e-06   4.836660e-01   9.031878e+00   2.639727e+01   8.128643e+04  -1.489863e+05   1.165598e+06  -9.672094e-01  -5.277063e-01  -2.844104e-24   1.177889e+06   4.059308e-42   0.000000e+00   0.000000e+00
      480000   4.799990e-06   4.901690e-01   9.019959e+00   2.649052e+01   8.128643e+04  -1.489863e+05   1.165598e+06  -2.989601e+00  -1.631117e+00  -7.702265e-22   1.177889e+06   3.875286e-41   0.000000e+00   0.000000e+00
      488000   4.879990e-06   4.966719e-01   9.008040e+00   2.658377e+01   8.128643e+04  -1.489863e+05   1.165598e+06  -1.610725e+00  -8.788064e-01  -2.134205e-22   1.177889e+06   1.125529e-41   0.000000e+00   0.000000e+00
      496000   4.959990e-06   5.031748e-01   8.996121e+00   2.667702e+01   8.128643e+04  -1.489863e+05   1.165598e+06  -8.813907e-01  -4.808839e-01   1.344526e-22   1.177889e+06   3.369136e-42   0.000000e+00   0.000000e+00
      504000   5.039990e-06   5.096777e-01   8.984202e+00   2.677026e+01   8.128643e+04  -1.489863e+05   1.165598e+06  -3.757297e+00  -2.049969e+00  -2.136155e-22   1.177889e+06   6.122327e-41   0.000000e+00   0.000000e+00
      512000   5.119990e-06   5.161806e-01   8.972283e+00   2.686351e+01   8.128643e+04  -1.489863e+05   1.165598e+06  -1.369232e+00  -7.470488e-01   1.203972e-22   1.177889e+06   8.130757e-42   0.000000e+00   0.000000e+00
      520000   5.199990e-06   5.226835e-01   8.960364e+00   2.695676e+01   8.128643e+04  -1.489863e+05   1.165598e+06  -3.211166e+00  -1.752001e+00   2.320409e-22   1.177889e+06   4.471883e-41   0.000000e+00   0.000000e+00
      528000   5.279990e-06   5.291864e-01   8.948445e+00   2.705001e+01   8.128643e+04  -1.489863e+05   1.165598e+06  -1.857074e+00  -1.013214e+00   2.493544e-22   1.177889e+06   1.495660e-41   0.000000e+00   0.000000e+00
      536000   5.359990e-06   5.356894e-01   8.936526e+00   2.714325e+01   8.128643e+04  -1.489863e+05   1.165598e+06  -2.665034e+00  -1.454034e+00   1.046117e-22   1.177889e+06   3.080136e-41   0.000000e+00   0.000000e+00
      544000   5.439990e-06   5.421923e-01   8.924607e+00   2.723650e+01   8.128643e+04  -1.489863e+05   1.165598e+06  -2.344916e+00  -1.279378e+00   3.769967e-22   1.177889e+06   2.384665e-41   0.000000e+00   0.000000e+00
      552000   5.519990e-06   5.486952e-01   8.912689e+00   2.732975e+01   8.128643e+04  -1.489863e+05   1.165598e+06  -2.118902e+00  -1.156066e+00  -2.231517e-23   1.177889e+06   1.947087e-41   0.000000e+00   0.000000e+00
      560000   5.599990e-06   5.551981e-01   8.900770e+00   2.742300e+01   8.128643e+04  -1.489863e+05   1.165598e+06  -2.832757e+00  -1.545543e+00  -3.574442e-22   1.177889e+06   3.480093e-41   0.000000e+00   0.000000e+00
      568000   5.679990e-06   5.617010e-01   8.888851e+00   2.751625e+01   8.128643e+04  -1.489863e+05   1.165598e+06  -1.360583e+00  -7.423295e-01   3.431239e-22   1.177889e+06   8.028032e-42   0.000000e+00   0.000000e+00
      576000   5.759990e-06   5.682039e-01   8.876932e+00   2.760949e+01   8.128643e+04  -1.489863e+05   1.165598e+06  -1.577996e+00  -8.609496e-01   1.483873e-23   1.177889e+06   1.079830e-41   0.000000e+00   0.000000e+00
      584000   5.839990e-06   5.747068e-01   8.865013e+00   2.770274e+01   8.128643e+04  -1.489863e+05   1.165598e+06  -1.945501e+00  -1.061459e+00   5.645083e-23   1.177889e+06   1.641439e-41   0.000000e+00   0.000000e+00
      592000   5.919990e-06   5.812098e-01   8.853094e+00   2.779599e+01   8.128643e+04  -1.489863e+05   1.165598e+06  -2.053614e+00  -1.120445e+00   5.192821e-22   1.177889e+06   1.828941e-41   0.000000e+00   0.000000e+00
      600000   5.999990e-06   5.877127e-01   8.841175e+00   2.788924e+01   8.128643e+04  -1.489863e+05   1.165598e+06  -2.274353e+00  -1.240880e+00   4.506928e-22   1.177889e+06   2.243193e-41   0.000000e+00   0.000000e+00
      608000   6.079990e-06   5.942156e-01   8.829256e+00   2.798249e+01   8.128643e+04  -1.489863e+05   1.165598e+06  -2.638532e+00  -1.439575e+00   8.047347e-22   1.177889e+06   3.019175e-41   0.000000e+00   0.000000e+00
      616000   6.159990e-06   6.007185e-01   8.817337e+00   2.807573e+01   8.128643e+04  -1.489863e+05   1.165598e+06  -3.541050e+00  -1.931985e+00  -2.958904e-22   1.177889e+06   5.437701e-41   0.000000e+00   0.000000e+00
      624000   6.239990e-06   6.072214e-01   8.805418e+00   2.816898e+01   8.128643e+04  -1.489863e+05   1.165598e+06  -2.780985e+00  -1.517296e+00   8.117078e-22   1.177889e+06   3.354205e-41   0.000000e+00   0.000000e+00
      632000   6.319990e-06   6.137243e-01   8.793500e+00   2.826223e+01   8.128643e+04  -1.489863e+05   1.165598e+06  -3.016401e+00  -1.645739e+00   6.630278e-22   1.177889e+06   3.945936e-41   0.000000e+00   0.000000e+00
      640000   6.399990e-06   6.202272e-01   8.781581e+00   2.835548e+01   8.128643e+04  -1.489863e+05   1.165598e+06  -3.995161e+00  -2.179747e+00  -1.374526e-21   1.177889e+06   6.922042e-41   0.000000e+00   0.000000e+00
      648000   6.479990e-06   6.267302e-01   8.769662e+00   2.844872e+01   8.128643e+04  -1.489863e+05   1.165598e+06  -2.969915e+00  -1.620376e+00   9.830095e-22   1.177889e+06   3.825253e-41   0.000000e+00   0.000000e+00
      656000   6.559990e-06   6.332331e-01   8.757743e+00   2.854197e+01   8.128643e+04  -1.489863e+05   1.165598e+06  -3.969867e+00  -2.165947e+00   1.969071e-22   1.177889e+06   6.834672e-41   0.000000e+00   0.000000e+00
      664000   6.639990e-06   6.397360e-01   8.745824e+00   2.863522e+01   8.128643e+04  -1.489863e+05   1.165598e+06  -2.923430e+00  -1.595014e+00   7.288483e-22   1.177889e+06   3.706444e-41   0.000000e+00   0.000000e+00
      672000   6.719990e-06   6.462389e-01   8.733905e+00   2.872847e+01   8.128643e+04  -1.489863e+05   1.165598e+06  -3.944574e+00  -2.152147e+00   4.557875e-23   1.177889e+06   6.747856e-41   0.000000e+00   0.000000e+00
      680000   6.799990e-06   6.527418e-01   8.721986e+00   2.882172e+01   8.128643e+04  -1.489863e+05   1.165598e+06  -2.876945e+00  -1.569652e+00   4.748218e-22   1.177889e+06   3.589509e-41   0.000000e+00   0.000000e+00
      688000   6.879990e-06   6.592447e-01   8.710067e+00   2.891496e+01   8.128643e+04  -1.489863e+05   1.165598e+06  -3.919280e+00  -2.138347e+00   4.685990e-22   1.177889e+06   6.661595e-41   0.000000e+00   0.000000e+00
      696000   6.959990e-06   6.657476e-01   8.698148e+00   2.900821e+01   8.128643e+04  -1.489863e+05   1.165598e+06  -1.194662e+00  -6.518039e-01   9.565182e-23   1.177889e+06   6.189958e-42   0.000000e+00   0.000000e+00
      704000   7.039990e-06   6.722506e-01   8.686229e+00   2.910146e+01   8.128643e+04  -1.489863e+05   1.165598e+06   2.051031e-01   1.119036e-01   4.699223e-24   1.177889e+06   1.825833e-43   0.000000e+00   0.000000e+00
      712000   7.119990e-06   6.787535e-01   8.674311e+00   2.919471e+01   8.128643e+04  -1.489863e+05   1.165598e+06  -4.541449e-01  -2.477800e-01   6.818054e-23   1.177889e+06   8.941268e-43   0.000000e+00   0.000000e+00
      720000   7.199990e-06   6.852564e-01   8.662392e+00   2.928796e+01   8.128643e+04  -1.489863e+05   1.165598e+06  -1.495482e+00  -8.159301e-01   3.342383e-22   1.177889e+06   9.699599e-42   0.000000e+00   0.000000e+00
      728000   7.279990e-06   6.917593e-01   8.650473e+00   2.938120e+01   8.128643e+04  -1.489863e+05   1.165598e+06  -4.958266e-01  -2.705214e-01  -1.238910e-22   1.177889e+06   1.065818e-42   0.000000e+00   0.000000e+00
      736000   7.359990e-06   6.982622e-01   8.638554e+00   2.947445e+01   8.128643e+04  -1.489863e+05   1.165598e+06  -2.121633e+00  -1.157556e+00  -2.326247e-23   1.177889e+06   1.952203e-41   0.000000e+00   0.000000e+00
      744000   7.439990e-06   7.047651e-01   8.626635e+00   2.956770e+01   8.128643e+04  -1.489863e+05   1.165598e+06  -4.122971e+00  -2.249480e+00  -9.151432e-22   1.177889e+06   7.370958e-41   0.000000e+00   0.000000e+00
      752000   7.519990e-06   7.112680e-01   8.614716e+00   2.966095e+01   8.128643e+04  -1.489863e+05   1.165598e+06  -1.944183e+00  -1.060740e+00   1.377019e-23   1.177889e+06   1.639779e-41   0.000000e+00   0.000000e+00
      760000   7.599990e-06   7.177710e-01   8.602797e+00   2.975419e+01   8.128643e+04  -1.489863e+05   1.165598e+06   8.743279e+00  -6.787243e+00  -1.477281e+00   1.177889e+06   4.165246e-40   0.000000e+00   0.000000e+00
      768000   7.679990e-06   7.242739e-01   8.590878e+00   2.984744e+01   8.128643e+04  -1.489863e+05   1.165598e+06   2.350198e+01  -2.494225e+01  -4.827089e+00   1.177889e+06   4.002495e-39   0.000000e+00   0.000000e+00
      776000   7.759990e-06   7.307768e-01   8.578959e+00   2.994069e+01   8.128643e+04  -1.489863e+05   1.165598e+06   2.266291e+00  -7.174553e+00  -1.075095e+00   1.177889e+06   1.929469e-40   0.000000e+00   0.000000e+00
      784000   7.839990e-06   7.372797e-01   8.567040e+00   3.003394e+01   8.128643e+04  -1.489863e+05   1.165598e+06  -2.516695e+01   1.305353e+01   3.423588e+00   1.177889e+06   2.725182e-39   0.000000e+00   0.000000e+00
      792000   7.919990e-06   7.437826e-01   8.555122e+00   3.012719e+01   8.128643e+04  -1.489863e+05   1.165598e+06  -2.155294e+00   6.101964e-01   2.283009e-01   1.177889e+06   1.693723e-41   0.000000e+00   0.000000e+00
      800000   7.999990e-06   7.502855e-01   8.543203e+00   3.022043e+01   8.128643e+04  -1.489863e+05   1.165598e+06  -3.325029e+00  -1.814125e+00   4.207043e-22   1.177889e+06   4.794390e-41   0.000000e+00   0.000000e+00
      808000   8.079990e-06   7.567884e-01   8.531284e+00   3.031368e+01   8.128643e+04  -1.489863e+05   1.165598e+06  -2.140305e+00  -1.167743e+00  -3.165957e-22   1.177889e+06   1.986787e-41   0.000000e+00   0.000000e+00
      816000   8.159990e-06   7.632914e-01   8.519365e+00   3.040693e+01   8.128643e+04  -1.489863e+05   1.165598e+06  -2.942451e+00  -1.605392e+00   4.014481e-22   1.177889e+06   3.754548e-41   0.000000e+00   0.000000e+00
      824000   8.239990e-06   7.697943e-01   8.507446e+00   3.050018e+01   8.128643e+04  -1.489863e+05   1.165598e+06  -2.800342e+00  -1.527857e+00  -5.424779e-22   1.177889e+06   3.401062e-41   0.000000e+00   0.000000e+00
      832000   8.319990e-06   7.762972e-01   8.495527e+00   3.059342e+01   8.128643e+04  -1.489863e+05   1.165598e+06  -3.042093e-01  -1.659756e-01  -6.909785e-23   1.177889e+06   4.009231e-43   0.000000e+00   0.000000e+00
      840000   8.399990e-06   7.828001e-01   8.483608e+00   3.068667e+01   8.128643e+04  -1.489863e+05   1.165598e+06   3.489727e+00   1.903984e+00  -2.207861e-23   1.177889e+06   5.281135e-41   0.000000e+00   0.000000e+00
      848000   8.479990e-06   7.893030e-01   8.471689e+00   3.077992e+01   8.128643e+04  -1.489863e+05   1.165598e+06  -4.978016e-01  -2.715989e-01  -1.248687e-23   1.177889e+06   1.074000e-42   0.000000e+00   0.000000e+00
      856000   8.559990e-06   7.958059e-01   8.459770e+00   3.087317e+01   8.128643e+04  -1.489863e+05   1.165598e+06   2.667097e+00   1.455159e+00  -1.389734e-22   1.177889e+06   3.084711e-41   0.000000e+00   0.000000e+00
      864000   8.639990e-06   8.023088e-01   8.447851e+00   3.096642e+01   8.128643e+04  -1.489863e+05   1.165598e+06  -2.342602e+00  -1.278116e+00   4.775907e-22   1.177889e+06   2.380000e-41   0.000000e+00   0.000000e+00
      872000   8.719990e-06   8.088117e-01   8.435933e+00   3.105966e+01   8.128643e+04  -1.489863e+05   1.165598e+06  -2.325472e+00  -1.268770e+00  -1.155580e-22   1.177889e+06   2.345217e-41   0.000000e+00   0.000000e+00
      880000   8.799990e-06   8.153147e-01   8.424014e+00   3.115291e+01   8.128643e+04  -1.489863e+05   1.165598e+06  -2.500375e+00  -1.364196e+00   4.901423e-22   1.177889e+06   2.711373e-41   0.000000e+00   0.000000e+00
      888000   8.879990e-06   8.218176e-01   8.412095e+00   3.124616e+01   8.128643e+04  -1.489863e+05   1.165598e+06  -1.938607e+00  -1.057697e+00  -8.205795e-24   1.177889e+06   1.629818e-41   0.000000e+00   0.000000e+00
      896000   8.959990e-06   8.283205e-01   8.400176e+00   3.133941e+01   8.128643e+04  -1.489863e+05   1.165598e+06  -2.658147e+00  -1.450277e+00  -3.580682e-22   1.177889e+06   3.064337e-41   0.000000e+00   0.000000e+00
      904000   9.039990e-06   8.348234e-01   8.388257e+00   3.143266e+01   8.128643e+04  -1.489863e+05   1.165598e+06  -6.099562e-01  -3.327901e-01  -1.187600e-22   1.177889e+06   1.613223e-42   0.000000e+00   0.000000e+00
      912000   9.119990e-06   8.413263e-01   8.376338e+00   3.152590e+01   8.128643e+04  -1.489863e+05   1.165598e+06  -8.646658e-01  -4.717589e-01  -8.986099e-23   1.177889e+06   3.242172e-42   0.000000e+00   0.000000e+00
      920000   9.199990e-06   8.478292e-01   8.364419e+00   3.161915e+01   8.128643e+04  -1.489863e+05   1.165598e+06  -1.315673e+00  -7.178269e-01   1.982218e-22   1.177889e+06   7.506387e-42   0.000000e+00   0.000000e+00
      928000   9.279990e-06   8.543321e-01   8.352500e+00   3.171240e+01   8.128643e+04  -1.489863e+05   1.165598e+06  -1.403931e+00  -7.659800e-01  -2.019101e-22   1.177889e+06   8.547550e-42   0.000000e+00   0.000000e+00
      936000   9.359990e-06   8.608351e-01   8.340581e+00   3.180565e+01   8.128643e+04  -1.489863e+05   1.165598e+06  -2.021390e+00  -1.102864e+00   8.349550e-23   1.177889e+06   1.771930e-41   0.000000e+00   0.000000e+00
      944000   9.439990e-06   8.673380e-01   8.328662e+00   3.189889e+01   8.128643e+04  -1.489863e+05   1.165598e+06  -2.418330e+00  -1.319433e+00   2.540275e-22   1.177889e+06   2.536187e-41   0.000000e+00   0.000000e+00
      952000   9.519990e-06   8.738409e-01   8.316743e+00   3.199214e+01   8.128643e+04  -1.489863e+05   1.165598e+06  -2.168745e+00  -1.183260e+00  -2.620139e-23   1.177889e+06   2.039734e-41   0.000000e+00   0.000000e+00
      960000   9.599990e-06   8.803438e-01   8.304825e+00   3.208539e+01   8.128643e+04  -1.489863e+05   1.165598e+06  -3.124047e+00  -1.704470e+00   1.361918e-22   1.177889e+06   4.232424e-41   0.000000e+00   0.000000e+00
      968000   9.679990e-06   8.868467e-01   8.292906e+00   3.217864e+01   8.128643e+04  -1.489863e+05   1.165598e+06  -5.276758e+00  -2.878982e+00   1.638684e-21   1.177889e+06   1.207616e-40   0.000000e+00   0.000000e+00
      976000   9.759990e-06   8.933496e-01   8.280987e+00   3.227189e+01   8.128643e+04  -1.489863e+05   1.165598e+06  -8.036752e+00  -4.384826e+00  -5.087300e-22   1.177889e+06   2.801025e-40   0.000000e+00   0.000000e+00
      984000   9.839990e-06   8.998525e-01   8.269068e+00   3.236513e+01   8.128643e+04  -1.489863e+05   1.165598e+06  -5.052009e+00  -2.756360e+00   6.904608e-22   1.177889e+06   1.106940e-40   0.000000e+00   0.000000e+00
      992000   9.919990e-06   9.063555e-01   8.257149e+00   3.245838e+01   8.128643e+04  -1.489863e+05   1.165598e+06  -3.269494e+00  -1.783826e+00  -9.278433e-22   1.177889e+06   4.635918e-41   0.000000e+00   0.000000e+00
     1000000   9.999990e-06   9.128584e-01   8.245230e+00   3.255163e+01   8.128643e+04  -1.489863e+05   1.165598e+06  -2.895440e+00  -1.579743e+00   8.412244e-22   1.177889e+06   3.635678e-41   0.000000e+00   0.000000e+00
     1008000   1.007999e-05   9.193613e-01   8.233311e+00   3.264488e+01   8.128643e+04  -1.489863e+05   1.165598e+06  -3.510593e+00  -1.915368e+00   5.678888e-24   1.177889e+06   5.344843e-41   0.000000e+00   0.000000e+00
     1016000   1.015999e-05   9.258642e-01   8.221392e+00   3.273813e+01   8.128643e+04  -1.489863e+05   1.165598e+06  -2.861011e+00  -1.560958e+00   2.877728e-22   1.177889e+06   3.549728e-41   0.000000e+00   0.000000e+00
     1024000   1.023999e-05   9.323671e-01   8.209473e+00   3.283137e+01   8.128643e+04  -1.489863e+05   1.165598e+06  -3.751691e+00  -2.046910e+00  -2.102992e-22   1.177889e+06   6.104186e-41   0.000000e+00   0.000000e+00
     1032000   1.031999e-05   9.388700e-01   8.197554e+00   3.292462e+01   8.128643e+04  -1.489863e+05   1.165598e+06  -2.203288e+00  -1.202107e+00  -7.788233e-23   1.177889e+06   2.105675e-41   0.000000e+00   0.000000e+00
     1040000   1.039999e-05   9.453729e-01   8.185636e+00   3.301787e+01   8.128643e+04  -1.489863e+05   1.165598e+06  -3.023670e+00  -1.649705e+00  -4.921795e-22   1.177889e+06   3.964466e-41   0.000000e+00   0.000000e+00
     1048000   1.047999e-05   9.518759e-01   8.173717e+00   3.311112e+01   8.128643e+04  -1.489863e+05   1.165598e+06  -2.497927e+00  -1.362861e+00   4.937156e-22   1.177889e+06   2.706441e-41   0.000000e+00   0.000000e+00
     1056000   1.055999e-05   9.583788e-01   8.161798e+00   3.320436e+01   8.128643e+04  -1.489863e+05   1.165598e+06  -2.335164e+00  -1.274058e+00  -2.868015e-22   1.177889e+06   2.364478e-41   0.000000e+00   0.000000e+00
     1064000   1.063999e-05   9.648817e-01   8.149879e+00   3.329761e+01   8.128643e+04  -1.489863e+05   1.165598e+06  -3.780094e+00  -2.062407e+00  -1.761044e-22   1.177889e+06   6.196287e-41   0.000000e+00   0.000000e+00
     1072000   1.071999e-05   9.713846e-01   8.137960e+00   3.339086e+01   8.128643e+04  -1.489863e+05   1.165598e+06  -1.150701e+00  -6.278185e-01   5.154519e-23   1.177889e+06   5.744435e-42   0.000000e+00   0.000000e+00
     1080000   1.079999e-05   9.778875e-01   8.126041e+00   3.348411e+01   8.128643e+04  -1.489863e+05   1.165598e+06  -3.091588e+00  -1.686760e+00   6.043922e-22   1.177889e+06   4.144577e-41   0.000000e+00   0.000000e+00
     1088000   1.087999e-05   9.843904e-01   8.114122e+00   3.357736e+01   8.128643e+04  -1.489863e+05   1.165598e+06  -1.445339e+00  -7.885722e-01  -2.377566e-22   1.177889e+06   9.062134e-42   0.000000e+00   0.000000e+00
     1096000   1.095999e-05   9.908933e-01   8.102203e+00   3.367060e+01   8.128643e+04  -1.489863e+05   1.165598e+06  -2.403081e+00  -1.311113e+00  -6.235410e-22   1.177889e+06   2.504030e-41   0.000000e+00   0.000000e+00
     1104000   1.103999e-05   9.973963e-01   8.090284e+00   3.376385e+01   8.128643e+04  -1.489863e+05   1.165598e+06  -6.153040e+00  -3.357079e+00   1.311990e-21   1.177889e+06   1.641973e-40   0.000000e+00   0.000000e+00
     1112000   1.111999e-05   1.003899e+00   8.078365e+00   3.385710e+01   8.128643e+04  -1.489863e+05   1.165598e+06  -1.164989e+00  -6.356142e-01  -1.655145e-22   1.177889e+06   5.886072e-42   0.000000e+00   0.000000e+00
     1120000   1.119999e-05   1.010402e+00   8.066447e+00   3.395035e+01   8.128643e+04  -1.489863e+05   1.165598e+06  -3.248423e+00  -1.772329e+00  -4.148522e-22   1.177889e+06   4.576013e-41   0.000000e+00   0.000000e+00
     1128000   1.127999e-05   1.016905e+00   8.054528e+00   3.404359e+01   8.128643e+04  -1.489863e+05   1.165598e+06  -2.176425e+00  -1.187451e+00  -2.016387e-22   1.177889e+06   2.054295e-41   0.000000e+00   0.000000e+00
     1136000   1.135999e-05   1.023408e+00   8.042609e+00   3.413684e+01   8.128643e+04  -1.489863e+05   1.165598e+06  -3.464405e+00  -1.890168e+00   2.981195e-23   1.177889e+06   5.204766e-41   0.000000e+00   0.000000e+00
     1144000   1.143999e-05   1.029911e+00   8.030690e+00   3.423009e+01   8.128643e+04  -1.489863e+05   1.165598e+06  -3.187861e+00  -1.739287e+00   6.213280e-22   1.177889e+06   4.407292e-41   0.000000e+00   0.000000e+00
     1152000   1.151999e-05   1.036414e+00   8.018771e+00   3.432334e+01   8.128643e+04  -1.489863e+05   1.165598e+06  -3.680388e+00  -2.008008e+00   4.735417e-22   1.177889e+06   5.873979e-41   0.000000e+00   0.000000e+00
     1160000   1.159999e-05   1.042917e+00   8.006852e+00   3.441659e+01   8.128643e+04  -1.489863e+05   1.165598e+06  -4.199298e+00  -2.291123e+00  -5.682327e-22   1.177889e+06   7.647598e-41   0.000000e+00   0.000000e+00
     1168000   1.167999e-05   1.049420e+00   7.994933e+00   3.450983e+01   8.128643e+04  -1.489863e+05   1.165598e+06  -4.624062e+00  -2.522873e+00   7.052454e-22   1.177889e+06   9.274158e-41   0.000000e+00   0.000000e+00
     1176000   1.175999e-05   1.055922e+00   7.983014e+00   3.460308e+01   8.128643e+04  -1.489863e+05   1.165598e+06  -5.179627e+00  -2.825987e+00   5.391510e-22   1.177889e+06   1.163357e-40   0.000000e+00   0.000000e+00
     1184000   1.183999e-05   1.062425e+00   7.971095e+00   3.469633e+01   8.128643e+04  -1.489863e+05   1.165598e+06  -7.646179e+00  -4.171731e+00   4.198362e-22   1.177889e+06   2.535256e-40   0.000000e+00   0.000000e+00
     1192000   1.191999e-05   1.068928e+00   7.959176e+00   3.478958e+01   8.128643e+04  -1.489863e+05   1.165598e+06  -2.850617e+00  -1.555287e+00  -6.275097e-22   1.177889e+06   3.524861e-41   0.000000e+00   0.000000e+00
     1200000   1.199999e-05   1.075431e+00   7.947258e+00   3.488283e+01   8.128643e+04  -1.489863e+05   1.165598e+06  -6.755040e+00  -3.685528e+00   1.130063e-21   1.177889e+06   1.978718e-40   0.000000e+00   0.000000e+00
     1208000   1.207999e-05   1.081934e+00   7.935339e+00   3.497607e+01   8.128643e+04  -1.489863e+05   1.165598e+06  -3.609735e+00  -1.969460e+00  -1.096095e-22   1.177889e+06   5.651903e-41   0.000000e+00   0.000000e+00
     1216000   1.215999e-05   1.088437e+00   7.923420e+00   3.506932e+01   8.128643e+04  -1.489863e+05   1.165598e+06  -5.863901e+00  -3.199325e+00  -4.536503e-22   1.177889e+06   1.491061e-40   0.000000e+00   0.000000e+00
     1224000   1.223999e-05   1.094940e+00   7.911501e+00   3.516257e+01   8.128643e+04  -1.489863e+05   1.165598e+06  -4.368854e+00  -2.383633e+00  -1.686469e-22   1.177889e+06   8.278769e-41   0.000000e+00   0.000000e+00
     1232000   1.231999e-05   1.101443e+00   7.899582e+00   3.525582e+01   8.128643e+04  -1.489863e+05   1.165598e+06  -3.232602e+00  -1.763697e+00   9.428309e-22   1.177889e+06   4.531896e-41   0.000000e+00   0.000000e+00
     1240000   1.239999e-05   1.107946e+00   7.887663e+00   3.534906e+01   8.128643e+04  -1.489863e+05   1.165598e+06  -5.892824e+00  -3.215106e+00  -1.411177e-21   1.177889e+06   1.505988e-40   0.000000e+00   0.000000e+00
     1248000   1.247999e-05   1.114449e+00   7.875744e+00   3.544231e+01   8.128643e+04  -1.489863e+05   1.165598e+06  -2.976221e+00  -1.623817e+00   8.695170e-22   1.177889e+06   3.841551e-41   0.000000e+00   0.000000e+00
     1256000   1.255999e-05   1.120952e+00   7.863825e+00   3.553556e+01   8.128643e+04  -1.489863e+05   1.165598e+06  -4.970850e+00  -2.712080e+00   6.874547e-23   1.177889e+06   1.071611e-40   0.000000e+00   0.000000e+00
     1264000   1.263999e-05   1.127455e+00   7.851906e+00   3.562881e+01   8.128643e+04  -1.489863e+05   1.165598e+06  -2.719841e+00  -1.483937e+00  -3.504920e-22   1.177889e+06   3.208219e-41   0.000000e+00   0.000000e+00
     1272000   1.271999e-05   1.133957e+00   7.839987e+00   3.572206e+01   8.128643e+04  -1.489863e+05   1.165598e+06  -4.048877e+00  -2.209054e+00   9.778604e-22   1.177889e+06   7.109623e-41   0.000000e+00   0.000000e+00
     1280000   1.279999e-05   1.140460e+00   7.828069e+00   3.581530e+01   8.128643e+04  -1.489863e+05   1.165598e+06  -2.463461e+00  -1.344056e+00  -9.956494e-22   1.177889e+06   2.631899e-41   0.000000e+00   0.000000e+00
     1288000   1.287999e-05   1.146963e+00   7.816150e+00   3.590855e+01   8.128643e+04  -1.489863e+05   1.165598e+06  -3.126903e+00  -1.706028e+00  -4.075440e-22   1.177889e+06   4.240423e-41   0.000000e+00   0.000000e+00
     1296000   1.295999e-05   1.153466e+00   7.804231e+00   3.600180e+01   8.128643e+04  -1.489863e+05   1.165598e+06  -2.207081e+00  -1.204176e+00  -4.907407e-22   1.177889e+06   2.112591e-41   0.000000e+00   0.000000e+00
     1304000   1.303999e-05   1.159969e+00   7.792312e+00   3.609505e+01   8.128643e+04  -1.489863e+05   1.165598e+06  -1.042240e+01  -5.686430e+00  -3.682787e-21   1.177889e+06   4.710494e-40   0.000000e+00   0.000000e+00
     1312000   1.311999e-05   1.166472e+00   7.780393e+00   3.618829e+01   8.128643e+04  -1.489863e+05   1.165598e+06   5.841137e-01   3.186905e-01   1.370713e-22   1.177889e+06   1.477525e-42   0.000000e+00   0.000000e+00
     1320000   1.319999e-05   1.172975e+00   7.768474e+00   3.628154e+01   8.128643e+04  -1.489863e+05   1.165598e+06  -1.014597e+01  -5.535608e+00  -1.192003e-21   1.177889e+06   4.463924e-40   0.000000e+00   0.000000e+00
     1328000   1.327999e-05   1.179478e+00   7.756555e+00   3.637479e+01   8.128643e+04  -1.489863e+05   1.165598e+06  -7.488734e-02  -4.085829e-02  -1.640999e-25   1.177889e+06   2.459603e-44   0.000000e+00   0.000000e+00
     1336000   1.335999e-05   1.185981e+00   7.744636e+00   3.646804e+01   8.128643e+04  -1.489863e+05   1.165598e+06  -9.869536e+00  -5.384787e+00   1.299005e-21   1.177889e+06   4.223982e-40   0.000000e+00   0.000000e+00
     1344000   1.343999e-05   1.192484e+00   7.732717e+00   3.656129e+01   8.128643e+04  -1.489863e+05   1.165598e+06  -7.338884e-01  -4.004071e-01  -3.018863e-22   1.177889e+06   2.338445e-42   0.000000e+00   0.000000e+00
     1352000   1.351999e-05   1.198987e+00   7.720798e+00   3.665453e+01   8.128643e+04  -1.489863e+05   1.165598e+06  -9.593102e+00  -5.233965e+00  -8.040359e-22   1.177889e+06   3.990667e-40   0.000000e+00   0.000000e+00
     1360000   1.359999e-05   1.205490e+00   7.708880e+00   3.674778e+01   8.128643e+04  -1.489863e+05   1.165598e+06  -4.824051e+00  -2.631987e+00   2.090885e-22   1.177889e+06   1.009053e-40   0.000000e+00   0.000000e+00
     1368000   1.367999e-05   1.211992e+00   7.696961e+00   3.684103e+01   8.128643e+04  -1.489863e+05   1.165598e+06  -9.625667e+00  -5.251733e+00  -7.865350e-22   1.177889e+06   4.017613e-40   0.000000e+00   0.000000e+00
     1376000   1.375999e-05   1.218495e+00   7.685042e+00   3.693428e+01   8.128643e+04  -1.489863e+05   1.165598e+06  -8.402864e-01  -4.584575e-01   5.794481e-23   1.177889e+06   3.067305e-42   0.000000e+00   0.000000e+00
     1384000   1.383999e-05   1.224998e+00   7.673123e+00   3.702753e+01   8.128643e+04  -1.489863e+05   1.165598e+06  -7.729455e+00  -4.217166e+00  -1.227833e-21   1.177889e+06   2.590533e-40   0.000000e+00   0.000000e+00
     1392000   1.391999e-05   1.231501e+00   7.661204e+00   3.712077e+01   8.128643e+04  -1.489863e+05   1.165598e+06  -2.245687e+00  -1.225239e+00  -3.446593e-22   1.177889e+06   2.188472e-41   0.000000e+00   0.000000e+00
     1400000   1.399999e-05   1.238004e+00   7.649285e+00   3.721402e+01   8.128643e+04  -1.489863e+05   1.165598e+06  -5.833243e+00  -3.182599e+00   6.355315e-22   1.177889e+06   1.475322e-40   0.000000e+00   0.000000e+00
     1408000   1.407999e-05   1.244507e+00   7.637366e+00   3.730727e+01   8.128643e+04  -1.489863e+05   1.165598e+06  -3.651087e+00  -1.992021e+00  -3.428458e-23   1.177889e+06   5.783375e-41   0.000000e+00   0.000000e+00
     1416000   1.415999e-05   1.251010e+00   7.625447e+00   3.740052e+01   8.128643e+04  -1.489863e+05   1.165598e+06  -3.937032e+00  -2.148032e+00  -3.653761e-22   1.177889e+06   6.719787e-41   0.000000e+00   0.000000e+00
     1424000   1.423999e-05   1.257513e+00   7.613528e+00   3.749376e+01   8.128643e+04  -1.489863e+05   1.165598e+06  -9.379115e+00  -5.117214e+00   7.097432e-22   1.177889e+06   3.814420e-40   0.000000e+00   0.000000e+00
     1432000   1.431999e-05   1.264016e+00   7.601609e+00   3.758701e+01   8.128643e+04  -1.489863e+05   1.165598e+06   6.310012e-01   3.442722e-01  -2.842326e-22   1.177889e+06   1.722856e-42   0.000000e+00   0.000000e+00
     1440000   1.439999e-05   1.270519e+00   7.589690e+00   3.768026e+01   8.128643e+04  -1.489863e+05   1.165598e+06  -3.765852e-01  -2.054636e-01  -6.263569e-23   1.177889e+06   6.158341e-43   0.000000e+00   0.000000e+00
     1448000   1.447999e-05   1.277022e+00   7.577772e+00   3.777351e+01   8.128643e+04  -1.489863e+05   1.165598e+06  -1.055061e+01  -5.756380e+00   2.125965e-21   1.177889e+06   4.827340e-40   0.000000e+00   0.000000e+00
     1456000   1.455999e-05   1.283524e+00   7.565853e+00   3.786676e+01   8.128643e+04  -1.489863e+05   1.165598e+06  -1.069064e+00  -5.832781e-01  -8.096927e-23   1.177889e+06   4.958796e-42   0.000000e+00   0.000000e+00
     1464000   1.463999e-05   1.290027e+00   7.553934e+00   3.796000e+01   8.128643e+04  -1.489863e+05   1.165598e+06  -8.869971e+00  -4.839428e+00  -1.867763e-21   1.177889e+06   3.411883e-40   0.000000e+00   0.000000e+00
     1472000   1.471999e-05   1.296530e+00   7.542015e+00   3.805325e+01   8.128643e+04  -1.489863e+05   1.165598e+06  -1.761544e+00  -9.610926e-01   1.848387e-22   1.177889e+06   1.346097e-41   0.000000e+00   0.000000e+00
     1480000   1.479999e-05   1.303033e+00   7.530096e+00   3.814650e+01   8.128643e+04  -1.489863e+05   1.165598e+06  -3.592157e+00  -1.959869e+00  -7.966319e-22   1.177889e+06   5.596006e-41   0.000000e+00   0.000000e+00
     1488000   1.487999e-05   1.309536e+00   7.518177e+00   3.823975e+01   8.128643e+04  -1.489863e+05   1.165598e+06  -3.497740e+00  -1.908355e+00  -2.813343e-22   1.177889e+06   5.305645e-41   0.000000e+00   0.000000e+00
     1496000   1.495999e-05   1.316039e+00   7.506258e+00   3.833300e+01   8.128643e+04  -1.489863e+05   1.165598e+06  -4.045536e+00  -2.207231e+00  -1.247315e-21   1.177889e+06   7.097735e-41   0.000000e+00   0.000000e+00
     1504000   1.503999e-05   1.322542e+00   7.494339e+00   3.842624e+01   8.128643e+04  -1.489863e+05   1.165598e+06  -3.565493e+00  -1.945322e+00  -1.139271e-22   1.177889e+06   5.513123e-41   0.000000e+00   0.000000e+00
     1512000   1.511999e-05   1.329045e+00   7.482420e+00   3.851949e+01   8.128643e+04  -1.489863e+05   1.165598e+06  -3.134548e+00  -1.710199e+00   1.029387e-21   1.177889e+06   4.261149e-41   0.000000e+00   0.000000e+00
     1520000   1.519999e-05   1.335548e+00   7.470501e+00   3.861274e+01   8.128643e+04  -1.489863e+05   1.165598e+06  -3.720820e+00  -2.030067e+00  -8.735324e-22   1.177889e+06   6.003937e-41   0.000000e+00   0.000000e+00
     1528000   1.527999e-05   1.342051e+00   7.458583e+00   3.870599e+01   8.128643e+04  -1.489863e+05   1.165598e+06  -3.065024e+00  -1.672267e+00  -4.521102e-22   1.177889e+06   4.074224e-41   0.000000e+00   0.000000e+00
     1536000   1.535999e-05   1.348554e+00   7.446664e+00   3.879923e+01   8.128643e+04  -1.489863e+05   1.165598e+06  -2.801451e+00  -1.528462e+00  -5.900285e-22   1.177889e+06   3.403643e-41   0.000000e+00   0.000000e+00
     1544000   1.543999e-05   1.355057e+00   7.434745e+00   3.889248e+01   8.128643e+04  -1.489863e+05   1.165598e+06  -4.182621e+00  -2.282024e+00   5.412265e-22   1.177889e+06   7.586767e-41   0.000000e+00   0.000000e+00
     1552000   1.551999e-05   1.361559e+00   7.422826e+00   3.898573e+01   8.128643e+04  -1.489863e+05   1.165598e+06  -2.731927e+00  -1.490531e+00  -9.223509e-22   1.177889e+06   3.236805e-41   0.000000e+00   0.000000e+00
     1560000   1.559999e-05   1.368062e+00   7.410907e+00   3.907898e+01   8.128643e+04  -1.489863e+05   1.165598e+06  -4.337947e+00  -2.366770e+00  -2.200936e-22   1.177889e+06   8.160722e-41   0.000000e+00   0.000000e+00
     1568000   1.567999e-05   1.374565e+00   7.398988e+00   3.917223e+01   8.128643e+04  -1.489863e+05   1.165598e+06  -1.041824e+01  -5.684156e+00  -4.466270e-22   1.177889e+06   4.707101e-40   0.000000e+00   0.000000e+00
     1576000   1.575999e-05   1.381068e+00   7.387069e+00   3.926547e+01   8.128643e+04  -1.489863e+05   1.165598e+06  -9.188213e+00  -5.013059e+00  -7.615967e-22   1.177889e+06   3.661295e-40   0.000000e+00   0.000000e+00
     1584000   1.583999e-05   1.387571e+00   7.375150e+00   3.935872e+01   8.128643e+04  -1.489863e+05   1.165598e+06  -1.017851e+01  -5.553365e+00  -7.865579e-22   1.177889e+06   4.492974e-40   0.000000e+00   0.000000e+00
     1592000   1.591999e-05   1.394074e+00   7.363231e+00   3.945197e+01   8.128643e+04  -1.489863e+05   1.165598e+06  -9.115179e+00  -4.973212e+00  -3.224617e-22   1.177889e+06   3.603322e-40   0.000000e+00   0.000000e+00
     1600000   1.599999e-05   1.400577e+00   7.351312e+00   3.954522e+01   8.128643e+04  -1.489863e+05   1.165598e+06  -4.546051e+00  -2.480311e+00  -1.291644e-21   1.177889e+06   8.962482e-41   0.000000e+00   0.000000e+00
     1608000   1.607999e-05   1.407080e+00   7.339394e+00   3.963846e+01   8.128643e+04  -1.489863e+05   1.165598e+06  -5.834078e+00  -3.183054e+00  -1.637952e-21   1.177889e+06   1.476063e-40   0.000000e+00   0.000000e+00
     1616000   1.615999e-05   1.413583e+00   7.327475e+00   3.973171e+01   8.128643e+04  -1.489863e+05   1.165598e+06  -5.652236e+00  -3.083841e+00   2.996592e-21   1.177889e+06   1.385485e-40   0.000000e+00   0.000000e+00
     1624000   1.623999e-05   1.420086e+00   7.315556e+00   3.982496e+01   8.128643e+04  -1.489863e+05   1.165598e+06  -6.205975e+00  -3.385960e+00   5.287950e-23   1.177889e+06   1.670247e-40   0.000000e+00   0.000000e+00
     1632000   1.631999e-05   1.426589e+00   7.303637e+00   3.991821e+01   8.128643e+04  -1.489863e+05   1.165598e+06  -6.758420e+00  -3.687372e+00  -1.283110e-21   1.177889e+06   1.980855e-40   0.000000e+00   0.000000e+00
     1640000   1.639999e-05   1.433091e+00   7.291718e+00   4.001146e+01   8.128643e+04  -1.489863e+05   1.165598e+06  -9.409142e+00  -5.133597e+00   7.953679e-23   1.177889e+06   3.839403e-40   0.000000e+00   0.000000e+00
     1648000   1.647999e-05   1.439594e+00   7.279799e+00   4.010470e+01   8.128643e+04  -1.489863e+05   1.165598e+06  -8.231594e+00  -4.491131e+00   6.644004e-22   1.177889e+06   2.938663e-40   0.000000e+00   0.000000e+00
     1656000   1.655999e-05   1.446097e+00   7.267880e+00   4.019795e+01   8.128643e+04  -1.489863e+05   1.165598e+06  -7.157421e+00  -3.905066e+00   1.740794e-22   1.177889e+06   2.221761e-40   0.000000e+00   0.000000e+00
     1664000   1.663999e-05   1.452600e+00   7.255961e+00   4.029120e+01   8.128643e+04  -1.489863e+05   1.165598e+06  -9.071712e+00  -4.949497e+00  -1.648431e-21   1.177889e+06   3.568963e-40   0.000000e+00   0.000000e+00
     1672000   1.671999e-05   1.459103e+00   7.244042e+00   4.038445e+01   8.128643e+04  -1.489863e+05   1.165598e+06  -6.415883e+00  -3.500485e+00  -9.488218e-22   1.177889e+06   1.785249e-40   0.000000e+00   0.000000e+00
     1680000   1.679999e-05   1.465606e+00   7.232123e+00   4.047770e+01   8.128643e+04  -1.489863e+05   1.165598e+06  -8.377824e+00  -4.570913e+00   3.193102e-22   1.177889e+06   3.043867e-40   0.000000e+00   0.000000e+00
     1688000   1.687999e-05   1.472109e+00   7.220205e+00   4.057094e+01   8.128643e+04  -1.489863e+05   1.165598e+06  -5.674344e+00  -3.095904e+00   1.380313e-21   1.177889e+06   1.396432e-40   0.000000e+00   0.000000e+00
     1696000   1.695999e-05   1.478612e+00   7.208286e+00   4.066419e+01   8.128643e+04  -1.489863e+05   1.165598e+06  -7.683935e+00  -4.192330e+00  -1.151064e-21   1.177889e+06   2.560531e-40   0.000000e+00   0.000000e+00
     1704000   1.703999e-05   1.485115e+00   7.196367e+00   4.075744e+01   8.128643e+04  -1.489863e+05   1.165598e+06  -1.096622e+00  -5.983135e-01  -6.270213e-24   1.177889e+06   5.216557e-42   0.000000e+00   0.000000e+00
     1712000   1.711999e-05   1.491618e+00   7.184448e+00   4.085069e+01   8.128643e+04  -1.489863e+05   1.165598e+06  -1.032973e+00  -5.635869e-01  -4.700173e-22   1.177889e+06   4.626210e-42   0.000000e+00   0.000000e+00
     1720000   1.719999e-05   1.498121e+00   7.172529e+00   4.094393e+01   8.128643e+04  -1.489863e+05   1.165598e+06  -1.492554e+00  -8.143328e-01  -1.332847e-22   1.177889e+06   9.662804e-42   0.000000e+00   0.000000e+00
     1728000   1.727999e-05   1.504624e+00   7.160610e+00   4.103718e+01   8.128643e+04  -1.489863e+05   1.165598e+06  -6.293512e+00  -3.433720e+00   2.867072e-22   1.177889e+06   1.717633e-40   0.000000e+00   0.000000e+00
     1736000   1.735999e-05   1.511126e+00   7.148691e+00   4.113043e+01   8.128643e+04  -1.489863e+05   1.165598e+06  -3.999150e+00  -2.181923e+00  -4.013662e-22   1.177889e+06   6.936856e-41   0.000000e+00   0.000000e+00
     1744000   1.743999e-05   1.517629e+00   7.136772e+00   4.122368e+01   8.128643e+04  -1.489863e+05   1.165598e+06  -4.992657e+00  -2.723977e+00  -8.252695e-22   1.177889e+06   1.080940e-40   0.000000e+00   0.000000e+00
     1752000   1.751999e-05   1.524132e+00   7.124853e+00   4.131693e+01   8.128643e+04  -1.489863e+05   1.165598e+06  -3.658572e+00  -1.996105e+00   2.830462e-23   1.177889e+06   5.805719e-41   0.000000e+00   0.000000e+00
     1760000   1.759999e-05   1.530635e+00   7.112934e+00   4.141017e+01   8.128643e+04  -1.489863e+05   1.165598e+06  -3.691802e+00  -2.014235e+00  -2.082012e-22   1.177889e+06   5.910229e-41   0.000000e+00   0.000000e+00
     1768000   1.767999e-05   1.537138e+00   7.101016e+00   4.150342e+01   8.128643e+04  -1.489863e+05   1.165598e+06  -3.317994e+00  -1.810287e+00  -1.136773e-22   1.177889e+06   4.775189e-41   0.000000e+00   0.000000e+00
     1776000   1.775999e-05   1.543641e+00   7.089097e+00   4.159667e+01   8.128643e+04  -1.489863e+05   1.165598e+06  -3.514971e+00  -1.917757e+00  -1.525775e-22   1.177889e+06   5.357960e-41   0.000000e+00   0.000000e+00
     1784000   1.783999e-05   1.550144e+00   7.077178e+00   4.168992e+01   8.128643e+04  -1.489863e+05   1.165598e+06  -9.139481e-01  -4.986471e-01  -1.374230e-23   1.177889e+06   3.622423e-42   0.000000e+00   0.000000e+00
     1792000   1.791999e-05   1.556647e+00   7.065259e+00   4.178317e+01   8.128643e+04  -1.489863e+05   1.165598e+06  -3.801014e+00  -2.073821e+00   7.716157e-22   1.177889e+06   6.265499e-41   0.000000e+00   0.000000e+00
     1800000   1.799999e-05   1.563150e+00   7.053340e+00   4.187641e+01   8.128643e+04  -1.489863e+05   1.165598e+06  -1.594675e+00  -8.700495e-01   5.581878e-22   1.177889e+06   1.102822e-41   0.000000e+00   0.000000e+00
     1808000   1.807999e-05   1.569653e+00   7.041421e+00   4.196966e+01   8.128643e+04  -1.489863e+05   1.165598e+06  -4.087056e+00  -2.229885e+00   5.459942e-22   1.177889e+06   7.244006e-41   0.000000e+00   0.000000e+00
     1816000   1.815999e-05   1.576156e+00   7.029502e+00   4.206291e+01   8.128643e+04  -1.489863e+05   1.165598e+06  -2.275402e+00  -1.241452e+00   5.534835e-22   1.177889e+06   2.245325e-41   0.000000e+00   0.000000e+00
     1824000   1.823999e-05   1.582659e+00   7.017583e+00   4.215616e+01   8.128643e+04  -1.489863e+05   1.165598e+06  -4.373099e+00  -2.385948e+00  -2.561347e-22   1.177889e+06   8.293480e-41   0.000000e+00   0.000000e+00
     1832000   1.831999e-05   1.589161e+00   7.005664e+00   4.224940e+01   8.128643e+04  -1.489863e+05   1.165598e+06  -2.956129e+00  -1.612854e+00  -2.756445e-23   1.177889e+06   3.789752e-41   0.000000e+00   0.000000e+00
     1840000   1.839999e-05   1.595664e+00   6.993745e+00   4.234265e+01   8.128643e+04  -1.489863e+05   1.165598e+06  -6.302134e+00  -3.438424e+00  -1.189941e-21   1.177889e+06   1.722382e-40   0.000000e+00   0.000000e+00
     1848000   1.847999e-05   1.602167e+00   6.981827e+00   4.243590e+01   8.128643e+04  -1.489863e+05   1.165598e+06  -3.039069e+00  -1.658106e+00  -3.053168e-23   1.177889e+06   4.005801e-41   0.000000e+00   0.000000e+00
     1856000   1.855999e-05   1.608670e+00   6.969908e+00   4.252915e+01   8.128643e+04  -1.489863e+05   1.165598e+06  -4.853816e+00  -2.648226e+00   3.401799e-22   1.177889e+06   1.021652e-40   0.000000e+00   0.000000e+00
     1864000   1.863999e-05   1.615173e+00   6.957989e+00   4.262240e+01   8.128643e+04  -1.489863e+05   1.165598e+06  -3.840102e+00  -2.095147e+00   6.153821e-22   1.177889e+06   6.395660e-41   0.000000e+00   0.000000e+00
     1872000   1.871999e-05   1.621676e+00   6.946070e+00   4.271564e+01   8.128643e+04  -1.489863e+05   1.165598e+06  -4.587239e+00  -2.502783e+00  -1.031850e-22   1.177889e+06   9.125095e-41   0.000000e+00   0.000000e+00
     1880000   1.879999e-05   1.628179e+00   6.934151e+00   4.280889e+01   8.128643e+04  -1.489863e+05   1.165598e+06  -4.641135e+00  -2.532188e+00  -4.641370e-22   1.177889e+06   9.342063e-41   0.000000e+00   0.000000e+00
     1888000   1.887999e-05   1.634682e+00   6.922232e+00   4.290214e+01   8.128643e+04  -1.489863e+05   1.165598e+06  -4.320662e+00  -2.357339e+00   2.790943e-23   1.177889e+06   8.095303e-41   0.000000e+00   0.000000e+00
     1896000   1.895999e-05   1.641185e+00   6.910313e+00   4.299539e+01   8.128643e+04  -1.489863e+05   1.165598e+06  -5.721576e+00  -3.121673e+00   1.878777e-21   1.177889e+06   1.419622e-40   0.000000e+00   0.000000e+00
     1904000   1.903999e-05   1.647688e+00   6.898394e+00   4.308863e+01   8.128643e+04  -1.489863e+05   1.165598e+06  -7.354284e+00  -4.012474e+00  -1.278296e-21   1.177889e+06   2.345531e-40   0.000000e+00   0.000000e+00
     1912000   1.911999e-05   1.654191e+00   6.886475e+00   4.318188e+01   8.128643e+04  -1.489863e+05   1.165598e+06  -4.067966e+00  -2.219469e+00   2.324293e-22   1.177889e+06   7.177076e-41   0.000000e+00   0.000000e+00
     1920000   1.919999e-05   1.660693e+00   6.874556e+00   4.327513e+01   8.128643e+04  -1.489863e+05   1.165598e+06  -6.521862e+00  -3.558307e+00   9.438442e-24   1.177889e+06   1.844602e-40   0.000000e+00   0.000000e+00
     1928000   1.927999e-05   1.667196e+00   6.862637e+00   4.336838e+01   8.128643e+04  -1.489863e+05   1.165598e+06  -4.029667e+00  -2.198573e+00  -7.025735e-22   1.177889e+06   7.042575e-41   0.000000e+00   0.000000e+00
     1936000   1.935999e-05   1.673699e+00   6.850719e+00   4.346163e+01   8.128643e+04  -1.489863e+05   1.165598e+06  -5.689440e+00  -3.104140e+00   1.519493e-22   1.177889e+06   1.403774e-40   0.000000e+00   0.000000e+00
     1944000   1.943999e-05   1.680202e+00   6.838800e+00   4.355487e+01   8.128643e+04  -1.489863e+05   1.165598e+06  -3.991368e+00  -2.177678e+00  -1.062852e-21   1.177889e+06   6.909346e-41   0.000000e+00   0.000000e+00
     1952000   1.951999e-05   1.686705e+00   6.826881e+00   4.364812e+01   8.128643e+04  -1.489863e+05   1.165598e+06  -4.857018e+00  -2.649973e+00  -1.423456e-21   1.177889e+06   1.023048e-40   0.000000e+00   0.000000e+00
     1960000   1.959999e-05   1.693208e+00   6.814962e+00   4.374137e+01   8.128643e+04  -1.489863e+05   1.165598e+06  -3.953069e+00  -2.156782e+00  -2.729704e-22   1.177889e+06   6.777389e-41   0.000000e+00   0.000000e+00
     1968000   1.967999e-05   1.699711e+00   6.803043e+00   4.383462e+01   8.128643e+04  -1.489863e+05   1.165598e+06  -4.024595e+00  -2.195806e+00   1.024850e-21   1.177889e+06   7.024229e-41   0.000000e+00   0.000000e+00
     1976000   1.975999e-05   1.706214e+00   6.791124e+00   4.392787e+01   8.128643e+04  -1.489863e+05   1.165598e+06  -3.987342e+00  -2.175481e+00  -3.031226e-22   1.177889e+06   6.895334e-41   0.000000e+00   0.000000e+00
     1984000   1.983999e-05   1.712717e+00   6.779205e+00   4.402111e+01   8.128643e+04  -1.489863e+05   1.165598e+06  -3.824730e+00  -2.086760e+00   7.215562e-22   1.177889e+06   6.343776e-41   0.000000e+00   0.000000e+00
     1992000   1.991999e-05   1.719220e+00   6.767286e+00   4.411436e+01   8.128643e+04  -1.489863e+05   1.165598e+06  -4.048081e+00  -2.208620e+00  -6.339584e-22   1.177889e+06   7.107003e-41   0.000000e+00   0.000000e+00
     2000000   1.999999e-05   1.725723e+00   6.755367e+00   4.420761e+01   8.128643e+04  -1.489863e+05   1.165598e+06  -3.764459e+00  -2.053876e+00   2.526924e-22   1.177889e+06   6.145412e-41   0.000000e+00   0.000000e+00
     2008000   2.007999e-05   1.732226e+00   6.743448e+00   4.430086e+01   8.128643e+04  -1.489863e+05   1.165598e+06  -4.108821e+00  -2.241759e+00  -3.906245e-22   1.177889e+06   7.321873e-41   0.000000e+00   0.000000e+00
     2016000   2.015999e-05   1.738728e+00   6.731530e+00   4.439410e+01   8.128643e+04  -1.489863e+05   1.165598e+06  -3.351438e+00  -1.828534e+00  -2.420518e-22   1.177889e+06   4.871410e-41   0.000000e+00   0.000000e+00
     2024000   2.023999e-05   1.745231e+00   6.719611e+00   4.448735e+01   8.128643e+04  -1.489863e+05   1.165598e+06  -4.461805e+00  -2.434346e+00   3.836360e-22   1.177889e+06   8.633173e-41   0.000000e+00   0.000000e+00
     2032000   2.031999e-05   1.751734e+00   6.707692e+00   4.458060e+01   8.128643e+04  -1.489863e+05   1.165598e+06  -3.412177e+00  -1.861673e+00  -5.720265e-22   1.177889e+06   5.049578e-41   0.000000e+00   0.000000e+00
     2040000   2.039999e-05   1.758237e+00   6.695773e+00   4.467385e+01   8.128643e+04  -1.489863e+05   1.165598e+06  -2.717137e+00  -1.482461e+00   5.669415e-22   1.177889e+06   3.202492e-41   0.000000e+00   0.000000e+00
     2048000   2.047999e-05   1.764740e+00   6.683854e+00   4.476710e+01   8.128643e+04  -1.489863e+05   1.165598e+06  -1.027232e+01  -5.604547e+00  -2.711242e-21   1.177889e+06   4.575917e-40   0.000000e+00   0.000000e+00
     2056000   2.055999e-05   1.771243e+00   6.671935e+00   4.486034e+01   8.128643e+04  -1.489863e+05   1.165598e+06  -3.296597e+00  -1.798613e+00  -1.927871e-22   1.177889e+06   4.713891e-41   0.000000e+00   0.000000e+00
     2064000   2.063999e-05   1.777746e+00   6.660016e+00   4.495359e+01   8.128643e+04  -1.489863e+05   1.165598e+06  -9.964671e+00  -5.436692e+00  -7.242455e-23   1.177889e+06   4.305918e-40   0.000000e+00   0.000000e+00
     2072000   2.071999e-05   1.784249e+00   6.648097e+00   4.504684e+01   8.128643e+04  -1.489863e+05   1.165598e+06  -3.876057e+00  -2.114764e+00   1.926555e-22   1.177889e+06   6.516525e-41   0.000000e+00   0.000000e+00
     2080000   2.079999e-05   1.790752e+00   6.636178e+00   4.514009e+01   8.128643e+04  -1.489863e+05   1.165598e+06  -9.657018e+00  -5.268837e+00   1.417128e-21   1.177889e+06   4.044129e-40   0.000000e+00   0.000000e+00
     2088000   2.087999e-05   1.797255e+00   6.624259e+00   4.523333e+01   8.128643e+04  -1.489863e+05   1.165598e+06  -4.455517e+00  -2.430915e+00   5.705974e-22   1.177889e+06   8.610395e-41   0.000000e+00   0.000000e+00
     2096000   2.095999e-05   1.803758e+00   6.612341e+00   4.532658e+01   8.128643e+04  -1.489863e+05   1.165598e+06  -6.559099e+00  -3.578623e+00   4.125088e-23   1.177889e+06   1.865914e-40   0.000000e+00   0.000000e+00
     2104000   2.103999e-05   1.810261e+00   6.600422e+00   4.541983e+01   8.128643e+04  -1.489863e+05   1.165598e+06  -5.772554e+00  -3.149487e+00   1.189340e-21   1.177889e+06   1.444965e-40   0.000000e+00   0.000000e+00
     2112000   2.111999e-05   1.816763e+00   6.588503e+00   4.551308e+01   8.128643e+04  -1.489863e+05   1.165598e+06  -7.651871e+00  -4.174836e+00  -6.138960e-22   1.177889e+06   2.539252e-40   0.000000e+00   0.000000e+00
     2120000   2.119999e-05   1.823266e+00   6.576584e+00   4.560633e+01   8.128643e+04  -1.489863e+05   1.165598e+06  -5.255969e+00  -2.867640e+00   3.965212e-22   1.177889e+06   1.198071e-40   0.000000e+00   0.000000e+00
     2128000   2.127999e-05   1.829769e+00   6.564665e+00   4.569957e+01   8.128643e+04  -1.489863e+05   1.165598e+06  -4.819086e+00  -2.629278e+00  -7.284621e-23   1.177889e+06   1.007180e-40   0.000000e+00   0.000000e+00
     2136000   2.135999e-05   1.836272e+00   6.552746e+00   4.579282e+01   8.128643e+04  -1.489863e+05   1.165598e+06  -6.436531e+00  -3.511751e+00   2.060463e-21   1.177889e+06   1.796697e-40   0.000000e+00   0.000000e+00
     2144000   2.143999e-05   1.842775e+00   6.540827e+00   4.588607e+01   8.128643e+04  -1.489863e+05   1.165598e+06  -4.572208e+00  -2.494582e+00   1.019791e-21   1.177889e+06   9.066299e-41   0.000000e+00   0.000000e+00
     2152000   2.151999e-05   1.849278e+00   6.528908e+00   4.597932e+01   8.128643e+04  -1.489863e+05   1.165598e+06  -5.417343e+00  -2.955684e+00  -7.905793e-23   1.177889e+06   1.272754e-40   0.000000e+00   0.000000e+00
     2160000   2.159999e-05   1.855781e+00   6.516989e+00   4.607257e+01   8.128643e+04  -1.489863e+05   1.165598e+06  -4.325329e+00  -2.359885e+00   3.913201e-22   1.177889e+06   8.113663e-41   0.000000e+00   0.000000e+00
     2168000   2.167999e-05   1.862284e+00   6.505070e+00   4.616581e+01   8.128643e+04  -1.489863e+05   1.165598e+06  -4.398154e+00  -2.399618e+00   6.580517e-22   1.177889e+06   8.389063e-41   0.000000e+00   0.000000e+00
     2176000   2.175999e-05   1.868787e+00   6.493152e+00   4.625906e+01   8.128643e+04  -1.489863e+05   1.165598e+06  -3.883968e+00  -2.119080e+00  -3.746814e-22   1.177889e+06   6.542070e-41   0.000000e+00   0.000000e+00
     2184000   2.183999e-05   1.875290e+00   6.481233e+00   4.635231e+01   8.128643e+04  -1.489863e+05   1.165598e+06  -4.585494e+00  -2.501831e+00  -1.141783e-21   1.177889e+06   9.118745e-41   0.000000e+00   0.000000e+00
     2192000   2.191999e-05   1.881793e+00   6.469314e+00   4.644556e+01   8.128643e+04  -1.489863e+05   1.165598e+06  -4.117209e+00  -2.246336e+00   4.850284e-22   1.177889e+06   7.351399e-41   0.000000e+00   0.000000e+00
     2200000   2.199999e-05   1.888295e+00   6.457395e+00   4.653880e+01   8.128643e+04  -1.489863e+05   1.165598e+06  -5.054687e+00  -2.757821e+00  -7.315439e-22   1.177889e+06   1.108031e-40   0.000000e+00   0.000000e+00
     2208000   2.207999e-05   1.894798e+00   6.445476e+00   4.663205e+01   8.128643e+04  -1.489863e+05   1.165598e+06  -4.350451e+00  -2.373592e+00   1.946795e-22   1.177889e+06   8.207914e-41   0.000000e+00   0.000000e+00
     2216000   2.215999e-05   1.901301e+00   6.433557e+00   4.672530e+01   8.128643e+04  -1.489863e+05   1.165598e+06  -5.028931e+00  -2.743769e+00   8.820823e-22   1.177889e+06   1.096845e-40   0.000000e+00   0.000000e+00
     2224000   2.223999e-05   1.907804e+00   6.421638e+00   4.681855e+01   8.128643e+04  -1.489863e+05   1.165598e+06  -4.768288e+00  -2.601562e+00  -8.687223e-22   1.177889e+06   9.859877e-41   0.000000e+00   0.000000e+00
     2232000   2.231999e-05   1.914307e+00   6.409719e+00   4.691180e+01   8.128643e+04  -1.489863e+05   1.165598e+06  -4.962085e+00  -2.707297e+00   1.157100e-22   1.177889e+06   1.067880e-40   0.000000e+00   0.000000e+00
     2240000   2.239999e-05   1.920810e+00   6.397800e+00   4.700504e+01   8.128643e+04  -1.489863e+05   1.165598e+06  -5.016911e+00  -2.737210e+00  -6.922267e-22   1.177889e+06   1.091443e-40   0.000000e+00   0.000000e+00
     2248000   2.247999e-05   1.927313e+00   6.385881e+00   4.709829e+01   8.128643e+04  -1.489863e+05   1.165598e+06  -6.847374e+00  -3.735905e+00   9.382748e-22   1.177889e+06   2.033232e-40   0.000000e+00   0.000000e+00
     2256000   2.255999e-05   1.933816e+00   6.373963e+00   4.719154e+01   8.128643e+04  -1.489863e+05   1.165598e+06  -3.555661e+00  -1.939957e+00  -6.407063e-22   1.177889e+06   5.483639e-41   0.000000e+00   0.000000e+00
     2264000   2.263999e-05   1.940319e+00   6.362044e+00   4.728479e+01   8.128643e+04  -1.489863e+05   1.165598e+06  -6.482348e+00  -3.536748e+00   2.319432e-21   1.177889e+06   1.822224e-40   0.000000e+00   0.000000e+00
     2272000   2.271999e-05   1.946822e+00   6.350125e+00   4.737804e+01   8.128643e+04  -1.489863e+05   1.165598e+06  -3.623356e+00  -1.976891e+00  -3.147576e-22   1.177889e+06   5.694415e-41   0.000000e+00   0.000000e+00
     2280000   2.279999e-05   1.953325e+00   6.338206e+00   4.747128e+01   8.128643e+04  -1.489863e+05   1.165598e+06  -6.117322e+00  -3.337591e+00   2.567588e-22   1.177889e+06   1.622774e-40   0.000000e+00   0.000000e+00
     2288000   2.287999e-05   1.959828e+00   6.326287e+00   4.756453e+01   8.128643e+04  -1.489863e+05   1.165598e+06  -3.691051e+00  -2.013825e+00   1.131428e-23   1.177889e+06   5.909165e-41   0.000000e+00   0.000000e+00
     2296000   2.295999e-05   1.966330e+00   6.314368e+00   4.765778e+01   8.128643e+04  -1.489863e+05   1.165598e+06  -5.752295e+00  -3.138434e+00   1.641814e-21   1.177889e+06   1.434880e-40   0.000000e+00   0.000000e+00
     2304000   2.303999e-05   1.972833e+00   6.302449e+00   4.775103e+01   8.128643e+04  -1.489863e+05   1.165598e+06  -3.758746e+00  -2.050760e+00   3.374119e-22   1.177889e+06   6.127890e-41   0.000000e+00   0.000000e+00
     2312000   2.311999e-05   1.979336e+00   6.290530e+00   4.784427e+01   8.128643e+04  -1.489863e+05   1.165598e+06  -2.999064e-01  -1.636280e-01  -1.168342e-23   1.177889e+06   3.903806e-43   0.000000e+00   0.000000e+00
     2320000   2.319999e-05   1.985839e+00   6.278611e+00   4.793752e+01   8.128643e+04  -1.489863e+05   1.165598e+06  -8.163202e+00  -4.453817e+00  -3.004061e-21   1.177889e+06   2.889824e-40   0.000000e+00   0.000000e+00
     2328000   2.327999e-05   1.992342e+00   6.266692e+00   4.803077e+01   8.128643e+04  -1.489863e+05   1.165598e+06  -7.935990e-01  -4.329851e-01   1.682331e-22   1.177889e+06   2.732134e-42   0.000000e+00   0.000000e+00
     2336000   2.335999e-05   1.998845e+00   6.254773e+00   4.812402e+01   8.128643e+04  -1.489863e+05   1.165598e+06  -8.377163e+00  -4.570553e+00   5.062230e-22   1.177889e+06   3.043299e-40   0.000000e+00   0.000000e+00
     2344000   2.343999e-05   2.005348e+00   6.242855e+00   4.821727e+01   8.128643e+04  -1.489863e+05   1.165598e+06  -4.752782e+00  -2.593103e+00   1.287366e-21   1.177889e+06   9.794027e-41   0.000000e+00   0.000000e+00
     2352000   2.351999e-05   2.011851e+00   6.230936e+00   4.831051e+01   8.128643e+04  -1.489863e+05   1.165598e+06  -5.828059e+00  -3.179770e+00  -8.731329e-23   1.177889e+06   1.473339e-40   0.000000e+00   0.000000e+00
     2360000   2.359999e-05   2.018354e+00   6.219017e+00   4.840376e+01   8.128643e+04  -1.489863e+05   1.165598e+06  -3.584821e+00  -1.955866e+00   1.625915e-22   1.177889e+06   5.571434e-41   0.000000e+00   0.000000e+00
     2368000   2.367999e-05   2.024857e+00   6.207098e+00   4.849701e+01   8.128643e+04  -1.489863e+05   1.165598e+06  -8.062759e+00  -4.399015e+00   6.124915e-22   1.177889e+06   2.818869e-40   0.000000e+00   0.000000e+00
     2376000   2.375999e-05   2.031360e+00   6.195179e+00   4.859026e+01   8.128643e+04  -1.489863e+05   1.165598e+06  -1.082906e+01  -5.908299e+00  -2.928554e-21   1.177889e+06   5.085525e-40   0.000000e+00   0.000000e+00
     2384000   2.383999e-05   2.037863e+00   6.183260e+00   4.868350e+01   8.128643e+04  -1.489863e+05   1.165598e+06  -1.308138e+00  -7.137160e-01  -4.342079e-22   1.177889e+06   7.423298e-42   0.000000e+00   0.000000e+00
     2392000   2.391999e-05   2.044365e+00   6.171341e+00   4.877675e+01   8.128643e+04  -1.489863e+05   1.165598e+06  -1.005455e+01  -5.485728e+00  -3.497510e-21   1.177889e+06   4.384079e-40   0.000000e+00   0.000000e+00
     2400000   2.399999e-05   2.050868e+00   6.159422e+00   4.887000e+01   8.128643e+04  -1.489863e+05   1.165598e+06  -1.814416e+00  -9.899396e-01   1.119477e-22   1.177889e+06   1.428004e-41   0.000000e+00   0.000000e+00
     2408000   2.407999e-05   2.057371e+00   6.147503e+00   4.896325e+01   8.128643e+04  -1.489863e+05   1.165598e+06  -9.280035e+00  -5.063157e+00   1.680473e-21   1.177889e+06   3.734663e-40   0.000000e+00   0.000000e+00
     2416000   2.415999e-05   2.063874e+00   6.135584e+00   4.905650e+01   8.128643e+04  -1.489863e+05   1.165598e+06  -2.320694e+00  -1.266163e+00   3.686641e-22   1.177889e+06   2.335997e-41   0.000000e+00   0.000000e+00
     2424000   2.423999e-05   2.070377e+00   6.123666e+00   4.914974e+01   8.128643e+04  -1.489863e+05   1.165598e+06  -8.505523e+00  -4.640586e+00  -1.178093e-21   1.177889e+06   3.137277e-40   0.000000e+00   0.000000e+00
     2432000   2.431999e-05   2.076880e+00   6.111747e+00   4.924299e+01   8.128643e+04  -1.489863e+05   1.165598e+06  -2.826972e+00  -1.542387e+00   4.906586e-23   1.177889e+06   3.466309e-41   0.000000e+00   0.000000e+00
     2440000   2.439999e-05   2.083383e+00   6.099828e+00   4.933624e+01   8.128643e+04  -1.489863e+05   1.165598e+06  -3.670388e+00  -2.002552e+00  -3.020145e-22   1.177889e+06   5.841302e-41   0.000000e+00   0.000000e+00
     2448000   2.447999e-05   2.089886e+00   6.087909e+00   4.942949e+01   8.128643e+04  -1.489863e+05   1.165598e+06  -2.727508e+00  -1.488119e+00  -1.859521e-22   1.177889e+06   3.227093e-41   0.000000e+00   0.000000e+00
     2456000   2.455999e-05   2.096389e+00   6.075990e+00   4.952274e+01   8.128643e+04  -1.489863e+05   1.165598e+06  -3.126705e+00  -1.705920e+00  -1.614540e-22   1.177889e+06   4.238821e-41   0.000000e+00   0.000000e+00
     2464000   2.463999e-05   2.102892e+00   6.064071e+00   4.961598e+01   8.128682e+04  -1.489867e+05   1.165598e+06   1.002836e+07  -1.209771e+07  -2.245690e+06   1.177889e+06   8.414350e-28   0.000000e+00   0.000000e+00
     2472000   2.471999e-05   2.109395e+00   6.052152e+00   4.970923e+01   8.128921e+04  -1.489896e+05   1.165597e+06   9.140660e+07  -1.105749e+08  -2.050870e+07   1.177889e+06   7.017649e-26   0.000000e+00   0.000000e+00
     2480000   2.479999e-05   2.115898e+00   6.040232e+00   4.980248e+01   8.129925e+04  -1.490018e+05   1.165595e+06   1.302545e+08  -1.573752e+08  -2.920292e+07   1.177889e+06   1.423528e-25   0.000000e+00   0.000000e+00
     2488000   2.487999e-05   2.122402e+00   6.028312e+00   4.989573e+01   8.130499e+04  -1.490087e+05   1.165594e+06   1.325608e+07  -1.607876e+07  -2.980163e+06   1.177889e+06   1.484189e-27   0.000000e+00   0.000000e+00
     2496000   2.495999e-05   2.128907e+00   6.016391e+00   4.998897e+01   8.130503e+04  -1.490087e+05   1.165594e+06   0.000000e+00   0.000000e+00   0.000000e+00   1.177889e+06   0.000000e+00   0.000000e+00   0.000000e+00
