     timestep     time              x             y              z              vx             vy             vz             ax             ay             az         v_magnitude      ELoss        Electronic      Nuclear
           0   0.000000e+00   1.000000e-01   8.074132e+00   1.902889e+01   6.117803e+05  -3.446349e+05   9.457138e+05   0.000000e+00   0.000000e+00   0.000000e+00   1.177889e+06   0.000000e+00   0.000000e+00   0.000000e+00
        8000   7.999000e-08   1.489424e-01   8.046561e+00   1.910454e+01   6.117803e+05  -3.446349e+05   9.457138e+05   0.000000e+00   0.000000e+00   0.000000e+00   1.177889e+06   0.000000e+00   0.000000e+00   0.000000e+00
       16000   1.599900e-07   1.978848e-01   8.018990e+00   1.918020e+01   6.117803e+05  -3.446349e+05   9.457138e+05   0.000000e+00   0.000000e+00   0.000000e+00   1.177889e+06   0.000000e+00   0.000000e+00   0.000000e+00
       24000   2.399900e-07   2.468273e-01   7.991420e+00   1.925586e+01   6.117803e+05  -3.446349e+05   9.457138e+05   0.000000e+00   0.000000e+00   0.000000e+00   1.177889e+06   0.000000e+00   0.000000e+00   0.000000e+00
       32000   3.199900e-07   2.957697e-01   7.963849e+00   1.933151e+01   6.117803e+05  -3.446349e+05   9.457138e+05   0.000000e+00   0.000000e+00   0.000000e+00   1.177889e+06   0.000000e+00   0.000000e+00   0.000000e+00
       40000   3.999900e-07   3.447121e-01   7.936278e+00   1.940717e+01   6.117803e+05  -3.446349e+05   9.457138e+05   0.000000e+00   0.000000e+00   0.000000e+00   1.177889e+06   0.000000e+00   0.000000e+00   0.000000e+00
       48000   4.799900e-07   3.936545e-01   7.908707e+00   1.948283e+01   6.117803e+05  -3.446349e+05   9.457138e+05   0.000000e+00   0.000000e+00   0.000000e+00   1.177889e+06   0.000000e+00   0.000000e+00   0.000000e+00
       56000   5.599900e-07   4.425970e-01   7.881136e+00   1.955849e+01   6.117803e+05  -3.446349e+05   9.457138e+05   0.000000e+00   0.000000e+00   0.000000e+00   1.177889e+06   0.000000e+00   0.000000e+00   0.000000e+00
       64000   6.399900e-07   4.915394e-01   7.853566e+00   1.963414e+01   6.117793e+05  -3.446334e+05   9.457150e+05  -4.266412e+07   6.111724e+07   4.987132e+07   1.177889e+06   2.686874e-26   0.000000e+00   0.000000e+00
       72000   7.199900e-07   5.404816e-01   7.825995e+00   1.970980e+01   6.117767e+05  -3.446297e+05   9.457180e+05  -6.894583e+07   9.836302e+07   8.044499e+07   1.177889e+06   6.983441e-26   0.000000e+00   0.000000e+00
       80000   7.999900e-07   5.894235e-01   7.798425e+00   1.978546e+01   6.117696e+05  -3.446196e+05   9.457263e+05  -1.456279e+07   2.075732e+07   1.698425e+07   1.177889e+06   3.112288e-27   0.000000e+00   0.000000e+00
       88000   8.799900e-07   6.383648e-01   7.770856e+00   1.986112e+01   6.117632e+05  -3.446105e+05   9.457337e+05  -8.956060e+07   1.268987e+08   1.041736e+08   1.177889e+06   1.168950e-25   0.000000e+00   0.000000e+00
       96000   9.599900e-07   6.873057e-01   7.743287e+00   1.993678e+01   6.117597e+05  -3.446056e+05   9.457378e+05   1.527515e+07  -2.161672e+07  -1.775752e+07   1.177889e+06   3.391838e-27   0.000000e+00   0.000000e+00
      104000   1.039990e-06   7.362464e-01   7.715719e+00   2.001243e+01   6.117591e+05  -3.446047e+05   9.457386e+05  -8.722720e-01  -1.113528e+01  -3.493194e+00   1.177889e+06   4.579278e-40   0.000000e+00   0.000000e+00
      112000   1.119990e-06   7.851872e-01   7.688151e+00   2.008809e+01   6.117591e+05  -3.446047e+05   9.457386e+05   3.646056e+00   2.524568e+01   6.840443e+00   1.177889e+06   2.329938e-39   0.000000e+00   0.000000e+00
      120000   1.199990e-06   8.341279e-01   7.660582e+00   2.016375e+01   6.117591e+05  -3.446047e+05   9.457386e+05  -5.779409e+00  -1.352483e+01  -1.189669e+00   1.177889e+06   7.275319e-40   0.000000e+00   0.000000e+00
      128000   1.279990e-06   8.830686e-01   7.633014e+00   2.023941e+01   6.117591e+05  -3.446047e+05   9.457386e+05  -1.030575e+01  -1.829527e+01   2.550283e-20   1.177889e+06   1.473461e-39   0.000000e+00   0.000000e+00
      136000   1.359990e-06   9.320093e-01   7.605445e+00   2.031507e+01   6.117591e+05  -3.446047e+05   9.457386e+05  -6.764706e+00  -1.200904e+01   1.105673e-20   1.177889e+06   6.349126e-40   0.000000e+00   0.000000e+00
      144000   1.439990e-06   9.809501e-01   7.577877e+00   2.039073e+01   6.117591e+05  -3.446047e+05   9.457386e+05   6.136863e-01   1.089446e+00  -7.071429e-22   1.177889e+06   5.215331e-42   0.000000e+00   0.000000e+00
      152000   1.519990e-06   1.029891e+00   7.550309e+00   2.046639e+01   6.117591e+05  -3.446047e+05   9.457386e+05  -6.211809e+00  -1.102751e+01  -1.184089e-20   1.177889e+06   5.353943e-40   0.000000e+00   0.000000e+00
      160000   1.599990e-06   1.078832e+00   7.522740e+00   2.054205e+01   6.117591e+05  -3.446047e+05   9.457386e+05   4.285750e+00   7.608273e+00   3.057175e-21   1.177889e+06   2.547828e-40   0.000000e+00   0.000000e+00
      168000   1.679990e-06   1.127772e+00   7.495172e+00   2.061771e+01   6.117591e+05  -3.446047e+05   9.457386e+05  -8.346483e+00  -1.481708e+01  -5.949505e-21   1.177889e+06   9.663781e-40   0.000000e+00   0.000000e+00
      176000   1.759990e-06   1.176713e+00   7.467604e+00   2.069337e+01   6.117591e+05  -3.446047e+05   9.457386e+05  -1.353118e+01  -2.402121e+01   1.011266e-20   1.177889e+06   2.540021e-39   0.000000e+00   0.000000e+00
      184000   1.839990e-06   1.225654e+00   7.440035e+00   2.076903e+01   6.117591e+05  -3.446047e+05   9.457386e+05  -1.255371e+01  -2.228596e+01  -1.783120e-21   1.177889e+06   2.186264e-39   0.000000e+00   0.000000e+00
      192000   1.919990e-06   1.274594e+00   7.412467e+00   2.084468e+01   6.117591e+05  -3.446047e+05   9.457386e+05  -1.426219e+01  -2.531894e+01   1.480208e-21   1.177889e+06   2.822161e-39   0.000000e+00   0.000000e+00
      200000   1.999990e-06   1.323535e+00   7.384898e+00   2.092034e+01   6.117591e+05  -3.446047e+05   9.457386e+05  -1.809370e+01  -3.212083e+01   2.034352e-20   1.177889e+06   4.541960e-39   0.000000e+00   0.000000e+00
      208000   2.079990e-06   1.372476e+00   7.357330e+00   2.099600e+01   6.117591e+05  -3.446047e+05   9.457386e+05  -2.129366e+01  -3.780154e+01  -5.822550e-21   1.177889e+06   6.290594e-39   0.000000e+00   0.000000e+00
      216000   2.159990e-06   1.421417e+00   7.329762e+00   2.107166e+01   6.117591e+05  -3.446047e+05   9.457386e+05  -1.284379e+01  -2.280093e+01  -1.562102e-20   1.177889e+06   2.288862e-39   0.000000e+00   0.000000e+00
      224000   2.239990e-06   1.470357e+00   7.302193e+00   2.114732e+01   6.117591e+05  -3.446047e+05   9.457386e+05  -1.116369e+01  -1.981833e+01   2.253579e-20   1.177889e+06   1.729152e-39   0.000000e+00   0.000000e+00
      232000   2.319990e-06   1.519298e+00   7.274625e+00   2.122298e+01   6.117591e+05  -3.446047e+05   9.457386e+05  -5.573674e+00  -9.894658e+00  -9.404230e-21   1.177889e+06   4.311152e-40   0.000000e+00   0.000000e+00
      240000   2.399990e-06   1.568239e+00   7.247057e+00   2.129864e+01   6.117591e+05  -3.446047e+05   9.457386e+05  -2.977574e-01  -5.285935e-01  -1.563652e-22   1.177889e+06   1.235533e-42   0.000000e+00   0.000000e+00
      248000   2.479990e-06   1.617179e+00   7.219488e+00   2.137430e+01   6.117591e+05  -3.446047e+05   9.457386e+05  -5.709273e+00  -1.013538e+01   5.095835e-21   1.177889e+06   4.523445e-40   0.000000e+00   0.000000e+00
      256000   2.559990e-06   1.666120e+00   7.191920e+00   2.144996e+01   6.117591e+05  -3.446047e+05   9.457386e+05  -3.848292e+00  -6.831676e+00   2.719282e-21   1.177889e+06   2.055157e-40   0.000000e+00   0.000000e+00
      264000   2.639990e-06   1.715061e+00   7.164351e+00   2.152562e+01   6.117591e+05  -3.446047e+05   9.457386e+05  -3.721518e+00  -6.606620e+00   5.484061e-21   1.177889e+06   1.921253e-40   0.000000e+00   0.000000e+00
      272000   2.719990e-06   1.764002e+00   7.136783e+00   2.160128e+01   6.117591e+05  -3.446047e+05   9.457386e+05  -4.401821e+00  -7.814328e+00  -4.349720e-21   1.177889e+06   2.688537e-40   0.000000e+00   0.000000e+00
      280000   2.799990e-06   1.812942e+00   7.109215e+00   2.167693e+01   6.117591e+05  -3.446047e+05   9.457386e+05  -4.242074e+00  -7.530736e+00  -2.274869e-21   1.177889e+06   2.497007e-40   0.000000e+00   0.000000e+00
      288000   2.879990e-06   1.861883e+00   7.081646e+00   2.175259e+01   6.117591e+05  -3.446047e+05   9.457386e+05  -2.324117e+00  -4.125886e+00  -3.651957e-21   1.177889e+06   7.493252e-41   0.000000e+00   0.000000e+00
      296000   2.959990e-06   1.910824e+00   7.054078e+00   2.182825e+01   6.117591e+05  -3.446047e+05   9.457386e+05  -8.853444e+00  -1.571707e+01  -1.085147e-20   1.177889e+06   1.087632e-39   0.000000e+00   0.000000e+00
      304000   3.039990e-06   1.959765e+00   7.026510e+00   2.190391e+01   6.117591e+05  -3.446047e+05   9.457386e+05  -5.673640e+00  -1.007212e+01   2.959172e-21   1.177889e+06   4.466352e-40   0.000000e+00   0.000000e+00
      312000   3.119990e-06   2.008705e+00   6.998941e+00   2.197957e+01   6.117591e+05  -3.446047e+05   9.457386e+05  -7.778974e+00  -1.380962e+01   1.499956e-20   1.177889e+06   8.393281e-40   0.000000e+00   0.000000e+00
      320000   3.199990e-06   2.057646e+00   6.971373e+00   2.205523e+01   6.117591e+05  -3.446047e+05   9.457386e+05  -2.208977e+00  -3.921484e+00   2.429278e-21   1.177889e+06   6.774327e-41   0.000000e+00   0.000000e+00
      328000   3.279990e-06   2.106587e+00   6.943804e+00   2.213089e+01   6.117591e+05  -3.446047e+05   9.457386e+05  -1.147104e+01  -2.036395e+01  -1.874568e-20   1.177889e+06   1.825833e-39   0.000000e+00   0.000000e+00
      336000   3.359990e-06   2.155527e+00   6.916236e+00   2.220655e+01   6.117591e+05  -3.446047e+05   9.457386e+05  -2.031683e+00  -3.606743e+00  -2.916944e-21   1.177889e+06   5.727729e-41   0.000000e+00   0.000000e+00
      344000   3.439990e-06   2.204468e+00   6.888668e+00   2.228221e+01   6.117591e+05  -3.446047e+05   9.457386e+05   1.040534e+00   1.847207e+00  -3.253444e-22   1.177889e+06   1.503722e-41   0.000000e+00   0.000000e+00
      352000   3.519990e-06   2.253409e+00   6.861099e+00   2.235787e+01   6.117591e+05  -3.446047e+05   9.457386e+05  -1.014267e+01  -1.800577e+01   9.780100e-21   1.177889e+06   1.427222e-39   0.000000e+00   0.000000e+00
      360000   3.599990e-06   2.302350e+00   6.833531e+00   2.243352e+01   6.117591e+05  -3.446047e+05   9.457386e+05  -1.438493e+01  -2.553683e+01   2.289377e-20   1.177889e+06   2.870838e-39   0.000000e+00   0.000000e+00
      368000   3.679990e-06   2.351290e+00   6.805963e+00   2.250918e+01   6.117591e+05  -3.446047e+05   9.457386e+05  -1.213828e+01  -2.154846e+01   5.768851e-21   1.177889e+06   2.044235e-39   0.000000e+00   0.000000e+00
      376000   3.759990e-06   2.400231e+00   6.778394e+00   2.258484e+01   6.117591e+05  -3.446047e+05   9.457386e+05  -1.730672e+01  -3.072373e+01   2.475036e-20   1.177889e+06   4.155597e-39   0.000000e+00   0.000000e+00
      384000   3.839990e-06   2.449172e+00   6.750826e+00   2.266050e+01   6.117591e+05  -3.446047e+05   9.457386e+05  -8.906558e+00  -1.581136e+01  -6.432720e-21   1.177889e+06   1.100859e-39   0.000000e+00   0.000000e+00
      392000   3.919990e-06   2.498113e+00   6.723257e+00   2.273616e+01   6.117591e+05  -3.446047e+05   9.457386e+05  -6.462716e+00  -1.147293e+01   1.007088e-21   1.177889e+06   5.794662e-40   0.000000e+00   0.000000e+00
      400000   3.999990e-06   2.547053e+00   6.695689e+00   2.281182e+01   6.117591e+05  -3.446047e+05   9.457386e+05  -1.054206e+01  -1.871477e+01   5.458509e-21   1.177889e+06   1.541812e-39   0.000000e+00   0.000000e+00
      408000   4.079990e-06   2.595994e+00   6.668121e+00   2.288748e+01   6.117591e+05  -3.446047e+05   9.457386e+05  -1.313068e+01  -2.331023e+01   7.935781e-21   1.177889e+06   2.391997e-39   0.000000e+00   0.000000e+00
      416000   4.159990e-06   2.644935e+00   6.640552e+00   2.296314e+01   6.117591e+05  -3.446047e+05   9.457386e+05  -6.803770e+00  -1.207839e+01  -3.568764e-21   1.177889e+06   6.423586e-40   0.000000e+00   0.000000e+00
      424000   4.239990e-06   2.693875e+00   6.612984e+00   2.303880e+01   6.117591e+05  -3.446047e+05   9.457386e+05  -2.344842e+01  -4.162678e+01  -7.383875e-22   1.177889e+06   7.627983e-39   0.000000e+00   0.000000e+00
      432000   4.319990e-06   2.742816e+00   6.585416e+00   2.311446e+01   6.117591e+05  -3.446047e+05   9.457386e+05  -2.905652e+00  -5.158255e+00  -1.312646e-21   1.177889e+06   1.172011e-40   0.000000e+00   0.000000e+00
      440000   4.399990e-06   2.791757e+00   6.557847e+00   2.319012e+01   6.117591e+05  -3.446047e+05   9.457386e+05   3.435723e+00   6.099264e+00  -8.073637e-21   1.177889e+06   1.636980e-40   0.000000e+00   0.000000e+00
      448000   4.479990e-06   2.840698e+00   6.530279e+00   2.326577e+01   6.117591e+05  -3.446047e+05   9.457386e+05  -7.652178e+00  -1.358452e+01   2.252279e-21   1.177889e+06   8.124815e-40   0.000000e+00   0.000000e+00
      456000   4.559990e-06   2.889638e+00   6.502711e+00   2.334143e+01   6.117591e+05  -3.446047e+05   9.457386e+05  -1.002604e+01  -1.779872e+01  -7.185337e-21   1.177889e+06   1.394573e-39   0.000000e+00   0.000000e+00
      464000   4.639990e-06   2.938579e+00   6.475142e+00   2.341709e+01   6.117591e+05  -3.446047e+05   9.457386e+05  -8.976236e+00  -1.593505e+01  -1.613368e-21   1.177889e+06   1.117964e-39   0.000000e+00   0.000000e+00
      472000   4.719990e-06   2.987520e+00   6.447574e+00   2.349275e+01   6.117591e+05  -3.446047e+05   9.457386e+05  -6.351599e+00  -1.127567e+01  -4.122676e-21   1.177889e+06   5.597816e-40   0.000000e+00   0.000000e+00
      480000   4.799990e-06   3.036461e+00   6.420005e+00   2.356841e+01   6.117591e+05  -3.446047e+05   9.457386e+05  -1.297384e+01  -2.303180e+01  -1.642698e-20   1.177889e+06   2.335177e-39   0.000000e+00   0.000000e+00
      488000   4.879990e-06   3.085401e+00   6.392437e+00   2.364407e+01   6.117591e+05  -3.446047e+05   9.457386e+05  -4.627730e+00  -8.215373e+00  -5.478646e-21   1.177889e+06   2.971511e-40   0.000000e+00   0.000000e+00
      496000   4.959990e-06   3.134342e+00   6.364869e+00   2.371973e+01   6.117591e+05  -3.446047e+05   9.457386e+05  -1.618836e+01  -2.873836e+01  -1.201279e-20   1.177889e+06   3.635939e-39   0.000000e+00   0.000000e+00
      504000   5.039990e-06   3.183283e+00   6.337300e+00   2.379539e+01   6.117591e+05  -3.446047e+05   9.457386e+05  -1.564882e+01  -2.778055e+01   8.555274e-21   1.177889e+06   3.397617e-39   0.000000e+00   0.000000e+00
      512000   5.119990e-06   3.232223e+00   6.309732e+00   2.387105e+01   6.117591e+05  -3.446047e+05   9.457386e+05  -1.150863e+01  -2.043068e+01  -5.641828e-22   1.177889e+06   1.837652e-39   0.000000e+00   0.000000e+00
      520000   5.199990e-06   3.281164e+00   6.282164e+00   2.394671e+01   6.117591e+05  -3.446047e+05   9.457386e+05  -9.410544e+00  -1.670606e+01  -4.662078e-21   1.177889e+06   1.228762e-39   0.000000e+00   0.000000e+00
      528000   5.279990e-06   3.330105e+00   6.254595e+00   2.402237e+01   6.117591e+05  -3.446047e+05   9.457386e+05  -1.008175e+01  -1.789762e+01  -2.120883e-20   1.177889e+06   1.410016e-39   0.000000e+00   0.000000e+00
      536000   5.359990e-06   3.379046e+00   6.227027e+00   2.409802e+01   6.117591e+05  -3.446047e+05   9.457386e+05  -1.525384e+01  -2.707937e+01   2.112460e-20   1.177889e+06   3.227968e-39   0.000000e+00   0.000000e+00
      544000   5.439990e-06   3.427986e+00   6.199458e+00   2.417368e+01   6.117591e+05  -3.446047e+05   9.457386e+05  -9.477007e+00  -1.682405e+01  -6.530021e-21   1.177889e+06   1.246247e-39   0.000000e+00   0.000000e+00
      552000   5.519990e-06   3.476927e+00   6.171890e+00   2.424934e+01   6.117591e+05  -3.446047e+05   9.457386e+05  -1.106716e+01  -1.964697e+01   7.529573e-21   1.177889e+06   1.699317e-39   0.000000e+00   0.000000e+00
      560000   5.599990e-06   3.525868e+00   6.144322e+00   2.432500e+01   6.117591e+05  -3.446047e+05   9.457386e+05  -9.032014e+00  -1.603407e+01  -1.008631e-21   1.177889e+06   1.131645e-39   0.000000e+00   0.000000e+00
      568000   5.679990e-06   3.574808e+00   6.116753e+00   2.440066e+01   6.117591e+05  -3.446047e+05   9.457386e+05  -1.387212e+01  -2.462647e+01  -4.829342e-21   1.177889e+06   2.670039e-39   0.000000e+00   0.000000e+00
      576000   5.759990e-06   3.623749e+00   6.089185e+00   2.447632e+01   6.117591e+05  -3.446047e+05   9.457386e+05  -7.307118e+00  -1.297195e+01   1.338532e-21   1.177889e+06   7.409785e-40   0.000000e+00   0.000000e+00
      584000   5.839990e-06   3.672690e+00   6.061617e+00   2.455198e+01   6.117591e+05  -3.446047e+05   9.457386e+05  -2.154016e+01  -3.823914e+01   1.616438e-20   1.177889e+06   6.436630e-39   0.000000e+00   0.000000e+00
      592000   5.919990e-06   3.721631e+00   6.034048e+00   2.462764e+01   6.117591e+05  -3.446047e+05   9.457386e+05  -1.105307e+01  -1.962195e+01  -3.971816e-21   1.177889e+06   1.694722e-39   0.000000e+00   0.000000e+00
      600000   5.999990e-06   3.770571e+00   6.006480e+00   2.470330e+01   6.117591e+05  -3.446047e+05   9.457386e+05  -1.410705e+01  -2.504353e+01  -1.350870e-20   1.177889e+06   2.761355e-39   0.000000e+00   0.000000e+00
      608000   6.079990e-06   3.819512e+00   5.978911e+00   2.477896e+01   6.117591e+05  -3.446047e+05   9.457386e+05  -1.050208e+01  -1.864380e+01  -1.645681e-20   1.177889e+06   1.530237e-39   0.000000e+00   0.000000e+00
      616000   6.159990e-06   3.868453e+00   5.951343e+00   2.485462e+01   6.117591e+05  -3.446047e+05   9.457386e+05  -2.131013e+01  -3.783078e+01   3.233464e-21   1.177889e+06   6.299876e-39   0.000000e+00   0.000000e+00
      624000   6.239990e-06   3.917394e+00   5.923775e+00   2.493027e+01   6.117591e+05  -3.446047e+05   9.457386e+05  -1.791341e+01  -3.180076e+01   3.610075e-20   1.177889e+06   4.452479e-39   0.000000e+00   0.000000e+00
      632000   6.319990e-06   3.966334e+00   5.896206e+00   2.500593e+01   6.117591e+05  -3.446047e+05   9.457386e+05  -1.403333e+01  -2.491265e+01  -3.278288e-20   1.177889e+06   2.732683e-39   0.000000e+00   0.000000e+00
      640000   6.399990e-06   4.015275e+00   5.868638e+00   2.508159e+01   6.117591e+05  -3.446047e+05   9.457386e+05  -7.942551e+00  -1.410000e+01  -1.482168e-20   1.177889e+06   8.753403e-40   0.000000e+00   0.000000e+00
      648000   6.479990e-06   4.064216e+00   5.841070e+00   2.515725e+01   6.117591e+05  -3.446047e+05   9.457386e+05  -1.424948e+01  -2.529637e+01   1.321097e-20   1.177889e+06   2.816948e-39   0.000000e+00   0.000000e+00
      656000   6.559990e-06   4.113156e+00   5.813501e+00   2.523291e+01   6.117591e+05  -3.446047e+05   9.457386e+05  -9.477068e+00  -1.682415e+01   5.469375e-21   1.177889e+06   1.246203e-39   0.000000e+00   0.000000e+00
      664000   6.639990e-06   4.162097e+00   5.785933e+00   2.530857e+01   6.117591e+05  -3.446047e+05   9.457386e+05  -3.598759e+00  -6.388693e+00   1.548382e-22   1.177889e+06   1.797897e-40   0.000000e+00   0.000000e+00
      672000   6.719990e-06   4.211038e+00   5.758364e+00   2.538423e+01   6.117591e+05  -3.446047e+05   9.457386e+05  -8.278247e+00  -1.469595e+01   1.093812e-20   1.177889e+06   9.508371e-40   0.000000e+00   0.000000e+00
      680000   6.799990e-06   4.259979e+00   5.730796e+00   2.545989e+01   6.117591e+05  -3.446047e+05   9.457386e+05  -3.782032e+00  -6.714048e+00  -4.712096e-21   1.177889e+06   1.984703e-40   0.000000e+00   0.000000e+00
      688000   6.879990e-06   4.308919e+00   5.703228e+00   2.553555e+01   6.117591e+05  -3.446047e+05   9.457386e+05  -5.104143e+00  -9.061123e+00  -4.649635e-21   1.177889e+06   3.613809e-40   0.000000e+00   0.000000e+00
      696000   6.959990e-06   4.357860e+00   5.675659e+00   2.561121e+01   6.117591e+05  -3.446047e+05   9.457386e+05  -6.458283e+00  -1.146506e+01   1.119252e-21   1.177889e+06   5.785872e-40   0.000000e+00   0.000000e+00
      704000   7.039990e-06   4.406801e+00   5.648091e+00   2.568687e+01   6.117591e+05  -3.446047e+05   9.457386e+05  -1.385376e+01  -2.459387e+01   1.762194e-20   1.177889e+06   2.663018e-39   0.000000e+00   0.000000e+00
      712000   7.119990e-06   4.455742e+00   5.620523e+00   2.576252e+01   6.117591e+05  -3.446047e+05   9.457386e+05  -1.421690e+01  -2.523854e+01   2.723190e-21   1.177889e+06   2.804170e-39   0.000000e+00   0.000000e+00
      720000   7.199990e-06   4.504682e+00   5.592954e+00   2.583818e+01   6.117591e+05  -3.446047e+05   9.457386e+05  -8.707437e+00  -1.545787e+01  -5.138072e-21   1.177889e+06   1.051923e-39   0.000000e+00   0.000000e+00
      728000   7.279990e-06   4.553623e+00   5.565386e+00   2.591384e+01   6.117591e+05  -3.446047e+05   9.457386e+05  -1.730523e+01  -3.072109e+01  -4.250080e-20   1.177889e+06   4.154646e-39   0.000000e+00   0.000000e+00
      736000   7.359990e-06   4.602564e+00   5.537817e+00   2.598950e+01   6.117591e+05  -3.446047e+05   9.457386e+05  -1.450898e+01  -2.575706e+01   2.313983e-20   1.177889e+06   2.920870e-39   0.000000e+00   0.000000e+00
      744000   7.439990e-06   4.651504e+00   5.510249e+00   2.606516e+01   6.117591e+05  -3.446047e+05   9.457386e+05  -1.301649e+01  -2.310751e+01  -2.098861e-21   1.177889e+06   2.350680e-39   0.000000e+00   0.000000e+00
      752000   7.519990e-06   4.700445e+00   5.482681e+00   2.614082e+01   6.117591e+05  -3.446047e+05   9.457386e+05  -1.223963e+01  -2.172839e+01   1.999665e-21   1.177889e+06   2.078456e-39   0.000000e+00   0.000000e+00
      760000   7.599990e-06   4.749386e+00   5.455112e+00   2.621648e+01   6.117591e+05  -3.446047e+05   9.457386e+05  -1.118474e+01  -1.985570e+01   7.495223e-21   1.177889e+06   1.735846e-39   0.000000e+00   0.000000e+00
      768000   7.679990e-06   4.798327e+00   5.427544e+00   2.629214e+01   6.117591e+05  -3.446047e+05   9.457386e+05  -5.866222e+00  -1.041400e+01   3.782120e-21   1.177889e+06   4.775545e-40   0.000000e+00   0.000000e+00
      776000   7.759990e-06   4.847267e+00   5.399976e+00   2.636780e+01   6.117591e+05  -3.446047e+05   9.457386e+05  -1.212724e+00  -2.152887e+00   1.156380e-21   1.177889e+06   2.041609e-41   0.000000e+00   0.000000e+00
      784000   7.839990e-06   4.896208e+00   5.372407e+00   2.644346e+01   6.117591e+05  -3.446047e+05   9.457386e+05  -1.023235e+01  -1.816497e+01   6.671908e-21   1.177889e+06   1.452672e-39   0.000000e+00   0.000000e+00
      792000   7.919990e-06   4.945149e+00   5.344839e+00   2.651912e+01   6.117591e+05  -3.446047e+05   9.457386e+05  -1.569777e+01  -2.786745e+01  -8.720506e-21   1.177889e+06   3.418569e-39   0.000000e+00   0.000000e+00
      800000   7.999990e-06   4.994090e+00   5.317270e+00   2.659477e+01   6.117591e+05  -3.446047e+05   9.457386e+05  -2.137685e+01  -3.794923e+01  -5.992338e-21   1.177889e+06   6.339663e-39   0.000000e+00   0.000000e+00
      808000   8.079990e-06   5.043030e+00   5.289702e+00   2.667043e+01   6.117591e+05  -3.446047e+05   9.457386e+05   4.391898e+00   7.796713e+00   2.885688e-21   1.177889e+06   2.675502e-40   0.000000e+00   0.000000e+00
      816000   8.159990e-06   5.091971e+00   5.262134e+00   2.674609e+01   6.117591e+05  -3.446047e+05   9.457386e+05  -1.198756e+01  -2.128090e+01   1.145821e-20   1.177889e+06   1.993589e-39   0.000000e+00   0.000000e+00
      824000   8.239990e-06   5.140912e+00   5.234565e+00   2.682175e+01   6.117591e+05  -3.446047e+05   9.457386e+05  -9.187201e+00  -1.630957e+01   1.463313e-21   1.177889e+06   1.171208e-39   0.000000e+00   0.000000e+00
      832000   8.319990e-06   5.189852e+00   5.206997e+00   2.689741e+01   6.117591e+05  -3.446047e+05   9.457386e+05  -4.087447e+00  -7.256236e+00   1.079416e-21   1.177889e+06   2.318714e-40   0.000000e+00   0.000000e+00
      840000   8.399990e-06   5.238793e+00   5.179429e+00   2.697307e+01   6.117591e+05  -3.446047e+05   9.457386e+05  -1.702171e+01  -3.021778e+01   3.101672e-21   1.177889e+06   4.019536e-39   0.000000e+00   0.000000e+00
      848000   8.479990e-06   5.287734e+00   5.151860e+00   2.704873e+01   6.117591e+05  -3.446047e+05   9.457386e+05  -8.173223e+00  -1.450951e+01  -1.532435e-21   1.177889e+06   9.268964e-40   0.000000e+00   0.000000e+00
      856000   8.559990e-06   5.336675e+00   5.124292e+00   2.712439e+01   6.117591e+05  -3.446047e+05   9.457386e+05  -9.540945e+00  -1.693755e+01   1.547871e-20   1.177889e+06   1.263030e-39   0.000000e+00   0.000000e+00
      864000   8.639990e-06   5.385615e+00   5.096723e+00   2.720005e+01   6.117591e+05  -3.446047e+05   9.457386e+05  -2.365589e+01  -4.199509e+01  -3.657569e-20   1.177889e+06   7.763028e-39   0.000000e+00   0.000000e+00
      872000   8.719990e-06   5.434556e+00   5.069155e+00   2.727571e+01   6.117591e+05  -3.446047e+05   9.457386e+05  -1.865575e+01  -3.311860e+01  -3.372828e-21   1.177889e+06   4.829045e-39   0.000000e+00   0.000000e+00
      880000   8.799990e-06   5.483497e+00   5.041587e+00   2.735137e+01   6.117591e+05  -3.446047e+05   9.457386e+05  -8.896897e+00  -1.579421e+01   1.891803e-20   1.177889e+06   1.098126e-39   0.000000e+00   0.000000e+00
      888000   8.879990e-06   5.532438e+00   5.014018e+00   2.742702e+01   6.117591e+05  -3.446047e+05   9.457386e+05  -1.409863e+01  -2.502857e+01   1.739678e-20   1.177889e+06   2.758265e-39   0.000000e+00   0.000000e+00
      896000   8.959990e-06   5.581378e+00   4.986450e+00   2.750268e+01   6.117591e+05  -3.446047e+05   9.457386e+05  -5.021765e+00  -8.914882e+00  -5.764295e-21   1.177889e+06   3.498162e-40   0.000000e+00   0.000000e+00
      904000   9.039990e-06   5.630319e+00   4.958882e+00   2.757834e+01   6.117591e+05  -3.446047e+05   9.457386e+05  -3.108279e+01  -5.517969e+01  -8.547675e-20   1.177889e+06   1.340294e-38   0.000000e+00   0.000000e+00
      912000   9.119990e-06   5.679260e+00   4.931313e+00   2.765400e+01   6.117591e+05  -3.446047e+05   9.457386e+05  -3.701747e+00  -6.571522e+00  -6.363003e-22   1.177889e+06   1.903160e-40   0.000000e+00   0.000000e+00
      920000   9.199990e-06   5.728200e+00   4.903745e+00   2.772966e+01   6.117591e+05  -3.446047e+05   9.457386e+05  -1.629127e+01  -2.892107e+01  -1.044348e-20   1.177889e+06   3.682356e-39   0.000000e+00   0.000000e+00
      928000   9.279990e-06   5.777141e+00   4.876176e+00   2.780532e+01   6.117591e+05  -3.446047e+05   9.457386e+05  -1.088825e+01  -1.932935e+01   8.381068e-22   1.177889e+06   1.645126e-39   0.000000e+00   0.000000e+00
      936000   9.359990e-06   5.826082e+00   4.848608e+00   2.788098e+01   6.117591e+05  -3.446047e+05   9.457386e+05  -1.763906e+01  -3.131373e+01   3.144428e-20   1.177889e+06   4.316530e-39   0.000000e+00   0.000000e+00
      944000   9.439990e-06   5.875023e+00   4.821040e+00   2.795664e+01   6.117591e+05  -3.446047e+05   9.457386e+05  -1.888027e+01  -3.351718e+01   7.706476e-21   1.177889e+06   4.945689e-39   0.000000e+00   0.000000e+00
      952000   9.519990e-06   5.923963e+00   4.793471e+00   2.803230e+01   6.117591e+05  -3.446047e+05   9.457386e+05  -1.740956e+01  -3.090631e+01   2.292097e-20   1.177889e+06   4.205290e-39   0.000000e+00   0.000000e+00
      960000   9.599990e-06   5.972904e+00   4.765903e+00   2.810796e+01   6.117591e+05  -3.446047e+05   9.457386e+05  -1.921849e+01  -3.411760e+01   2.974787e-20   1.177889e+06   5.124577e-39   0.000000e+00   0.000000e+00
      968000   9.679990e-06   6.021845e+00   4.738335e+00   2.818362e+01   6.117591e+05  -3.446047e+05   9.457386e+05  -8.666717e+00  -1.538558e+01  -9.772074e-21   1.177889e+06   1.042101e-39   0.000000e+00   0.000000e+00
      976000   9.759990e-06   6.070785e+00   4.710766e+00   2.825927e+01   6.117591e+05  -3.446047e+05   9.457386e+05  -1.519322e+01  -2.697175e+01   2.885849e-20   1.177889e+06   3.202452e-39   0.000000e+00   0.000000e+00
      984000   9.839990e-06   6.119726e+00   4.683198e+00   2.833493e+01   6.117591e+05  -3.446047e+05   9.457386e+05  -1.814981e+01  -3.222043e+01  -2.161567e-20   1.177889e+06   4.570351e-39   0.000000e+00   0.000000e+00
      992000   9.919990e-06   6.168667e+00   4.655629e+00   2.841059e+01   6.117591e+05  -3.446047e+05   9.457386e+05  -1.199098e+01  -2.128698e+01  -8.944131e-21   1.177889e+06   1.994835e-39   0.000000e+00   0.000000e+00
     1000000   9.999990e-06   6.217608e+00   4.628061e+00   2.848625e+01   6.117591e+05  -3.446047e+05   9.457386e+05  -2.067693e+01  -3.670670e+01  -1.690010e-20   1.177889e+06   5.931094e-39   0.000000e+00   0.000000e+00
     1008000   1.007999e-05   6.266548e+00   4.600493e+00   2.856191e+01   6.117591e+05  -3.446047e+05   9.457386e+05  -7.441245e+00  -1.321006e+01  -2.005589e-21   1.177889e+06   7.684742e-40   0.000000e+00   0.000000e+00
     1016000   1.015999e-05   6.315489e+00   4.572924e+00   2.863757e+01   6.117591e+05  -3.446047e+05   9.457386e+05  -1.605112e+01  -2.849473e+01  -2.777786e-20   1.177889e+06   3.574460e-39   0.000000e+00   0.000000e+00
     1024000   1.023999e-05   6.364430e+00   4.545356e+00   2.871323e+01   6.117591e+05  -3.446047e+05   9.457386e+05  -1.266772e+01  -2.248835e+01   6.521118e-21   1.177889e+06   2.226268e-39   0.000000e+00   0.000000e+00
     1032000   1.031999e-05   6.413371e+00   4.517788e+00   2.878889e+01   6.117591e+05  -3.446047e+05   9.457386e+05  -1.807510e+01  -3.208780e+01  -1.055389e-21   1.177889e+06   4.532880e-39   0.000000e+00   0.000000e+00
     1040000   1.039999e-05   6.462311e+00   4.490219e+00   2.886455e+01   6.117591e+05  -3.446047e+05   9.457386e+05  -1.558445e+01  -2.766628e+01  -1.809016e-20   1.177889e+06   3.369850e-39   0.000000e+00   0.000000e+00
     1048000   1.047999e-05   6.511252e+00   4.462651e+00   2.894021e+01   6.117591e+05  -3.446047e+05   9.457386e+05  -1.018530e+01  -1.808144e+01  -5.843791e-21   1.177889e+06   1.439349e-39   0.000000e+00   0.000000e+00
     1056000   1.055999e-05   6.560193e+00   4.435082e+00   2.901587e+01   6.117591e+05  -3.446047e+05   9.457386e+05  -1.336887e+01  -2.373308e+01  -1.321504e-20   1.177889e+06   2.479629e-39   0.000000e+00   0.000000e+00
     1064000   1.063999e-05   6.609133e+00   4.407514e+00   2.909152e+01   6.117591e+05  -3.446047e+05   9.457386e+05  -1.364419e+01  -2.422183e+01  -4.225201e-21   1.177889e+06   2.582534e-39   0.000000e+00   0.000000e+00
     1072000   1.071999e-05   6.658074e+00   4.379946e+00   2.916718e+01   6.117591e+05  -3.446047e+05   9.457386e+05  -1.282355e+01  -2.276500e+01  -1.166487e-20   1.177889e+06   2.281541e-39   0.000000e+00   0.000000e+00
     1080000   1.079999e-05   6.707015e+00   4.352377e+00   2.924284e+01   6.117591e+05  -3.446047e+05   9.457386e+05  -1.789692e+01  -3.177149e+01   1.557685e-20   1.177889e+06   4.443775e-39   0.000000e+00   0.000000e+00
     1088000   1.087999e-05   6.755956e+00   4.324809e+00   2.931850e+01   6.117591e+05  -3.446047e+05   9.457386e+05  -1.305541e+01  -2.317661e+01   2.706962e-20   1.177889e+06   2.364955e-39   0.000000e+00   0.000000e+00
     1096000   1.095999e-05   6.804896e+00   4.297241e+00   2.939416e+01   6.117591e+05  -3.446047e+05   9.457386e+05  -1.165782e+01  -2.069553e+01   7.908546e-21   1.177889e+06   1.885711e-39   0.000000e+00   0.000000e+00
     1104000   1.103999e-05   6.853837e+00   4.269672e+00   2.946982e+01   6.117591e+05  -3.446047e+05   9.457386e+05  -8.686145e+00  -1.542007e+01  -7.781358e-23   1.177889e+06   1.046848e-39   0.000000e+00   0.000000e+00
     1112000   1.111999e-05   6.902778e+00   4.242104e+00   2.954548e+01   6.117591e+05  -3.446047e+05   9.457386e+05  -8.202035e+00  -1.456065e+01  -9.336423e-21   1.177889e+06   9.334666e-40   0.000000e+00   0.000000e+00
     1120000   1.119999e-05   6.951719e+00   4.214535e+00   2.962114e+01   6.117591e+05  -3.446047e+05   9.457386e+05  -1.286824e+01  -2.284434e+01   4.002976e-21   1.177889e+06   2.297073e-39   0.000000e+00   0.000000e+00
     1128000   1.127999e-05   7.000659e+00   4.186967e+00   2.969680e+01   6.117591e+05  -3.446047e+05   9.457386e+05  -1.692128e+01  -3.003948e+01   2.163221e-20   1.177889e+06   3.972469e-39   0.000000e+00   0.000000e+00
     1136000   1.135999e-05   7.049600e+00   4.159399e+00   2.977246e+01   6.117591e+05  -3.446047e+05   9.457386e+05  -2.222942e+00  -3.806473e+01  -1.243195e+01   1.177889e+06   5.374673e-39   0.000000e+00   0.000000e+00
     1144000   1.143999e-05   7.098541e+00   4.131830e+00   2.984812e+01   6.117591e+05  -3.446047e+05   9.457386e+05  -2.856472e+01  -2.775599e+01   8.363714e+00   1.177889e+06   5.534699e-39   0.000000e+00   0.000000e+00
     1152000   1.151999e-05   7.147481e+00   4.104262e+00   2.992377e+01   6.117591e+05  -3.446047e+05   9.457386e+05  -8.735089e+00  -7.898725e+00   2.772259e+00   1.177889e+06   4.891130e-40   0.000000e+00   0.000000e+00
     1160000   1.159999e-05   7.196422e+00   4.076694e+00   2.999943e+01   6.117591e+05  -3.446047e+05   9.457386e+05   1.827534e+01  -1.028846e+01  -1.557043e+01   1.177889e+06   2.279716e-39   0.000000e+00   0.000000e+00
     1168000   1.167999e-05   7.245363e+00   4.049125e+00   3.007509e+01   6.117591e+05  -3.446047e+05   9.457386e+05  -1.639626e+01  -2.292381e+01   2.253168e+00   1.177889e+06   2.672034e-39   0.000000e+00   0.000000e+00
     1176000   1.175999e-05   7.294304e+00   4.021557e+00   3.015075e+01   6.117591e+05  -3.446047e+05   9.457386e+05  -1.233667e+01  -3.118879e+01  -3.384373e+00   1.177889e+06   3.797414e-39   0.000000e+00   0.000000e+00
     1184000   1.183999e-05   7.343244e+00   3.993988e+00   3.022641e+01   6.117591e+05  -3.446047e+05   9.457386e+05  -6.102051e+00  -1.083266e+01   2.237312e-21   1.177889e+06   5.167292e-40   0.000000e+00   0.000000e+00
     1192000   1.191999e-05   7.392185e+00   3.966420e+00   3.030207e+01   6.117591e+05  -3.446047e+05   9.457386e+05  -1.277641e+01  -2.268130e+01  -5.976494e-21   1.177889e+06   2.264537e-39   0.000000e+00   0.000000e+00
     1200000   1.199999e-05   7.441126e+00   3.938852e+00   3.037773e+01   6.117591e+05  -3.446047e+05   9.457386e+05  -1.385699e+01  -2.459960e+01  -1.571615e-20   1.177889e+06   2.664120e-39   0.000000e+00   0.000000e+00
     1208000   1.207999e-05   7.490067e+00   3.911283e+00   3.045339e+01   6.117591e+05  -3.446047e+05   9.457386e+05  -1.003181e+01  -1.780896e+01   8.821661e-22   1.177889e+06   1.396310e-39   0.000000e+00   0.000000e+00
     1216000   1.215999e-05   7.539007e+00   3.883715e+00   3.052905e+01   6.117591e+05  -3.446047e+05   9.457386e+05  -1.072171e+01  -1.903370e+01  -3.378717e-21   1.177889e+06   1.595025e-39   0.000000e+00   0.000000e+00
     1224000   1.223999e-05   7.587948e+00   3.856147e+00   3.060471e+01   6.117591e+05  -3.446047e+05   9.457386e+05  -1.528705e+01  -2.713832e+01   1.850642e-20   1.177889e+06   3.241966e-39   0.000000e+00   0.000000e+00
     1232000   1.231999e-05   7.636889e+00   3.828578e+00   3.068037e+01   6.117591e+05  -3.446047e+05   9.457386e+05  -1.694011e+01  -3.007291e+01  -1.566077e-20   1.177889e+06   3.981592e-39   0.000000e+00   0.000000e+00
     1240000   1.239999e-05   7.685829e+00   3.801010e+00   3.075602e+01   6.117591e+05  -3.446047e+05   9.457386e+05  -1.519045e+01  -2.696682e+01   9.546589e-21   1.177889e+06   3.201511e-39   0.000000e+00   0.000000e+00
     1248000   1.247999e-05   7.734770e+00   3.773441e+00   3.083168e+01   6.117591e+05  -3.446047e+05   9.457386e+05  -1.452838e+01  -2.579149e+01  -1.415006e-20   1.177889e+06   2.928357e-39   0.000000e+00   0.000000e+00
     1256000   1.255999e-05   7.783711e+00   3.745873e+00   3.090734e+01   6.117591e+05  -3.446047e+05   9.457386e+05  -1.065480e+01  -1.891491e+01  -1.035732e-20   1.177889e+06   1.575331e-39   0.000000e+00   0.000000e+00
     1264000   1.263999e-05   7.832652e+00   3.718305e+00   3.098300e+01   6.117591e+05  -3.446047e+05   9.457386e+05  -8.407729e+00  -1.492581e+01   2.208689e-20   1.177889e+06   9.806883e-40   0.000000e+00   0.000000e+00
     1272000   1.271999e-05   7.881592e+00   3.690736e+00   3.105866e+01   6.117591e+05  -3.446047e+05   9.457386e+05  -1.089794e+01  -1.934656e+01  -4.128975e-20   1.177889e+06   1.647730e-39   0.000000e+00   0.000000e+00
     1280000   1.279999e-05   7.930533e+00   3.663168e+00   3.113432e+01   6.117591e+05  -3.446047e+05   9.457386e+05  -1.695237e+01  -3.009467e+01   1.443559e-20   1.177889e+06   3.986758e-39   0.000000e+00   0.000000e+00
     1288000   1.287999e-05   7.979474e+00   3.635600e+00   3.120998e+01   6.117591e+05  -3.446047e+05   9.457386e+05  -1.568947e+01  -2.785271e+01  -4.649740e-21   1.177889e+06   3.415384e-39   0.000000e+00   0.000000e+00
     1296000   1.295999e-05   8.028414e+00   3.608031e+00   3.128564e+01   6.117591e+05  -3.446047e+05   9.457386e+05  -1.635019e+01  -2.902565e+01  -1.025876e-21   1.177889e+06   3.708905e-39   0.000000e+00   0.000000e+00
     1304000   1.303999e-05   8.077355e+00   3.580463e+00   3.136130e+01   6.117591e+05  -3.446047e+05   9.457386e+05  -2.611500e+01  -4.636062e+01  -9.884413e-21   1.177889e+06   9.461886e-39   0.000000e+00   0.000000e+00
     1312000   1.311999e-05   8.126296e+00   3.552894e+00   3.143696e+01   6.117591e+05  -3.446047e+05   9.457386e+05  -1.405881e+01  -2.495789e+01   3.455618e-21   1.177889e+06   2.742343e-39   0.000000e+00   0.000000e+00
     1320000   1.319999e-05   8.175237e+00   3.525326e+00   3.151262e+01   6.117591e+05  -3.446047e+05   9.457386e+05  -2.616981e+00  -4.645793e+00  -5.561997e-22   1.177889e+06   9.504093e-41   0.000000e+00   0.000000e+00
     1328000   1.327999e-05   8.224177e+00   3.497758e+00   3.158827e+01   6.117591e+05  -3.446047e+05   9.457386e+05  -1.594194e+00  -2.830090e+00   9.275399e-23   1.177889e+06   3.526907e-41   0.000000e+00   0.000000e+00
     1336000   1.335999e-05   8.273118e+00   3.470189e+00   3.166393e+01   6.117591e+05  -3.446047e+05   9.457386e+05  -2.256167e+00  -4.005258e+00   6.325410e-22   1.177889e+06   7.066346e-41   0.000000e+00   0.000000e+00
     1344000   1.343999e-05   8.322059e+00   3.442621e+00   3.173959e+01   6.117591e+05  -3.446047e+05   9.457386e+05  -1.175102e+01  -2.086098e+01  -1.661051e-20   1.177889e+06   1.915444e-39   0.000000e+00   0.000000e+00
     1352000   1.351999e-05   8.371000e+00   3.415053e+00   3.181525e+01   6.117591e+05  -3.446047e+05   9.457386e+05  -1.646922e+01  -2.923696e+01  -2.585145e-20   1.177889e+06   3.762838e-39   0.000000e+00   0.000000e+00
     1360000   1.359999e-05   8.419940e+00   3.387484e+00   3.189091e+01   6.117591e+05  -3.446047e+05   9.457386e+05  -1.317621e+01  -2.339106e+01  -1.791883e-21   1.177889e+06   2.409131e-39   0.000000e+00   0.000000e+00
     1368000   1.367999e-05   8.468881e+00   3.359916e+00   3.196657e+01   6.117591e+05  -3.446047e+05   9.457386e+05  -2.541160e+01  -4.511191e+01   2.955537e-20   1.177889e+06   8.959519e-39   0.000000e+00   0.000000e+00
     1376000   1.375999e-05   8.517822e+00   3.332347e+00   3.204223e+01   6.117591e+05  -3.446047e+05   9.457386e+05  -1.372598e+01  -2.436703e+01  -7.009310e-21   1.177889e+06   2.613488e-39   0.000000e+00   0.000000e+00
     1384000   1.383999e-05   8.566762e+00   3.304779e+00   3.211789e+01   6.117591e+05  -3.446047e+05   9.457386e+05  -1.651253e+01  -2.931386e+01   5.258226e-21   1.177889e+06   3.783217e-39   0.000000e+00   0.000000e+00
     1392000   1.391999e-05   8.615703e+00   3.277211e+00   3.219355e+01   6.117591e+05  -3.446047e+05   9.457386e+05  -1.305350e+01  -2.317320e+01   2.844720e-20   1.177889e+06   2.364199e-39   0.000000e+00   0.000000e+00
     1400000   1.399999e-05   8.664644e+00   3.249642e+00   3.226921e+01   6.117591e+05  -3.446047e+05   9.457386e+05  -2.635658e+01  -4.678948e+01  -1.357333e-20   1.177889e+06   9.637036e-39   0.000000e+00   0.000000e+00
     1408000   1.407999e-05   8.713585e+00   3.222074e+00   3.234487e+01   6.117591e+05  -3.446047e+05   9.457386e+05  -1.599851e+01  -2.840133e+01  -2.406658e-20   1.177889e+06   3.551018e-39   0.000000e+00   0.000000e+00
     1416000   1.415999e-05   8.762525e+00   3.194506e+00   3.242052e+01   6.117591e+05  -3.446047e+05   9.457386e+05  -3.096330e+01  -5.496756e+01   1.480390e-20   1.177889e+06   1.330077e-38   0.000000e+00   0.000000e+00
     1424000   1.423999e-05   8.811466e+00   3.166937e+00   3.249618e+01   6.117591e+05  -3.446047e+05   9.457386e+05  -3.693634e+00  -6.557120e+00   3.383851e-21   1.177889e+06   1.893323e-40   0.000000e+00   0.000000e+00
     1432000   1.431999e-05   8.860407e+00   3.139369e+00   3.257184e+01   6.117591e+05  -3.446047e+05   9.457386e+05  -1.533168e+01  -2.721755e+01   4.480793e-21   1.177889e+06   3.261058e-39   0.000000e+00   0.000000e+00
     1440000   1.439999e-05   8.909348e+00   3.111801e+00   3.264750e+01   6.117591e+05  -3.446047e+05   9.457386e+05  -1.193779e+01  -2.119255e+01   1.385227e-20   1.177889e+06   1.976865e-39   0.000000e+00   0.000000e+00
     1448000   1.447999e-05   8.958288e+00   3.084232e+00   3.272316e+01   6.117591e+05  -3.446047e+05   9.457386e+05  -1.580946e+01  -2.806573e+01  -1.286439e-20   1.177889e+06   3.467812e-39   0.000000e+00   0.000000e+00
     1456000   1.455999e-05   9.007229e+00   3.056664e+00   3.279882e+01   6.117591e+05  -3.446047e+05   9.457386e+05  -6.146724e+00  -1.091196e+01   5.701063e-21   1.177889e+06   5.243080e-40   0.000000e+00   0.000000e+00
     1464000   1.463999e-05   9.056170e+00   3.029095e+00   3.287448e+01   6.117591e+05  -3.446047e+05   9.457386e+05  -1.838027e+01  -3.262956e+01  -2.031611e-20   1.177889e+06   4.686770e-39   0.000000e+00   0.000000e+00
     1472000   1.471999e-05   9.105110e+00   3.001527e+00   3.295014e+01   6.117591e+05  -3.446047e+05   9.457386e+05  -1.382512e+01  -2.454304e+01  -2.495709e-20   1.177889e+06   2.651763e-39   0.000000e+00   0.000000e+00
     1480000   1.479999e-05   9.154051e+00   2.973959e+00   3.302580e+01   6.117591e+05  -3.446047e+05   9.457386e+05  -1.385850e+01  -2.460228e+01   3.082815e-20   1.177889e+06   2.664685e-39   0.000000e+00   0.000000e+00
     1488000   1.487999e-05   9.202992e+00   2.946390e+00   3.310146e+01   6.117591e+05  -3.446047e+05   9.457386e+05  -1.504191e+01  -2.670313e+01  -6.860203e-21   1.177889e+06   3.139081e-39   0.000000e+00   0.000000e+00
     1496000   1.495999e-05   9.251933e+00   2.918822e+00   3.317711e+01   6.117591e+05  -3.446047e+05   9.457386e+05  -1.653467e+01  -2.935316e+01  -6.931637e-21   1.177889e+06   3.793052e-39   0.000000e+00   0.000000e+00
     1504000   1.503999e-05   9.300873e+00   2.891254e+00   3.325277e+01   6.117591e+05  -3.446047e+05   9.457386e+05  -1.885480e+01  -3.347195e+01  -9.843193e-21   1.177889e+06   4.931656e-39   0.000000e+00   0.000000e+00
     1512000   1.511999e-05   9.349814e+00   2.863685e+00   3.332843e+01   6.117591e+05  -3.446047e+05   9.457386e+05  -1.605293e+01  -2.849795e+01  -1.208064e-20   1.177889e+06   3.575840e-39   0.000000e+00   0.000000e+00
     1520000   1.519999e-05   9.398755e+00   2.836117e+00   3.340409e+01   6.117591e+05  -3.446047e+05   9.457386e+05  -1.979853e+01  -3.514733e+01   1.081565e-20   1.177889e+06   5.437734e-39   0.000000e+00   0.000000e+00
     1528000   1.527999e-05   9.447696e+00   2.808548e+00   3.347975e+01   6.117591e+05  -3.446047e+05   9.457386e+05  -1.331097e+01  -2.363029e+01   2.393072e-20   1.177889e+06   2.458485e-39   0.000000e+00   0.000000e+00
     1536000   1.535999e-05   9.496636e+00   2.780980e+00   3.355541e+01   6.117591e+05  -3.446047e+05   9.457386e+05  -1.105027e+01  -1.961697e+01  -1.192768e-20   1.177889e+06   1.694350e-39   0.000000e+00   0.000000e+00
     1544000   1.543999e-05   9.545577e+00   2.753412e+00   3.363107e+01   6.117591e+05  -3.446047e+05   9.457386e+05  -7.887250e+00  -1.400183e+01  -7.394732e-21   1.177889e+06   8.632061e-40   0.000000e+00   0.000000e+00
     1552000   1.551999e-05   9.594518e+00   2.725843e+00   3.370673e+01   6.117591e+05  -3.446047e+05   9.457386e+05  -5.594837e+00  -9.932228e+00   1.334063e-20   1.177889e+06   4.343849e-40   0.000000e+00   0.000000e+00
     1560000   1.559999e-05   9.643458e+00   2.698275e+00   3.378239e+01   6.117591e+05  -3.446047e+05   9.457386e+05   1.102357e+01   1.956959e+01   7.377417e-21   1.177889e+06   1.685529e-39   0.000000e+00   0.000000e+00
     1568000   1.567999e-05   9.692399e+00   2.670707e+00   3.385805e+01   6.117591e+05  -3.446047e+05   9.457386e+05  -1.446830e+01  -2.568483e+01   1.074975e-20   1.177889e+06   2.903604e-39   0.000000e+00   0.000000e+00
     1576000   1.575999e-05   9.741340e+00   2.643138e+00   3.393371e+01   6.117591e+05  -3.446047e+05   9.457386e+05   2.221566e-02   3.943832e-02  -4.288188e-23   1.177889e+06   6.588315e-45   0.000000e+00   0.000000e+00
     1584000   1.583999e-05   9.790281e+00   2.615570e+00   3.400936e+01   6.117591e+05  -3.446047e+05   9.457386e+05  -1.140507e+00  -2.024684e+00   1.756372e-21   1.177889e+06   1.806805e-41   0.000000e+00   0.000000e+00
     1592000   1.591999e-05   9.839221e+00   2.588001e+00   3.408502e+01   6.117591e+05  -3.446047e+05   9.457386e+05  -3.653574e+00  -6.486003e+00   4.826590e-21   1.177889e+06   1.851564e-40   0.000000e+00   0.000000e+00
     1600000   1.599999e-05   9.888162e+00   2.560433e+00   3.416068e+01   6.117591e+05  -3.446047e+05   9.457386e+05   2.769506e+00   4.916562e+00  -7.223805e-21   1.177889e+06   1.064401e-40   0.000000e+00   0.000000e+00
     1608000   1.607999e-05   9.937103e+00   2.532865e+00   3.423634e+01   6.117591e+05  -3.446047e+05   9.457386e+05  -9.822735e+00  -1.743780e+01  -1.082730e-22   1.177889e+06   1.338726e-39   0.000000e+00   0.000000e+00
     1616000   1.615999e-05   9.986043e+00   2.505296e+00   3.431200e+01   6.117591e+05  -3.446047e+05   9.457386e+05  -1.428524e+01  -2.535985e+01   3.449064e-20   1.177889e+06   2.831206e-39   0.000000e+00   0.000000e+00
     1624000   1.623999e-05   1.003498e+01   2.477728e+00   3.438766e+01   6.117591e+05  -3.446047e+05   9.457386e+05  -6.152586e+00  -1.092237e+01   8.825658e-21   1.177889e+06   5.253682e-40   0.000000e+00   0.000000e+00
     1632000   1.631999e-05   1.008392e+01   2.450160e+00   3.446332e+01   6.117591e+05  -3.446047e+05   9.457386e+05  -1.778466e+01  -3.157220e+01   9.930188e-21   1.177889e+06   4.387755e-39   0.000000e+00   0.000000e+00
     1640000   1.639999e-05   1.013287e+01   2.422591e+00   3.453898e+01   6.117591e+05  -3.446047e+05   9.457386e+05  -1.190149e+01  -2.112811e+01   8.125545e-22   1.177889e+06   1.965021e-39   0.000000e+00   0.000000e+00
     1648000   1.647999e-05   1.018181e+01   2.395023e+00   3.461464e+01   6.117591e+05  -3.446047e+05   9.457386e+05  -1.498461e+01  -2.660141e+01  -4.677641e-21   1.177889e+06   3.115379e-39   0.000000e+00   0.000000e+00
     1656000   1.655999e-05   1.023075e+01   2.367454e+00   3.469030e+01   6.117591e+05  -3.446047e+05   9.457386e+05  -2.043063e+01  -3.626944e+01  -1.305401e-20   1.177889e+06   5.790741e-39   0.000000e+00   0.000000e+00
     1664000   1.663999e-05   1.027969e+01   2.339886e+00   3.476596e+01   6.117591e+05  -3.446047e+05   9.457386e+05  -7.406777e+00  -1.314887e+01   1.235762e-20   1.177889e+06   7.613376e-40   0.000000e+00   0.000000e+00
     1672000   1.671999e-05   1.032863e+01   2.312318e+00   3.484161e+01   6.117591e+05  -3.446047e+05   9.457386e+05  -1.080686e+01  -1.918487e+01   9.836077e-21   1.177889e+06   1.620491e-39   0.000000e+00   0.000000e+00
     1680000   1.679999e-05   1.037757e+01   2.284749e+00   3.491727e+01   6.117591e+05  -3.446047e+05   9.457386e+05  -1.158764e+01  -2.057094e+01   6.183716e-21   1.177889e+06   1.863071e-39   0.000000e+00   0.000000e+00
     1688000   1.687999e-05   1.042651e+01   2.257181e+00   3.499293e+01   6.117591e+05  -3.446047e+05   9.457386e+05  -8.645312e+00  -1.534758e+01  -4.381390e-22   1.177889e+06   1.036992e-39   0.000000e+00   0.000000e+00
     1696000   1.695999e-05   1.047545e+01   2.229613e+00   3.506859e+01   6.117591e+05  -3.446047e+05   9.457386e+05  -1.876601e+01  -3.331434e+01  -5.656688e-21   1.177889e+06   4.885645e-39   0.000000e+00   0.000000e+00
     1704000   1.703999e-05   1.052439e+01   2.202044e+00   3.514425e+01   6.117591e+05  -3.446047e+05   9.457386e+05  -1.226281e+01  -2.176955e+01   1.059882e-20   1.177889e+06   2.086168e-39   0.000000e+00   0.000000e+00
     1712000   1.711999e-05   1.057333e+01   2.174476e+00   3.521991e+01   6.117591e+05  -3.446047e+05   9.457386e+05  -1.841988e+01  -3.269986e+01  -2.084742e-20   1.177889e+06   4.707279e-39   0.000000e+00   0.000000e+00
     1720000   1.719999e-05   1.062227e+01   2.146907e+00   3.529557e+01   6.117591e+05  -3.446047e+05   9.457386e+05  -4.411389e+00  -7.831314e+00  -5.787762e-21   1.177889e+06   2.700460e-40   0.000000e+00   0.000000e+00
     1728000   1.727999e-05   1.067121e+01   2.119339e+00   3.537123e+01   6.117591e+05  -3.446047e+05   9.457386e+05  -1.118424e+01  -1.985482e+01   1.135092e-20   1.177889e+06   1.735228e-39   0.000000e+00   0.000000e+00
     1736000   1.735999e-05   1.072015e+01   2.091771e+00   3.544689e+01   6.117591e+05  -3.446047e+05   9.457386e+05  -9.526628e+00  -1.691214e+01   1.429032e-22   1.177889e+06   1.259208e-39   0.000000e+00   0.000000e+00
     1744000   1.743999e-05   1.076910e+01   2.064202e+00   3.552255e+01   6.117591e+05  -3.446047e+05   9.457386e+05  -1.280012e+01  -2.272340e+01  -8.194038e-21   1.177889e+06   2.273070e-39   0.000000e+00   0.000000e+00
     1752000   1.751999e-05   1.081804e+01   2.036634e+00   3.559821e+01   6.117591e+05  -3.446047e+05   9.457386e+05  -5.494217e+00  -9.753602e+00  -5.937693e-21   1.177889e+06   4.188864e-40   0.000000e+00   0.000000e+00
     1760000   1.759999e-05   1.086698e+01   2.009066e+00   3.567386e+01   6.117591e+05  -3.446047e+05   9.457386e+05  -1.003723e+01  -1.781858e+01  -2.214389e-21   1.177889e+06   1.397691e-39   0.000000e+00   0.000000e+00
     1768000   1.767999e-05   1.091592e+01   1.981497e+00   3.574952e+01   6.117591e+05  -3.446047e+05   9.457386e+05  -6.877810e+00  -1.220982e+01  -3.643282e-21   1.177889e+06   6.563626e-40   0.000000e+00   0.000000e+00
     1776000   1.775999e-05   1.096486e+01   1.953929e+00   3.582518e+01   6.117591e+05  -3.446047e+05   9.457386e+05  -1.047278e+01  -1.859178e+01   2.174500e-21   1.177889e+06   1.521494e-39   0.000000e+00   0.000000e+00
     1784000   1.783999e-05   1.101380e+01   1.926360e+00   3.590084e+01   6.117591e+05  -3.446047e+05   9.457386e+05  -9.915947e+00  -1.760327e+01  -2.089993e-21   1.177889e+06   1.364080e-39   0.000000e+00   0.000000e+00
     1792000   1.791999e-05   1.106274e+01   1.898792e+00   3.597650e+01   6.117591e+05  -3.446047e+05   9.457386e+05  -2.684865e+01  -4.766304e+01  -2.212720e-20   1.177889e+06   1.000042e-38   0.000000e+00   0.000000e+00
     1800000   1.799999e-05   1.111168e+01   1.871224e+00   3.605216e+01   6.117591e+05  -3.446047e+05   9.457386e+05  -7.451006e+00  -1.322739e+01  -1.663147e-20   1.177889e+06   7.703063e-40   0.000000e+00   0.000000e+00
     1808000   1.807999e-05   1.116062e+01   1.843655e+00   3.612782e+01   6.117591e+05  -3.446047e+05   9.457386e+05  -1.283207e+01  -2.278011e+01  -3.637071e-20   1.177889e+06   2.284565e-39   0.000000e+00   0.000000e+00
     1816000   1.815999e-05   1.120956e+01   1.816087e+00   3.620348e+01   6.117591e+05  -3.446047e+05   9.457386e+05  -7.428647e+00  -1.318770e+01  -2.210964e-20   1.177889e+06   7.655719e-40   0.000000e+00   0.000000e+00
     1824000   1.823999e-05   1.125850e+01   1.788519e+00   3.627914e+01   6.117591e+05  -3.446047e+05   9.457386e+05  -7.612401e+00  -1.351391e+01   1.834400e-20   1.177889e+06   8.040065e-40   0.000000e+00   0.000000e+00
     1832000   1.831999e-05   1.130744e+01   1.760950e+00   3.635480e+01   6.117591e+05  -3.446047e+05   9.457386e+05  -7.795572e+00  -1.383908e+01   5.099656e-21   1.177889e+06   8.433724e-40   0.000000e+00   0.000000e+00
     1840000   1.839999e-05   1.135638e+01   1.733382e+00   3.643046e+01   6.117591e+05  -3.446047e+05   9.457386e+05  -7.473146e+00  -1.326669e+01   7.506405e-21   1.177889e+06   7.747789e-40   0.000000e+00   0.000000e+00
     1848000   1.847999e-05   1.140532e+01   1.705813e+00   3.650611e+01   6.117591e+05  -3.446047e+05   9.457386e+05  -5.091583e+00  -9.038826e+00   1.882980e-21   1.177889e+06   3.596680e-40   0.000000e+00   0.000000e+00
     1856000   1.855999e-05   1.145427e+01   1.678245e+00   3.658177e+01   6.117591e+05  -3.446047e+05   9.457386e+05   2.370227e+00   4.207743e+00   2.825118e-23   1.177889e+06   7.789083e-41   0.000000e+00   0.000000e+00
     1864000   1.863999e-05   1.150321e+01   1.650677e+00   3.665743e+01   6.117591e+05  -3.446047e+05   9.457386e+05  -3.109417e+00  -5.519990e+00   4.267840e-21   1.177889e+06   1.342053e-40   0.000000e+00   0.000000e+00
     1872000   1.871999e-05   1.155215e+01   1.623108e+00   3.673309e+01   6.117591e+05  -3.446047e+05   9.457386e+05  -1.105736e+01  -1.962957e+01   3.982436e-21   1.177889e+06   1.695971e-39   0.000000e+00   0.000000e+00
     1880000   1.879999e-05   1.160109e+01   1.595540e+00   3.680875e+01   6.117591e+05  -3.446047e+05   9.457386e+05  -7.702385e+00  -1.367365e+01  -1.501197e-20   1.177889e+06   8.229954e-40   0.000000e+00   0.000000e+00
     1888000   1.887999e-05   1.165003e+01   1.567972e+00   3.688441e+01   6.117591e+05  -3.446047e+05   9.457386e+05  -1.200198e+01  -2.130650e+01  -4.102592e-21   1.177889e+06   1.998363e-39   0.000000e+00   0.000000e+00
     1896000   1.895999e-05   1.169897e+01   1.540403e+00   3.696007e+01   6.117591e+05  -3.446047e+05   9.457386e+05  -2.033745e+01  -3.610404e+01  -2.483785e-20   1.177889e+06   5.738248e-39   0.000000e+00   0.000000e+00
     1904000   1.903999e-05   1.174791e+01   1.512835e+00   3.703573e+01   6.117591e+05  -3.446047e+05   9.457386e+05  -1.587688e+01  -2.818541e+01  -1.830418e-20   1.177889e+06   3.496905e-39   0.000000e+00   0.000000e+00
     1912000   1.911999e-05   1.179685e+01   1.485266e+00   3.711139e+01   6.117591e+05  -3.446047e+05   9.457386e+05  -1.345078e+01  -2.387848e+01  -2.103256e-20   1.177889e+06   2.510447e-39   0.000000e+00   0.000000e+00
     1920000   1.919999e-05   1.184579e+01   1.457698e+00   3.718705e+01   6.117591e+05  -3.446047e+05   9.457386e+05  -1.789545e+01  -3.176888e+01  -2.632037e-20   1.177889e+06   4.442846e-39   0.000000e+00   0.000000e+00
     1928000   1.927999e-05   1.189473e+01   1.430130e+00   3.726271e+01   6.117591e+05  -3.446047e+05   9.457386e+05  -2.835340e+01  -5.033435e+01  -3.603548e-20   1.177889e+06   1.115293e-38   0.000000e+00   0.000000e+00
     1936000   1.935999e-05   1.194367e+01   1.402561e+00   3.733836e+01   6.117591e+05  -3.446047e+05   9.457386e+05  -1.498960e+01  -2.661027e+01   1.937268e-20   1.177889e+06   3.117343e-39   0.000000e+00   0.000000e+00
     1944000   1.943999e-05   1.199261e+01   1.374993e+00   3.741402e+01   6.117591e+05  -3.446047e+05   9.457386e+05  -3.161302e+01  -5.612097e+01  -3.390285e-21   1.177889e+06   1.386543e-38   0.000000e+00   0.000000e+00
     1952000   1.951999e-05   1.204155e+01   1.347425e+00   3.748968e+01   6.117591e+05  -3.446047e+05   9.457386e+05  -2.875748e+00  -5.105169e+00  -3.341501e-21   1.177889e+06   1.147749e-40   0.000000e+00   0.000000e+00
     1960000   1.959999e-05   1.209049e+01   1.319856e+00   3.756534e+01   6.117591e+05  -3.446047e+05   9.457386e+05  -4.679413e+00  -8.307123e+00   5.603393e-21   1.177889e+06   3.038020e-40   0.000000e+00   0.000000e+00
     1968000   1.967999e-05   1.213944e+01   1.292288e+00   3.764100e+01   6.117591e+05  -3.446047e+05   9.457386e+05   1.215201e+00   2.157284e+00   1.771338e-21   1.177889e+06   2.044959e-41   0.000000e+00   0.000000e+00
     1976000   1.975999e-05   1.218838e+01   1.264719e+00   3.771666e+01   6.117591e+05  -3.446047e+05   9.457386e+05  -6.487886e+00  -1.151761e+01  -3.105879e-21   1.177889e+06   5.838019e-40   0.000000e+00   0.000000e+00
     1984000   1.983999e-05   1.223732e+01   1.237151e+00   3.779232e+01   6.117591e+05  -3.446047e+05   9.457386e+05  -4.182992e+00  -7.425852e+00   8.649737e-22   1.177889e+06   2.427793e-40   0.000000e+00   0.000000e+00
     1992000   1.991999e-05   1.228626e+01   1.209583e+00   3.786798e+01   6.117591e+05  -3.446047e+05   9.457386e+05  -6.310164e-01  -1.120211e+00  -5.187783e-22   1.177889e+06   5.523279e-42   0.000000e+00   0.000000e+00
     2000000   1.999999e-05   1.233520e+01   1.182014e+00   3.794364e+01   6.117591e+05  -3.446047e+05   9.457386e+05  -7.605622e-01  -1.350187e+00  -1.145724e-21   1.177889e+06   8.025552e-42   0.000000e+00   0.000000e+00
     2008000   2.007999e-05   1.238414e+01   1.154446e+00   3.801930e+01   6.117591e+05  -3.446047e+05   9.457386e+05   1.220882e+00   2.167369e+00  -3.105966e-22   1.177889e+06   2.067140e-41   0.000000e+00   0.000000e+00
     2016000   2.015999e-05   1.243308e+01   1.126878e+00   3.809496e+01   6.117591e+05  -3.446047e+05   9.457386e+05  -3.575285e+00  -6.347021e+00  -3.788149e-22   1.177889e+06   1.773647e-40   0.000000e+00   0.000000e+00
     2024000   2.023999e-05   1.248202e+01   1.099309e+00   3.817061e+01   6.117591e+05  -3.446047e+05   9.457386e+05  -1.765572e+00  -3.134330e+00   2.353585e-21   1.177889e+06   4.324847e-41   0.000000e+00   0.000000e+00
     2032000   2.031999e-05   1.253096e+01   1.071741e+00   3.824627e+01   6.117591e+05  -3.446047e+05   9.457386e+05   9.499195e-01   1.686344e+00  -1.293605e-22   1.177889e+06   1.251416e-41   0.000000e+00   0.000000e+00
     2040000   2.039999e-05   1.257990e+01   1.044172e+00   3.832193e+01   6.117591e+05  -3.446047e+05   9.457386e+05   7.069426e+00   1.254999e+01  -7.917940e-21   1.177889e+06   6.933160e-40   0.000000e+00   0.000000e+00
     2048000   2.047999e-05   1.262884e+01   1.016604e+00   3.839759e+01   6.117591e+05  -3.446047e+05   9.457386e+05  -8.978724e+00  -1.593947e+01  -1.105810e-20   1.177889e+06   1.118216e-39   0.000000e+00   0.000000e+00
     2056000   2.055999e-05   1.267778e+01   9.890357e-01   3.847325e+01   6.117591e+05  -3.446047e+05   9.457386e+05  -7.552879e+00  -1.340824e+01  -1.319920e-20   1.177889e+06   7.913573e-40   0.000000e+00   0.000000e+00
     2064000   2.063999e-05   1.272672e+01   9.614673e-01   3.854891e+01   6.117591e+05  -3.446047e+05   9.457386e+05  -1.121381e+01  -1.990730e+01  -1.424677e-20   1.177889e+06   1.744623e-39   0.000000e+00   0.000000e+00
     2072000   2.071999e-05   1.277566e+01   9.338990e-01   3.862457e+01   6.117591e+05  -3.446047e+05   9.457386e+05   1.004647e+00   1.783498e+00  -3.324203e-22   1.177889e+06   1.400090e-41   0.000000e+00   0.000000e+00
     2080000   2.079999e-05   1.282461e+01   9.063306e-01   3.870023e+01   6.117591e+05  -3.446047e+05   9.457386e+05  -7.480433e+00  -1.327963e+01   1.229316e-20   1.177889e+06   7.764760e-40   0.000000e+00   0.000000e+00
     2088000   2.087999e-05   1.287355e+01   8.787622e-01   3.877589e+01   6.117591e+05  -3.446047e+05   9.457386e+05  -3.274286e+00  -5.812673e+00   3.730069e-21   1.177889e+06   1.488050e-40   0.000000e+00   0.000000e+00
     2096000   2.095999e-05   1.292249e+01   8.511938e-01   3.885155e+01   6.117591e+05  -3.446047e+05   9.457386e+05  -3.507108e+00  -6.225989e+00  -1.154548e-21   1.177889e+06   1.706820e-40   0.000000e+00   0.000000e+00
     2104000   2.103999e-05   1.297143e+01   8.236255e-01   3.892721e+01   6.117591e+05  -3.446047e+05   9.457386e+05  -8.637132e-02  -1.533306e-01   1.793803e-22   1.177889e+06   1.039652e-43   0.000000e+00   0.000000e+00
     2112000   2.111999e-05   1.302037e+01   7.960571e-01   3.900286e+01   6.117591e+05  -3.446047e+05   9.457386e+05  -3.171337e+00  -5.629913e+00   4.146932e-21   1.177889e+06   1.395860e-40   0.000000e+00   0.000000e+00
     2120000   2.119999e-05   1.306931e+01   7.684887e-01   3.907852e+01   6.117591e+05  -3.446047e+05   9.457386e+05   1.194322e+00   2.120218e+00   1.001857e-21   1.177889e+06   1.977212e-41   0.000000e+00   0.000000e+00
     2128000   2.127999e-05   1.311825e+01   7.409203e-01   3.915418e+01   6.117591e+05  -3.446047e+05   9.457386e+05  -3.339828e+00  -5.929026e+00   5.545436e-21   1.177889e+06   1.548107e-40   0.000000e+00   0.000000e+00
     2136000   2.135999e-05   1.316719e+01   7.133520e-01   3.922984e+01   6.117591e+05  -3.446047e+05   9.457386e+05  -4.740427e+00  -8.415437e+00   1.247868e-20   1.177889e+06   3.117196e-40   0.000000e+00   0.000000e+00
     2144000   2.143999e-05   1.321613e+01   6.857836e-01   3.930550e+01   6.117591e+05  -3.446047e+05   9.457386e+05   1.063240e+00   1.887515e+00  -1.323666e-21   1.177889e+06   1.567053e-41   0.000000e+00   0.000000e+00
     2152000   2.151999e-05   1.326507e+01   6.582152e-01   3.938116e+01   6.117591e+05  -3.446047e+05   9.457386e+05   4.845005e+00   8.601089e+00   7.827087e-22   1.177889e+06   3.256201e-40   0.000000e+00   0.000000e+00
     2160000   2.159999e-05   1.331401e+01   6.306468e-01   3.945682e+01   6.117591e+05  -3.446047e+05   9.457386e+05  -2.054994e+00  -3.648125e+00  -3.232720e-21   1.177889e+06   5.863843e-41   0.000000e+00   0.000000e+00
     2168000   2.167999e-05   1.336295e+01   6.030785e-01   3.953248e+01   6.117591e+05  -3.446047e+05   9.457386e+05  -2.593889e+00  -4.604799e+00  -1.664533e-21   1.177889e+06   9.331130e-41   0.000000e+00   0.000000e+00
     2176000   2.175999e-05   1.341189e+01   5.755101e-01   3.960814e+01   6.117591e+05  -3.446047e+05   9.457386e+05  -2.281282e+00  -4.049843e+00  -1.869801e-22   1.177889e+06   7.221964e-41   0.000000e+00   0.000000e+00
     2184000   2.183999e-05   1.346083e+01   5.479417e-01   3.968380e+01   6.117591e+05  -3.446047e+05   9.457386e+05  -3.930593e-01  -6.977781e-01   7.520522e-22   1.177889e+06   2.146076e-42   0.000000e+00   0.000000e+00
     2192000   2.191999e-05   1.350978e+01   5.203733e-01   3.975946e+01   6.117591e+05  -3.446047e+05   9.457386e+05  -3.086003e+00  -5.478423e+00  -2.823892e-21   1.177889e+06   1.320558e-40   0.000000e+00   0.000000e+00
     2200000   2.199999e-05   1.355872e+01   4.928050e-01   3.983511e+01   6.117591e+05  -3.446047e+05   9.457386e+05  -4.851291e+00  -8.612249e+00  -1.128050e-21   1.177889e+06   3.264856e-40   0.000000e+00   0.000000e+00
     2208000   2.207999e-05   1.360766e+01   4.652366e-01   3.991077e+01   6.117591e+05  -3.446047e+05   9.457386e+05  -3.707673e+00  -6.582042e+00   1.676302e-21   1.177889e+06   1.906638e-40   0.000000e+00   0.000000e+00
     2216000   2.215999e-05   1.365660e+01   4.376682e-01   3.998643e+01   6.117591e+05  -3.446047e+05   9.457386e+05  -8.558468e+00  -1.519341e+01   1.357911e-20   1.177889e+06   1.016104e-39   0.000000e+00   0.000000e+00
     2224000   2.223999e-05   1.370554e+01   4.100999e-01   4.006209e+01   6.117591e+05  -3.446047e+05   9.457386e+05  -6.240518e+00  -1.107847e+01   8.917282e-21   1.177889e+06   5.404772e-40   0.000000e+00   0.000000e+00
     2232000   2.231999e-05   1.375448e+01   3.825315e-01   4.013775e+01   6.117591e+05  -3.446047e+05   9.457386e+05  -3.857844e+00  -6.848634e+00  -2.689717e-21   1.177889e+06   2.065386e-40   0.000000e+00   0.000000e+00
     2240000   2.239999e-05   1.380342e+01   3.549631e-01   4.021341e+01   6.117591e+05  -3.446047e+05   9.457386e+05  -3.188006e+00  -5.659504e+00   1.874533e-22   1.177889e+06   1.410797e-40   0.000000e+00   0.000000e+00
     2248000   2.247999e-05   1.385236e+01   3.273947e-01   4.028907e+01   6.117591e+05  -3.446047e+05   9.457386e+05   3.237743e+00   5.747801e+00   3.073807e-21   1.177889e+06   1.453707e-40   0.000000e+00   0.000000e+00
     2256000   2.255999e-05   1.390130e+01   2.998264e-01   4.036473e+01   6.117591e+05  -3.446047e+05   9.457386e+05   4.662559e+06   8.277203e+06   5.166204e-15   1.177889e+06   3.014749e-28   0.000000e+00   0.000000e+00
     2264000   2.263999e-05   1.395024e+01   2.722580e-01   4.044039e+01   6.117592e+05  -3.446044e+05   9.457386e+05  -4.440612e+06  -7.883200e+06  -1.336855e-16   1.177889e+06   2.734805e-28   0.000000e+00   0.000000e+00
     2272000   2.271999e-05   1.399918e+01   2.446896e-01   4.051605e+01   6.117589e+05  -3.446050e+05   9.457386e+05   8.157675e+06   1.448189e+07   1.726183e-15   1.177889e+06   9.230437e-28   0.000000e+00   0.000000e+00
     2280000   2.279999e-05   1.404812e+01   2.171212e-01   4.059171e+01   6.117588e+05  -3.446051e+05   9.457386e+05  -4.033138e+06  -7.159813e+06  -7.872098e-16   1.177889e+06   2.255837e-28   0.000000e+00   0.000000e+00
     2288000   2.287999e-05   1.409706e+01   1.895528e-01   4.066736e+01   6.117579e+05  -3.446067e+05   9.457386e+05  -4.139034e+07  -7.347757e+07   8.956625e-14   1.177889e+06   2.376532e-26   0.000000e+00   0.000000e+00
     2296000   2.295999e-05   1.414601e+01   1.619844e-01   4.074302e+01   6.117588e+05  -3.446052e+05   9.457386e+05  -6.331125e+06  -1.123930e+07  -4.641935e-15   1.177889e+06   5.556437e-28   0.000000e+00   0.000000e+00
     2304000   2.303999e-05   1.419495e+01   1.344159e-01   4.081868e+01   6.117588e+05  -3.446052e+05   9.457386e+05   4.897739e+07   8.694690e+07  -5.169622e-14   1.177889e+06   3.327439e-26   0.000000e+00   0.000000e+00
     2312000   2.311999e-05   1.424389e+01   1.068476e-01   4.089434e+01   6.117604e+05  -3.446023e+05   9.457386e+05   7.202876e+06   1.278702e+07  -1.142131e-14   1.177889e+06   7.203658e-28   0.000000e+00   0.000000e+00
     2320000   2.319999e-05   1.429283e+01   7.927961e-02   4.097000e+01   6.117630e+05  -3.445977e+05   9.457386e+05   4.060601e+07   7.208770e+07   6.855533e-14   1.177889e+06   2.287470e-26   0.000000e+00   0.000000e+00
     2328000   2.327999e-05   1.434177e+01   5.171204e-02   4.104566e+01   6.117664e+05  -3.445917e+05   9.457386e+05   4.546992e+07   8.072444e+07  -5.218933e-14   1.177889e+06   2.868425e-26   0.000000e+00   0.000000e+00
     2336000   2.335999e-05   1.439071e+01   2.414500e-02   4.112132e+01   6.117706e+05  -3.445842e+05   9.457386e+05   5.393505e+07   9.575564e+07   1.218599e-14   1.177889e+06   4.036551e-26   0.000000e+00   0.000000e+00
