     timestep     time              x             y              z              vx             vy             vz             ax             ay             az         v_magnitude      ELoss        Electronic      Nuclear
           0   0.000000e+00   1.000000e-01   9.019998e+00   1.549797e+01   2.071748e+06  -4.710107e+05   1.069995e+06   0.000000e+00   0.000000e+00   0.000000e+00   2.378840e+06   0.000000e+00   0.000000e+00   0.000000e+00
        8000   7.999000e-08   2.657398e-01   8.982317e+00   1.558357e+01   2.071748e+06  -4.710107e+05   1.069995e+06   0.000000e+00   0.000000e+00   0.000000e+00   2.378840e+06   0.000000e+00   0.000000e+00   0.000000e+00
       16000   1.599900e-07   4.314796e-01   8.944636e+00   1.566917e+01   2.071748e+06  -4.710107e+05   1.069995e+06   0.000000e+00   0.000000e+00   0.000000e+00   2.378840e+06   0.000000e+00   0.000000e+00   0.000000e+00
       24000   2.399900e-07   5.972194e-01   8.906955e+00   1.575477e+01   2.071748e+06  -4.710107e+05   1.069995e+06   0.000000e+00   0.000000e+00   0.000000e+00   2.378840e+06   0.000000e+00   0.000000e+00   0.000000e+00
       32000   3.199900e-07   7.629593e-01   8.869275e+00   1.584037e+01   2.071748e+06  -4.710107e+05   1.069995e+06   0.000000e+00   0.000000e+00   0.000000e+00   2.378840e+06   0.000000e+00   0.000000e+00   0.000000e+00
       40000   3.999900e-07   9.286991e-01   8.831594e+00   1.592597e+01   2.071748e+06  -4.710107e+05   1.069995e+06   0.000000e+00   0.000000e+00   0.000000e+00   2.378840e+06   0.000000e+00   0.000000e+00   0.000000e+00
       48000   4.799900e-07   1.094439e+00   8.793913e+00   1.601157e+01   2.071748e+06  -4.710107e+05   1.069995e+06   0.000000e+00   0.000000e+00   0.000000e+00   2.378840e+06   0.000000e+00   0.000000e+00   0.000000e+00
       56000   5.599900e-07   1.260179e+00   8.756232e+00   1.609717e+01   2.071748e+06  -4.710107e+05   1.069995e+06   0.000000e+00   0.000000e+00   0.000000e+00   2.378840e+06   0.000000e+00   0.000000e+00   0.000000e+00
       64000   6.399900e-07   1.425919e+00   8.718551e+00   1.618277e+01   2.071748e+06  -4.710107e+05   1.069995e+06   0.000000e+00   0.000000e+00   0.000000e+00   2.378840e+06   0.000000e+00   0.000000e+00   0.000000e+00
       72000   7.199900e-07   1.591658e+00   8.680870e+00   1.626837e+01   2.071748e+06  -4.710107e+05   1.069995e+06   0.000000e+00   0.000000e+00   0.000000e+00   2.378840e+06   0.000000e+00   0.000000e+00   0.000000e+00
       80000   7.999900e-07   1.757398e+00   8.643189e+00   1.635396e+01   2.071748e+06  -4.710107e+05   1.069995e+06   0.000000e+00   0.000000e+00   0.000000e+00   2.378840e+06   0.000000e+00   0.000000e+00   0.000000e+00
       88000   8.799900e-07   1.923138e+00   8.605509e+00   1.643956e+01   2.071748e+06  -4.710107e+05   1.069995e+06   0.000000e+00   0.000000e+00   0.000000e+00   2.378840e+06   0.000000e+00   0.000000e+00   0.000000e+00
       96000   9.599900e-07   2.088878e+00   8.567828e+00   1.652516e+01   2.071748e+06  -4.710107e+05   1.069995e+06   0.000000e+00   0.000000e+00   0.000000e+00   2.378840e+06   0.000000e+00   0.000000e+00   0.000000e+00
      104000   1.039990e-06   2.254618e+00   8.530147e+00   1.661076e+01   2.071748e+06  -4.710107e+05   1.069995e+06   0.000000e+00   0.000000e+00   0.000000e+00   2.378840e+06   0.000000e+00   0.000000e+00   0.000000e+00
      112000   1.119990e-06   2.420357e+00   8.492466e+00   1.669636e+01   2.071748e+06  -4.710107e+05   1.069995e+06   0.000000e+00   0.000000e+00   0.000000e+00   2.378840e+06   0.000000e+00   0.000000e+00   0.000000e+00
      120000   1.199990e-06   2.586097e+00   8.454785e+00   1.678196e+01   2.071748e+06  -4.710107e+05   1.069995e+06   0.000000e+00   0.000000e+00   0.000000e+00   2.378840e+06   0.000000e+00   0.000000e+00   0.000000e+00
      128000   1.279990e-06   2.751837e+00   8.417104e+00   1.686756e+01   2.071748e+06  -4.710107e+05   1.069995e+06   0.000000e+00   0.000000e+00   0.000000e+00   2.378840e+06   0.000000e+00   0.000000e+00   0.000000e+00
      136000   1.359990e-06   2.917577e+00   8.379423e+00   1.695316e+01   2.071748e+06  -4.710107e+05   1.069995e+06   0.000000e+00   0.000000e+00   0.000000e+00   2.378840e+06   0.000000e+00   0.000000e+00   0.000000e+00
      144000   1.439990e-06   3.083317e+00   8.341743e+00   1.703876e+01   2.071748e+06  -4.710107e+05   1.069995e+06   0.000000e+00   0.000000e+00   0.000000e+00   2.378840e+06   0.000000e+00   0.000000e+00   0.000000e+00
      152000   1.519990e-06   3.249056e+00   8.304062e+00   1.712436e+01   2.071748e+06  -4.710107e+05   1.069995e+06   0.000000e+00   0.000000e+00   0.000000e+00   2.378840e+06   0.000000e+00   0.000000e+00   0.000000e+00
      160000   1.599990e-06   3.414796e+00   8.266381e+00   1.720996e+01   2.071748e+06  -4.710107e+05   1.069995e+06   0.000000e+00   0.000000e+00   0.000000e+00   2.378840e+06   0.000000e+00   0.000000e+00   0.000000e+00
      168000   1.679990e-06   3.580536e+00   8.228700e+00   1.729556e+01   2.071748e+06  -4.710107e+05   1.069995e+06   0.000000e+00   0.000000e+00   0.000000e+00   2.378840e+06   0.000000e+00   0.000000e+00   0.000000e+00
      176000   1.759990e-06   3.746276e+00   8.191019e+00   1.738116e+01   2.071748e+06  -4.710107e+05   1.069995e+06   0.000000e+00   0.000000e+00   0.000000e+00   2.378840e+06   0.000000e+00   0.000000e+00   0.000000e+00
      184000   1.839990e-06   3.912016e+00   8.153338e+00   1.746676e+01   2.071748e+06  -4.710107e+05   1.069995e+06   0.000000e+00   0.000000e+00   0.000000e+00   2.378840e+06   0.000000e+00   0.000000e+00   0.000000e+00
      192000   1.919990e-06   4.077756e+00   8.115658e+00   1.755236e+01   2.071748e+06  -4.710107e+05   1.069995e+06   0.000000e+00   0.000000e+00   0.000000e+00   2.378840e+06   0.000000e+00   0.000000e+00   0.000000e+00
      200000   1.999990e-06   4.243495e+00   8.077977e+00   1.763796e+01   2.071748e+06  -4.710107e+05   1.069995e+06   0.000000e+00   0.000000e+00   0.000000e+00   2.378840e+06   0.000000e+00   0.000000e+00   0.000000e+00
      208000   2.079990e-06   4.409235e+00   8.040296e+00   1.772356e+01   2.071748e+06  -4.710107e+05   1.069995e+06   0.000000e+00   0.000000e+00   0.000000e+00   2.378840e+06   0.000000e+00   0.000000e+00   0.000000e+00
      216000   2.159990e-06   4.574975e+00   8.002615e+00   1.780916e+01   2.071748e+06  -4.710107e+05   1.069995e+06   0.000000e+00   0.000000e+00   0.000000e+00   2.378840e+06   0.000000e+00   0.000000e+00   0.000000e+00
      224000   2.239990e-06   4.740715e+00   7.964934e+00   1.789476e+01   2.071748e+06  -4.710107e+05   1.069995e+06   0.000000e+00   0.000000e+00   0.000000e+00   2.378840e+06   0.000000e+00   0.000000e+00   0.000000e+00
      232000   2.319990e-06   4.906455e+00   7.927253e+00   1.798036e+01   2.071748e+06  -4.710107e+05   1.069995e+06   0.000000e+00   0.000000e+00   0.000000e+00   2.378840e+06   0.000000e+00   0.000000e+00   0.000000e+00
      240000   2.399990e-06   5.072194e+00   7.889572e+00   1.806596e+01   2.071748e+06  -4.710107e+05   1.069995e+06   0.000000e+00   0.000000e+00   0.000000e+00   2.378840e+06   0.000000e+00   0.000000e+00   0.000000e+00
      248000   2.479990e-06   5.237934e+00   7.851892e+00   1.815156e+01   2.071748e+06  -4.710107e+05   1.069995e+06   0.000000e+00   0.000000e+00   0.000000e+00   2.378840e+06   0.000000e+00   0.000000e+00   0.000000e+00
      256000   2.559990e-06   5.403674e+00   7.814211e+00   1.823716e+01   2.071748e+06  -4.710107e+05   1.069995e+06   0.000000e+00   0.000000e+00   0.000000e+00   2.378840e+06   0.000000e+00   0.000000e+00   0.000000e+00
      264000   2.639990e-06   5.569414e+00   7.776530e+00   1.832276e+01   2.071748e+06  -4.710107e+05   1.069995e+06   0.000000e+00   0.000000e+00   0.000000e+00   2.378840e+06   0.000000e+00   0.000000e+00   0.000000e+00
      272000   2.719990e-06   5.735154e+00   7.738849e+00   1.840835e+01   2.071748e+06  -4.710107e+05   1.069995e+06   0.000000e+00   0.000000e+00   0.000000e+00   2.378840e+06   0.000000e+00   0.000000e+00   0.000000e+00
      280000   2.799990e-06   5.900894e+00   7.701168e+00   1.849395e+01   2.071748e+06  -4.710107e+05   1.069995e+06   0.000000e+00   0.000000e+00   0.000000e+00   2.378840e+06   0.000000e+00   0.000000e+00   0.000000e+00
      288000   2.879990e-06   6.066633e+00   7.663487e+00   1.857955e+01   2.071748e+06  -4.710107e+05   1.069995e+06   0.000000e+00   0.000000e+00   0.000000e+00   2.378840e+06   0.000000e+00   0.000000e+00   0.000000e+00
      296000   2.959990e-06   6.232373e+00   7.625806e+00   1.866515e+01   2.071748e+06  -4.710107e+05   1.069995e+06   0.000000e+00   0.000000e+00   0.000000e+00   2.378840e+06   0.000000e+00   0.000000e+00   0.000000e+00
      304000   3.039990e-06   6.398113e+00   7.588126e+00   1.875075e+01   2.071748e+06  -4.710107e+05   1.069995e+06   0.000000e+00   0.000000e+00   0.000000e+00   2.378840e+06   0.000000e+00   0.000000e+00   0.000000e+00
      312000   3.119990e-06   6.563853e+00   7.550445e+00   1.883635e+01   2.071748e+06  -4.710107e+05   1.069995e+06   0.000000e+00   0.000000e+00   0.000000e+00   2.378840e+06   0.000000e+00   0.000000e+00   0.000000e+00
      320000   3.199990e-06   6.729593e+00   7.512764e+00   1.892195e+01   2.071748e+06  -4.710107e+05   1.069995e+06   0.000000e+00   0.000000e+00   0.000000e+00   2.378840e+06   0.000000e+00   0.000000e+00   0.000000e+00
      328000   3.279990e-06   6.895332e+00   7.475083e+00   1.900755e+01   2.071748e+06  -4.710107e+05   1.069995e+06   0.000000e+00   0.000000e+00   0.000000e+00   2.378840e+06   0.000000e+00   0.000000e+00   0.000000e+00
      336000   3.359990e-06   7.061072e+00   7.437402e+00   1.909315e+01   2.071748e+06  -4.710107e+05   1.069995e+06   0.000000e+00   0.000000e+00   0.000000e+00   2.378840e+06   0.000000e+00   0.000000e+00   0.000000e+00
      344000   3.439990e-06   7.226812e+00   7.399721e+00   1.917875e+01   2.071748e+06  -4.710107e+05   1.069995e+06   0.000000e+00   0.000000e+00   0.000000e+00   2.378840e+06   0.000000e+00   0.000000e+00   0.000000e+00
      352000   3.519990e-06   7.392552e+00   7.362040e+00   1.926435e+01   2.071748e+06  -4.710107e+05   1.069995e+06   0.000000e+00   0.000000e+00   0.000000e+00   2.378840e+06   0.000000e+00   0.000000e+00   0.000000e+00
      360000   3.599990e-06   7.558292e+00   7.324360e+00   1.934995e+01   2.071748e+06  -4.710107e+05   1.069995e+06   0.000000e+00   0.000000e+00   0.000000e+00   2.378840e+06   0.000000e+00   0.000000e+00   0.000000e+00
      368000   3.679990e-06   7.724031e+00   7.286679e+00   1.943555e+01   2.071748e+06  -4.710107e+05   1.069995e+06   0.000000e+00   0.000000e+00   0.000000e+00   2.378840e+06   0.000000e+00   0.000000e+00   0.000000e+00
      376000   3.759990e-06   7.889771e+00   7.248998e+00   1.952115e+01   2.071748e+06  -4.710107e+05   1.069995e+06   0.000000e+00   0.000000e+00   0.000000e+00   2.378840e+06   0.000000e+00   0.000000e+00   0.000000e+00
      384000   3.839990e-06   8.055511e+00   7.211317e+00   1.960675e+01   2.071747e+06  -4.710101e+05   1.069996e+06  -2.212893e+07   2.107966e+07   5.212569e+07   2.378840e+06   4.969340e-26   0.000000e+00   0.000000e+00
      392000   3.919990e-06   8.221251e+00   7.173636e+00   1.969235e+01   2.071741e+06  -4.710043e+05   1.070011e+06  -3.745397e+07   3.513940e+07   8.798579e+07   2.378840e+06   1.414809e-25   0.000000e+00   0.000000e+00
      400000   3.999990e-06   8.386990e+00   7.135956e+00   1.977795e+01   2.071731e+06  -4.709953e+05   1.070033e+06  -7.373607e+07   6.858593e+07   1.729525e+08   2.378840e+06   5.461375e-25   0.000000e+00   0.000000e+00
      408000   4.079990e-06   8.552728e+00   7.098277e+00   1.986356e+01   2.071719e+06  -4.709843e+05   1.070061e+06  -1.663999e+08   1.528362e+08   3.894332e+08   2.378840e+06   2.763351e-24   0.000000e+00   0.000000e+00
      416000   4.159990e-06   8.718465e+00   7.060599e+00   1.994916e+01   2.071710e+06  -4.709757e+05   1.070083e+06   1.197200e+06  -9.974635e+05  -2.756825e+06   2.378840e+06   1.307364e-28   0.000000e+00   0.000000e+00
      424000   4.239990e-06   8.884202e+00   7.022921e+00   2.003477e+01   2.071712e+06  -4.709772e+05   1.070079e+06  -3.534662e+01  -1.129280e+02   1.872897e+01   2.378840e+06   1.956717e-37   0.000000e+00   0.000000e+00
      432000   4.319990e-06   9.049938e+00   6.985243e+00   2.012037e+01   2.071712e+06  -4.709772e+05   1.070079e+06  -2.555830e+01  -9.940119e+01   5.732032e+00   2.378840e+06   1.440726e-37   0.000000e+00   0.000000e+00
      440000   4.399990e-06   9.215675e+00   6.947564e+00   2.020598e+01   2.071712e+06  -4.709772e+05   1.070079e+06  -3.426854e+01  -1.507388e+02   1.101943e-19   2.378840e+06   3.257595e-37   0.000000e+00   0.000000e+00
      448000   4.479990e-06   9.381412e+00   6.909886e+00   2.029159e+01   2.071712e+06  -4.709772e+05   1.070079e+06  -1.502741e+01  -6.610183e+01   2.898410e-20   2.378840e+06   6.267025e-38   0.000000e+00   0.000000e+00
      456000   4.559990e-06   9.547149e+00   6.872208e+00   2.037719e+01   2.071712e+06  -4.709772e+05   1.070079e+06  -3.128815e+01  -1.376288e+02   1.182018e-19   2.378840e+06   2.715986e-37   0.000000e+00   0.000000e+00
      464000   4.639990e-06   9.712886e+00   6.834530e+00   2.046280e+01   2.071712e+06  -4.709772e+05   1.070079e+06  -3.330774e+01  -1.465124e+02  -1.976536e-19   2.378840e+06   3.077329e-37   0.000000e+00   0.000000e+00
      472000   4.719990e-06   9.878623e+00   6.796852e+00   2.054841e+01   2.071712e+06  -4.709772e+05   1.070079e+06  -2.266513e+01  -9.969828e+01   3.207092e-19   2.378840e+06   1.425061e-37   0.000000e+00   0.000000e+00
      480000   4.799990e-06   1.004436e+01   6.759174e+00   2.063401e+01   2.071712e+06  -4.709772e+05   1.070079e+06  -2.631020e+01  -1.157320e+02  -8.278032e-20   2.378840e+06   1.920721e-37   0.000000e+00   0.000000e+00
      488000   4.879990e-06   1.021010e+01   6.721495e+00   2.071962e+01   2.071712e+06  -4.709772e+05   1.070079e+06  -2.957290e+01  -1.300839e+02  -1.432158e-19   2.378840e+06   2.425459e-37   0.000000e+00   0.000000e+00
      496000   4.959990e-06   1.037583e+01   6.683817e+00   2.080522e+01   2.071712e+06  -4.709772e+05   1.070079e+06  -2.922210e+01  -1.285407e+02   6.926397e-20   2.378840e+06   2.369119e-37   0.000000e+00   0.000000e+00
      504000   5.039990e-06   1.054157e+01   6.646139e+00   2.089083e+01   2.071712e+06  -4.709772e+05   1.070079e+06  -3.333701e+01  -1.466412e+02   1.148463e-19   2.378840e+06   3.082830e-37   0.000000e+00   0.000000e+00
      512000   5.119990e-06   1.070731e+01   6.608461e+00   2.097644e+01   2.071712e+06  -4.709772e+05   1.070079e+06  -3.019946e+01  -1.328399e+02  -5.981196e-20   2.378840e+06   2.529786e-37   0.000000e+00   0.000000e+00
      520000   5.199990e-06   1.087304e+01   6.570783e+00   2.106204e+01   2.071712e+06  -4.709772e+05   1.070079e+06  -3.574896e+01  -1.572508e+02   5.841679e-20   2.378840e+06   3.544795e-37   0.000000e+00   0.000000e+00
      528000   5.279990e-06   1.103878e+01   6.533105e+00   2.114765e+01   2.071712e+06  -4.709772e+05   1.070079e+06  -3.408895e+01  -1.499488e+02  -3.955090e-19   2.378840e+06   3.223969e-37   0.000000e+00   0.000000e+00
      536000   5.359990e-06   1.120452e+01   6.495426e+00   2.123326e+01   2.071712e+06  -4.709772e+05   1.070079e+06  -3.392427e+01  -1.492244e+02  -1.293855e-19   2.378840e+06   3.192610e-37   0.000000e+00   0.000000e+00
      544000   5.439990e-06   1.137026e+01   6.457748e+00   2.131886e+01   2.071712e+06  -4.709772e+05   1.070079e+06  -2.650348e+01  -1.165822e+02   7.025986e-20   2.378840e+06   1.948639e-37   0.000000e+00   0.000000e+00
      552000   5.519990e-06   1.153599e+01   6.420070e+00   2.140447e+01   2.071712e+06  -4.709772e+05   1.070079e+06  -3.722630e+01  -1.637492e+02  -2.546260e-20   2.378840e+06   3.844476e-37   0.000000e+00   0.000000e+00
      560000   5.599990e-06   1.170173e+01   6.382392e+00   2.149008e+01   2.071712e+06  -4.709772e+05   1.070079e+06  -2.610228e+01  -1.148175e+02   1.786777e-20   2.378840e+06   1.890174e-37   0.000000e+00   0.000000e+00
      568000   5.679990e-06   1.186747e+01   6.344714e+00   2.157568e+01   2.071712e+06  -4.709772e+05   1.070079e+06  -2.482456e+01  -1.091971e+02  -4.252737e-20   2.378840e+06   1.709757e-37   0.000000e+00   0.000000e+00
      576000   5.759990e-06   1.203320e+01   6.307035e+00   2.166129e+01   2.071712e+06  -4.709772e+05   1.070079e+06  -3.425605e+01  -1.506839e+02   3.620208e-20   2.378840e+06   3.255872e-37   0.000000e+00   0.000000e+00
      584000   5.839990e-06   1.219894e+01   6.269357e+00   2.174689e+01   2.071712e+06  -4.709772e+05   1.070079e+06  -3.490761e+01  -1.535499e+02  -1.332524e-19   2.378840e+06   3.379626e-37   0.000000e+00   0.000000e+00
      592000   5.919990e-06   1.236468e+01   6.231679e+00   2.183250e+01   2.071712e+06  -4.709772e+05   1.070079e+06  -2.734169e+01  -1.202693e+02   1.216291e-19   2.378840e+06   2.073877e-37   0.000000e+00   0.000000e+00
      600000   5.999990e-06   1.253041e+01   6.194001e+00   2.191811e+01   2.071712e+06  -4.709772e+05   1.070079e+06  -1.939074e+01  -8.529506e+01   3.068430e-20   2.378840e+06   1.043214e-37   0.000000e+00   0.000000e+00
      608000   6.079990e-06   1.269615e+01   6.156323e+00   2.200371e+01   2.071712e+06  -4.709772e+05   1.070079e+06  -1.744897e+01  -7.675369e+01   4.825151e-20   2.378840e+06   8.450014e-38   0.000000e+00   0.000000e+00
      616000   6.159990e-06   1.286189e+01   6.118645e+00   2.208932e+01   2.071712e+06  -4.709772e+05   1.070079e+06  -1.855125e+01  -8.160235e+01  -2.448015e-20   2.378840e+06   9.549908e-38   0.000000e+00   0.000000e+00
      624000   6.239990e-06   1.302762e+01   6.080966e+00   2.217493e+01   2.071712e+06  -4.709772e+05   1.070079e+06  -3.158119e+01  -1.389178e+02  -2.043063e-19   2.378840e+06   2.766328e-37   0.000000e+00   0.000000e+00
      632000   6.319990e-06   1.319336e+01   6.043288e+00   2.226053e+01   2.071712e+06  -4.709772e+05   1.070079e+06  -2.456121e+01  -1.080387e+02   1.619000e-20   2.378840e+06   1.673466e-37   0.000000e+00   0.000000e+00
      640000   6.399990e-06   1.335910e+01   6.005610e+00   2.234614e+01   2.071712e+06  -4.709772e+05   1.070079e+06  -1.440522e+01  -6.336498e+01   1.697057e-20   2.378840e+06   5.759567e-38   0.000000e+00   0.000000e+00
      648000   6.479990e-06   1.352484e+01   5.967932e+00   2.243174e+01   2.071712e+06  -4.709772e+05   1.070079e+06  -1.800684e+01  -7.920760e+01   1.928535e-20   2.378840e+06   8.994699e-38   0.000000e+00   0.000000e+00
      656000   6.559990e-06   1.369057e+01   5.930254e+00   2.251735e+01   2.071712e+06  -4.709772e+05   1.070079e+06  -1.872050e+01  -8.234682e+01  -4.945376e-20   2.378840e+06   9.722920e-38   0.000000e+00   0.000000e+00
      664000   6.639990e-06   1.385631e+01   5.892576e+00   2.260296e+01   2.071712e+06  -4.709772e+05   1.070079e+06  -1.594312e+01  -7.012982e+01   5.035544e-20   2.378840e+06   7.052705e-38   0.000000e+00   0.000000e+00
      672000   6.719990e-06   1.402205e+01   5.854897e+00   2.268856e+01   2.071712e+06  -4.709772e+05   1.070079e+06  -1.624252e+01  -7.144680e+01  -9.498002e-20   2.378840e+06   7.320604e-38   0.000000e+00   0.000000e+00
      680000   6.799990e-06   1.418778e+01   5.817219e+00   2.277417e+01   2.071712e+06  -4.709772e+05   1.070079e+06  -1.898199e+01  -8.349707e+01   6.132822e-20   2.378840e+06   9.995276e-38   0.000000e+00   0.000000e+00
      688000   6.879990e-06   1.435352e+01   5.779541e+00   2.285978e+01   2.071712e+06  -4.709772e+05   1.070079e+06  -3.277357e+01  -1.441628e+02  -1.274430e-19   2.378840e+06   2.979052e-37   0.000000e+00   0.000000e+00
      696000   6.959990e-06   1.451926e+01   5.741863e+00   2.294538e+01   2.071712e+06  -4.709772e+05   1.070079e+06  -1.497395e+01  -6.586667e+01  -7.899863e-21   2.378840e+06   6.224733e-38   0.000000e+00   0.000000e+00
      704000   7.039990e-06   1.468499e+01   5.704185e+00   2.303099e+01   2.071712e+06  -4.709772e+05   1.070079e+06  -1.245993e+01  -5.480811e+01  -9.117814e-21   2.378840e+06   4.306827e-38   0.000000e+00   0.000000e+00
      712000   7.119990e-06   1.485073e+01   5.666506e+00   2.311660e+01   2.071712e+06  -4.709772e+05   1.070079e+06  -1.537612e+01  -6.763572e+01   3.165552e-20   2.378840e+06   6.559704e-38   0.000000e+00   0.000000e+00
      720000   7.199990e-06   1.501647e+01   5.628828e+00   2.320220e+01   2.071712e+06  -4.709772e+05   1.070079e+06  -1.881771e+01  -8.277445e+01  -5.259845e-20   2.378840e+06   9.822085e-38   0.000000e+00   0.000000e+00
      728000   7.279990e-06   1.518221e+01   5.591150e+00   2.328781e+01   2.071712e+06  -4.709772e+05   1.070079e+06  -2.155936e+01  -9.483426e+01   4.032024e-20   2.378840e+06   1.289234e-37   0.000000e+00   0.000000e+00
      736000   7.359990e-06   1.534794e+01   5.553472e+00   2.337341e+01   2.071712e+06  -4.709772e+05   1.070079e+06  -1.934339e+01  -8.508676e+01   5.370649e-20   2.378840e+06   1.037772e-37   0.000000e+00   0.000000e+00
      744000   7.439990e-06   1.551368e+01   5.515794e+00   2.345902e+01   2.071712e+06  -4.709772e+05   1.070079e+06   9.309384e-01   4.094966e+00  -1.642440e-21   2.378840e+06   2.381790e-40   0.000000e+00   0.000000e+00
      752000   7.519990e-06   1.567942e+01   5.478116e+00   2.354463e+01   2.071712e+06  -4.709772e+05   1.070079e+06  -2.357444e+01  -1.036981e+02  -7.187484e-20   2.378840e+06   1.541116e-37   0.000000e+00   0.000000e+00
      760000   7.599990e-06   1.584515e+01   5.440437e+00   2.363023e+01   2.071712e+06  -4.709772e+05   1.070079e+06  -1.199153e+01  -5.274776e+01  -3.034561e-20   2.378840e+06   3.989165e-38   0.000000e+00   0.000000e+00
      768000   7.679990e-06   1.601089e+01   5.402759e+00   2.371584e+01   2.071712e+06  -4.709772e+05   1.070079e+06  -1.590355e+01  -6.995577e+01  -7.180754e-20   2.378840e+06   7.019613e-38   0.000000e+00   0.000000e+00
      776000   7.759990e-06   1.617663e+01   5.365081e+00   2.380145e+01   2.071712e+06  -4.709772e+05   1.070079e+06   6.103715e-01   2.684873e+00   1.950713e-21   2.378840e+06   1.030288e-40   0.000000e+00   0.000000e+00
      784000   7.839990e-06   1.634236e+01   5.327403e+00   2.388705e+01   2.071712e+06  -4.709772e+05   1.070079e+06  -2.948337e+00  -1.296900e+01  -2.172967e-20   2.378840e+06   2.413635e-39   0.000000e+00   0.000000e+00
      792000   7.919990e-06   1.650810e+01   5.289725e+00   2.397266e+01   2.071712e+06  -4.709772e+05   1.070079e+06  -2.378679e+00  -1.046322e+01  -1.153409e-20   2.378840e+06   1.567961e-39   0.000000e+00   0.000000e+00
      800000   7.999990e-06   1.667384e+01   5.252046e+00   2.405827e+01   2.071712e+06  -4.709772e+05   1.070079e+06   1.735617e+00   7.634546e+00   1.743319e-20   2.378840e+06   8.341333e-40   0.000000e+00   0.000000e+00
      808000   8.079990e-06   1.683957e+01   5.214368e+00   2.414387e+01   2.071712e+06  -4.709772e+05   1.070079e+06   1.372952e+00   6.039275e+00  -9.524077e-21   2.378840e+06   5.257256e-40   0.000000e+00   0.000000e+00
      816000   8.159990e-06   1.700531e+01   5.176690e+00   2.422948e+01   2.071712e+06  -4.709772e+05   1.070079e+06   1.010188e+01   4.443567e+01   2.585960e-20   2.378840e+06   2.828210e-38   0.000000e+00   0.000000e+00
      824000   8.239990e-06   1.717105e+01   5.139012e+00   2.431508e+01   2.071712e+06  -4.709772e+05   1.070079e+06   6.960112e+00   3.061580e+01  -2.024536e-20   2.378840e+06   1.343388e-38   0.000000e+00   0.000000e+00
      832000   8.319990e-06   1.733679e+01   5.101334e+00   2.440069e+01   2.071712e+06  -4.709772e+05   1.070079e+06   5.213732e+00   2.293391e+01   2.266892e-20   2.378840e+06   7.544338e-39   0.000000e+00   0.000000e+00
      840000   8.399990e-06   1.750252e+01   5.063656e+00   2.448630e+01   2.071712e+06  -4.709772e+05   1.070079e+06   6.297624e+00   2.770168e+01  -1.446401e-20   2.378840e+06   1.100816e-38   0.000000e+00   0.000000e+00
      848000   8.479990e-06   1.766826e+01   5.025977e+00   2.457190e+01   2.071712e+06  -4.709772e+05   1.070079e+06   8.495971e+00   3.737166e+01   2.946410e-20   2.378840e+06   2.001401e-38   0.000000e+00   0.000000e+00
      856000   8.559990e-06   1.783400e+01   4.988299e+00   2.465751e+01   2.071712e+06  -4.709772e+05   1.070079e+06   1.147041e+01   5.045547e+01   2.978485e-20   2.378840e+06   3.648038e-38   0.000000e+00   0.000000e+00
      864000   8.639990e-06   1.799973e+01   4.950621e+00   2.474312e+01   2.071712e+06  -4.709772e+05   1.070079e+06   1.838165e+00   8.085630e+00   1.791319e-21   2.378840e+06   9.400724e-40   0.000000e+00   0.000000e+00
      872000   8.719990e-06   1.816547e+01   4.912943e+00   2.482872e+01   2.071712e+06  -4.709772e+05   1.070079e+06   1.868374e+01   8.218515e+01   4.496775e-20   2.378840e+06   9.681737e-38   0.000000e+00   0.000000e+00
      880000   8.799990e-06   1.833121e+01   4.875265e+00   2.491433e+01   2.071712e+06  -4.709772e+05   1.070079e+06   8.292437e+00   3.647637e+01   3.126972e-20   2.378840e+06   1.906773e-38   0.000000e+00   0.000000e+00
      888000   8.879990e-06   1.849694e+01   4.837587e+00   2.499994e+01   2.071712e+06  -4.709772e+05   1.070079e+06   1.489235e+01   6.550773e+01   1.068029e-19   2.378840e+06   6.152022e-38   0.000000e+00   0.000000e+00
      896000   8.959990e-06   1.866268e+01   4.799908e+00   2.508554e+01   2.071712e+06  -4.709772e+05   1.070079e+06   9.770301e+00   4.297713e+01  -8.794821e-21   2.378840e+06   2.648290e-38   0.000000e+00   0.000000e+00
      904000   9.039990e-06   1.882842e+01   4.762230e+00   2.517115e+01   2.071712e+06  -4.709772e+05   1.070079e+06   1.806177e+01   7.944924e+01  -5.153527e-20   2.378840e+06   9.048387e-38   0.000000e+00   0.000000e+00
      912000   9.119990e-06   1.899415e+01   4.724552e+00   2.525675e+01   2.071712e+06  -4.709772e+05   1.070079e+06   2.317671e+01   1.019486e+02   1.273757e-19   2.378840e+06   1.490374e-37   0.000000e+00   0.000000e+00
      920000   9.199990e-06   1.915989e+01   4.686874e+00   2.534236e+01   2.071712e+06  -4.709772e+05   1.070079e+06   2.069592e+01   9.103623e+01  -7.636982e-20   2.378840e+06   1.188548e-37   0.000000e+00   0.000000e+00
      928000   9.279990e-06   1.932563e+01   4.649196e+00   2.542797e+01   2.071712e+06  -4.709772e+05   1.070079e+06   3.445470e+01   1.515577e+02   5.400256e-20   2.378840e+06   3.292001e-37   0.000000e+00   0.000000e+00
      936000   9.359990e-06   1.949137e+01   4.611517e+00   2.551357e+01   2.071712e+06  -4.709772e+05   1.070079e+06   2.627884e+01   1.155941e+02  -5.902691e-20   2.378840e+06   1.915922e-37   0.000000e+00   0.000000e+00
      944000   9.439990e-06   1.965710e+01   4.573839e+00   2.559918e+01   2.071712e+06  -4.709772e+05   1.070079e+06   4.309189e+01   1.895505e+02   1.979137e-19   2.378840e+06   5.150063e-37   0.000000e+00   0.000000e+00
      952000   9.519990e-06   1.982284e+01   4.536161e+00   2.568479e+01   2.071712e+06  -4.709772e+05   1.070079e+06   3.073816e+01   1.352095e+02  -8.927166e-21   2.378840e+06   2.620652e-37   0.000000e+00   0.000000e+00
      960000   9.599990e-06   1.998858e+01   4.498483e+00   2.577039e+01   2.071712e+06  -4.709772e+05   1.070079e+06   3.631046e+01   1.597207e+02   7.743747e-20   2.378840e+06   3.657372e-37   0.000000e+00   0.000000e+00
      968000   9.679990e-06   2.015431e+01   4.460805e+00   2.585600e+01   2.071712e+06  -4.709772e+05   1.070079e+06   3.887834e+01   1.710162e+02  -9.057253e-20   2.378840e+06   4.192599e-37   0.000000e+00   0.000000e+00
      976000   9.759990e-06   2.032005e+01   4.423127e+00   2.594160e+01   2.071712e+06  -4.709772e+05   1.070079e+06   3.992941e+01   1.756396e+02  -4.684292e-20   2.378840e+06   4.423229e-37   0.000000e+00   0.000000e+00
      984000   9.839990e-06   2.048579e+01   4.385448e+00   2.602721e+01   2.071712e+06  -4.709772e+05   1.070079e+06   2.361115e+01   1.038596e+02  -2.111116e-20   2.378840e+06   1.546475e-37   0.000000e+00   0.000000e+00
      992000   9.919990e-06   2.065152e+01   4.347770e+00   2.611282e+01   2.071712e+06  -4.709772e+05   1.070079e+06   3.612948e+01   1.589246e+02   1.745326e-19   2.378840e+06   3.620711e-37   0.000000e+00   0.000000e+00
     1000000   9.999990e-06   2.081726e+01   4.310092e+00   2.619842e+01   2.071712e+06  -4.709772e+05   1.070079e+06   3.259404e+01   1.433731e+02  -1.242759e-19   2.378840e+06   2.947350e-37   0.000000e+00   0.000000e+00
     1008000   1.007999e-05   2.098300e+01   4.272414e+00   2.628403e+01   2.071712e+06  -4.709772e+05   1.070079e+06   4.241895e+01   1.865904e+02  -3.804137e-20   2.378840e+06   4.991398e-37   0.000000e+00   0.000000e+00
     1016000   1.015999e-05   2.114873e+01   4.234736e+00   2.636964e+01   2.071712e+06  -4.709772e+05   1.070079e+06   3.883153e+01   1.708102e+02   2.050285e-19   2.378840e+06   4.183369e-37   0.000000e+00   0.000000e+00
     1024000   1.023999e-05   2.131447e+01   4.197058e+00   2.645524e+01   2.071712e+06  -4.709772e+05   1.070079e+06   4.266273e+01   1.876627e+02  -2.436980e-19   2.378840e+06   5.049467e-37   0.000000e+00   0.000000e+00
     1032000   1.031999e-05   2.148021e+01   4.159379e+00   2.654085e+01   2.071712e+06  -4.709772e+05   1.070079e+06   1.029989e+01   4.530666e+01   1.502364e-20   2.378840e+06   2.946497e-38   0.000000e+00   0.000000e+00
     1040000   1.039999e-05   2.164595e+01   4.121701e+00   2.662646e+01   2.071712e+06  -4.709772e+05   1.070079e+06   4.554712e+01   2.003505e+02   1.969627e-19   2.378840e+06   5.755056e-37   0.000000e+00   0.000000e+00
     1048000   1.047999e-05   2.181168e+01   4.084023e+00   2.671206e+01   2.071712e+06  -4.709772e+05   1.070079e+06   3.978903e+01   1.750221e+02  -1.258954e-19   2.378840e+06   4.392440e-37   0.000000e+00   0.000000e+00
     1056000   1.055999e-05   2.197742e+01   4.046345e+00   2.679767e+01   2.071712e+06  -4.709772e+05   1.070079e+06   5.025440e+01   2.210566e+02   4.881672e-20   2.378840e+06   7.004788e-37   0.000000e+00   0.000000e+00
     1064000   1.063999e-05   2.214316e+01   4.008667e+00   2.688327e+01   2.071712e+06  -4.709772e+05   1.070079e+06   4.480013e+01   1.970646e+02  -8.704653e-20   2.378840e+06   5.567996e-37   0.000000e+00   0.000000e+00
     1072000   1.071999e-05   2.230889e+01   3.970988e+00   2.696888e+01   2.071712e+06  -4.709772e+05   1.070079e+06   4.355176e+01   1.915734e+02   1.425205e-19   2.378840e+06   5.262443e-37   0.000000e+00   0.000000e+00
     1080000   1.079999e-05   2.247463e+01   3.933310e+00   2.705449e+01   2.071712e+06  -4.709772e+05   1.070079e+06   3.761090e+01   1.654410e+02   9.672731e-20   2.378840e+06   3.924369e-37   0.000000e+00   0.000000e+00
     1088000   1.087999e-05   2.264037e+01   3.895632e+00   2.714009e+01   2.071712e+06  -4.709772e+05   1.070079e+06   4.001344e+01   1.760092e+02   1.093689e-19   2.378840e+06   4.442018e-37   0.000000e+00   0.000000e+00
     1096000   1.095999e-05   2.280610e+01   3.857954e+00   2.722570e+01   2.071712e+06  -4.709772e+05   1.070079e+06   4.794960e+01   2.109184e+02   9.766936e-20   2.378840e+06   6.377917e-37   0.000000e+00   0.000000e+00
     1104000   1.103999e-05   2.297184e+01   3.820276e+00   2.731131e+01   2.071712e+06  -4.709772e+05   1.070079e+06   4.783631e+01   2.104200e+02   6.719142e-20   2.378840e+06   6.347322e-37   0.000000e+00   0.000000e+00
     1112000   1.111999e-05   2.313758e+01   3.782598e+00   2.739691e+01   2.071712e+06  -4.709772e+05   1.070079e+06   6.199469e+01   2.726993e+02  -9.958045e-20   2.378840e+06   1.066052e-36   0.000000e+00   0.000000e+00
     1120000   1.119999e-05   2.330331e+01   3.744919e+00   2.748252e+01   2.071712e+06  -4.709772e+05   1.070079e+06   4.080580e+01   1.794946e+02  -1.785701e-19   2.378840e+06   4.619009e-37   0.000000e+00   0.000000e+00
     1128000   1.127999e-05   2.346905e+01   3.707241e+00   2.756813e+01   2.071712e+06  -4.709772e+05   1.070079e+06   4.557001e+01   2.004511e+02  -6.559444e-20   2.378840e+06   5.761078e-37   0.000000e+00   0.000000e+00
     1136000   1.135999e-05   2.363479e+01   3.669563e+00   2.765373e+01   2.071712e+06  -4.709772e+05   1.070079e+06   5.000667e+01   2.199669e+02  -2.680480e-19   2.378840e+06   6.936648e-37   0.000000e+00   0.000000e+00
     1144000   1.143999e-05   2.380053e+01   3.631885e+00   2.773934e+01   2.071712e+06  -4.709772e+05   1.070079e+06   5.330729e+01   2.344855e+02   2.684425e-20   2.378840e+06   7.883290e-37   0.000000e+00   0.000000e+00
     1152000   1.151999e-05   2.396626e+01   3.594207e+00   2.782494e+01   2.071712e+06  -4.709772e+05   1.070079e+06   5.492335e+01   2.415942e+02   1.623127e-19   2.378840e+06   8.366926e-37   0.000000e+00   0.000000e+00
     1160000   1.159999e-05   2.413200e+01   3.556529e+00   2.791055e+01   2.071712e+06  -4.709772e+05   1.070079e+06   5.248396e+01   2.308639e+02  -3.565570e-19   2.378840e+06   7.640864e-37   0.000000e+00   0.000000e+00
     1168000   1.167999e-05   2.429774e+01   3.518850e+00   2.799616e+01   2.071712e+06  -4.709772e+05   1.070079e+06   4.323765e+01   1.901917e+02  -2.308411e-19   2.378840e+06   5.186435e-37   0.000000e+00   0.000000e+00
     1176000   1.175999e-05   2.446347e+01   3.481172e+00   2.808176e+01   2.071712e+06  -4.709772e+05   1.070079e+06   5.375143e+01   2.364392e+02   2.938066e-19   2.378840e+06   8.013969e-37   0.000000e+00   0.000000e+00
     1184000   1.183999e-05   2.462921e+01   3.443494e+00   2.816737e+01   2.071712e+06  -4.709772e+05   1.070079e+06   4.525339e+01   1.990584e+02   8.415750e-20   2.378840e+06   5.681423e-37   0.000000e+00   0.000000e+00
     1192000   1.191999e-05   2.479495e+01   3.405816e+00   2.825298e+01   2.071712e+06  -4.709772e+05   1.070079e+06   4.836571e+01   2.127487e+02   1.224501e-19   2.378840e+06   6.488695e-37   0.000000e+00   0.000000e+00
     1200000   1.199999e-05   2.496068e+01   3.368138e+00   2.833858e+01   2.071712e+06  -4.709772e+05   1.070079e+06   4.592400e+01   2.020083e+02   3.126746e-20   2.378840e+06   5.850760e-37   0.000000e+00   0.000000e+00
     1208000   1.207999e-05   2.512642e+01   3.330459e+00   2.842419e+01   2.071712e+06  -4.709772e+05   1.070079e+06   5.157798e+01   2.268787e+02  -3.274697e-19   2.378840e+06   7.378730e-37   0.000000e+00   0.000000e+00
     1216000   1.215999e-05   2.529216e+01   3.292781e+00   2.850980e+01   2.071712e+06  -4.709772e+05   1.070079e+06   6.928025e+01   3.047466e+02  -4.137177e-19   2.378840e+06   1.331281e-36   0.000000e+00   0.000000e+00
     1224000   1.223999e-05   2.545790e+01   3.255103e+00   2.859540e+01   2.071712e+06  -4.709772e+05   1.070079e+06   4.389028e+01   1.930624e+02  -7.003558e-20   2.378840e+06   5.343863e-37   0.000000e+00   0.000000e+00
     1232000   1.231999e-05   2.562363e+01   3.217425e+00   2.868101e+01   2.071712e+06  -4.709772e+05   1.070079e+06   5.348204e+01   2.352542e+02  -6.998431e-22   2.378840e+06   7.935277e-37   0.000000e+00   0.000000e+00
     1240000   1.239999e-05   2.578937e+01   3.179747e+00   2.876661e+01   2.071712e+06  -4.709772e+05   1.070079e+06   5.735227e+01   2.522784e+02  -2.260410e-19   2.378840e+06   9.123531e-37   0.000000e+00   0.000000e+00
     1248000   1.247999e-05   2.595511e+01   3.142069e+00   2.885222e+01   2.071712e+06  -4.709772e+05   1.070079e+06   4.308154e+01   1.895050e+02  -3.066637e-20   2.378840e+06   5.148652e-37   0.000000e+00   0.000000e+00
     1256000   1.255999e-05   2.612084e+01   3.104390e+00   2.893783e+01   2.071712e+06  -4.709772e+05   1.070079e+06   4.214491e+01   1.853850e+02   4.623101e-19   2.378840e+06   4.926611e-37   0.000000e+00   0.000000e+00
     1264000   1.263999e-05   2.628658e+01   3.066712e+00   2.902343e+01   2.071712e+06  -4.709772e+05   1.070079e+06   5.208446e+01   2.291066e+02   2.331558e-19   2.378840e+06   7.524744e-37   0.000000e+00   0.000000e+00
     1272000   1.271999e-05   2.645232e+01   3.029034e+00   2.910904e+01   2.071712e+06  -4.709772e+05   1.070079e+06   4.554844e+01   2.003563e+02   1.348584e-19   2.378840e+06   5.755318e-37   0.000000e+00   0.000000e+00
     1280000   1.279999e-05   2.661805e+01   2.991356e+00   2.919465e+01   2.071712e+06  -4.709772e+05   1.070079e+06   4.465118e+01   1.964095e+02  -2.181187e-19   2.378840e+06   5.531130e-37   0.000000e+00   0.000000e+00
     1288000   1.287999e-05   2.678379e+01   2.953678e+00   2.928025e+01   2.071712e+06  -4.709772e+05   1.070079e+06   5.414214e+01   2.381578e+02   1.411296e-20   2.378840e+06   8.130081e-37   0.000000e+00   0.000000e+00
     1296000   1.295999e-05   2.694953e+01   2.916000e+00   2.936586e+01   2.071712e+06  -4.709772e+05   1.070079e+06   3.353667e+01   1.475195e+02   6.519964e-20   2.378840e+06   3.120022e-37   0.000000e+00   0.000000e+00
     1304000   1.303999e-05   2.711526e+01   2.878321e+00   2.945146e+01   2.071712e+06  -4.709772e+05   1.070079e+06   3.985858e+01   1.753280e+02   1.593879e-19   2.378840e+06   4.406492e-37   0.000000e+00   0.000000e+00
     1312000   1.311999e-05   2.728100e+01   2.840643e+00   2.953707e+01   2.071712e+06  -4.709772e+05   1.070079e+06   4.041887e+01   1.777926e+02   4.670831e-20   2.378840e+06   4.531811e-37   0.000000e+00   0.000000e+00
     1320000   1.319999e-05   2.744674e+01   2.802965e+00   2.962268e+01   2.071712e+06  -4.709772e+05   1.070079e+06   4.028747e+01   1.784815e+02   5.576304e-01   2.378840e+06   4.563511e-37   0.000000e+00   0.000000e+00
     1328000   1.327999e-05   2.761248e+01   2.765287e+00   2.970828e+01   2.071712e+06  -4.709772e+05   1.070079e+06   4.221377e+01   1.660206e+02  -8.656221e+00   2.378840e+06   4.011277e-37   0.000000e+00   0.000000e+00
     1336000   1.335999e-05   2.777821e+01   2.727609e+00   2.979389e+01   2.071712e+06  -4.709772e+05   1.070079e+06   4.588325e+01   1.945586e+02  -3.199932e+00   2.378840e+06   5.448104e-37   0.000000e+00   0.000000e+00
     1344000   1.343999e-05   2.794395e+01   2.689930e+00   2.987950e+01   2.071712e+06  -4.709772e+05   1.070079e+06  -2.603269e+01   2.051100e+02   1.406759e+02   2.378840e+06   8.523782e-37   0.000000e+00   0.000000e+00
     1352000   1.351999e-05   2.810969e+01   2.652252e+00   2.996510e+01   2.071712e+06  -4.709772e+05   1.070079e+06   1.429166e+01   1.845865e+02   5.357346e+01   2.378840e+06   5.064193e-37   0.000000e+00   0.000000e+00
     1360000   1.359999e-05   2.827542e+01   2.614574e+00   3.005071e+01   2.071712e+06  -4.709772e+05   1.070079e+06   1.479923e+01   1.488924e+02   3.688060e+01   2.378840e+06   3.237197e-37   0.000000e+00   0.000000e+00
     1368000   1.367999e-05   2.844116e+01   2.576896e+00   3.013632e+01   2.071712e+06  -4.709772e+05   1.070079e+06   3.365662e+01   1.854830e+02   1.647676e+01   2.378840e+06   4.881047e-37   0.000000e+00   0.000000e+00
     1376000   1.375999e-05   2.860690e+01   2.539218e+00   3.022192e+01   2.071712e+06  -4.709772e+05   1.070079e+06   2.910893e+01   1.280429e+02  -1.853933e-19   2.378840e+06   2.350482e-37   0.000000e+00   0.000000e+00
     1384000   1.383999e-05   2.877263e+01   2.501540e+00   3.030753e+01   2.071712e+06  -4.709772e+05   1.070079e+06   3.435246e+01   1.511080e+02  -1.289369e-19   2.378840e+06   3.273439e-37   0.000000e+00   0.000000e+00
     1392000   1.391999e-05   2.893837e+01   2.463861e+00   3.039313e+01   2.071712e+06  -4.709772e+05   1.070079e+06   2.243763e+01   9.869754e+01   1.091850e-19   2.378840e+06   1.396801e-37   0.000000e+00   0.000000e+00
     1400000   1.399999e-05   2.910411e+01   2.426183e+00   3.047874e+01   2.071712e+06  -4.709772e+05   1.070079e+06   2.718263e+01   1.195696e+02  -8.240805e-21   2.378840e+06   2.050154e-37   0.000000e+00   0.000000e+00
     1408000   1.407999e-05   2.926984e+01   2.388505e+00   3.056435e+01   2.071712e+06  -4.709772e+05   1.070079e+06   1.880086e+01   8.270031e+01   1.953208e-20   2.378840e+06   9.807744e-38   0.000000e+00   0.000000e+00
     1416000   1.415999e-05   2.943558e+01   2.350827e+00   3.064995e+01   2.071712e+06  -4.709772e+05   1.070079e+06   2.810831e+01   1.236415e+02  -5.037340e-20   2.378840e+06   2.191496e-37   0.000000e+00   0.000000e+00
     1424000   1.423999e-05   2.960132e+01   2.313149e+00   3.073556e+01   2.071712e+06  -4.709772e+05   1.070079e+06   2.900256e+01   1.275751e+02  -1.120112e-19   2.378840e+06   2.333310e-37   0.000000e+00   0.000000e+00
     1432000   1.431999e-05   2.976706e+01   2.275471e+00   3.082117e+01   2.071712e+06  -4.709772e+05   1.070079e+06   1.912522e+01   8.412709e+01  -7.098660e-20   2.378840e+06   1.014672e-37   0.000000e+00   0.000000e+00
     1440000   1.439999e-05   2.993279e+01   2.237792e+00   3.090677e+01   2.071712e+06  -4.709772e+05   1.070079e+06   2.444645e+01   1.075339e+02  -1.202520e-19   2.378840e+06   1.657873e-37   0.000000e+00   0.000000e+00
     1448000   1.447999e-05   3.009853e+01   2.200114e+00   3.099238e+01   2.071712e+06  -4.709772e+05   1.070079e+06   2.736123e+01   1.203553e+02  -1.853888e-19   2.378840e+06   2.076554e-37   0.000000e+00   0.000000e+00
     1456000   1.455999e-05   3.026427e+01   2.162436e+00   3.107799e+01   2.071712e+06  -4.709772e+05   1.070079e+06   2.997498e+01   1.318525e+02   1.803106e-19   2.378840e+06   2.492450e-37   0.000000e+00   0.000000e+00
     1464000   1.463999e-05   3.043000e+01   2.124758e+00   3.116359e+01   2.071712e+06  -4.709772e+05   1.070079e+06   2.255763e+01   9.922540e+01   1.251282e-19   2.378840e+06   1.411270e-37   0.000000e+00   0.000000e+00
     1472000   1.471999e-05   3.059574e+01   2.087080e+00   3.124920e+01   2.071712e+06  -4.709772e+05   1.070079e+06   1.282397e+01   5.640945e+01   2.890560e-20   2.378840e+06   4.564198e-38   0.000000e+00   0.000000e+00
     1480000   1.479999e-05   3.076148e+01   2.049401e+00   3.133480e+01   2.071712e+06  -4.709772e+05   1.070079e+06   1.951157e+01   8.582653e+01   2.232238e-20   2.378840e+06   1.056055e-37   0.000000e+00   0.000000e+00
     1488000   1.487999e-05   3.092721e+01   2.011723e+00   3.142041e+01   2.071712e+06  -4.709772e+05   1.070079e+06   1.828883e+01   8.044804e+01  -5.986130e-20   2.378840e+06   9.279762e-38   0.000000e+00   0.000000e+00
     1496000   1.495999e-05   3.109295e+01   1.974045e+00   3.150602e+01   2.071712e+06  -4.709772e+05   1.070079e+06   1.947803e+01   8.567903e+01   3.039719e-20   2.378840e+06   1.052537e-37   0.000000e+00   0.000000e+00
     1504000   1.503999e-05   3.125869e+01   1.936367e+00   3.159162e+01   2.071712e+06  -4.709772e+05   1.070079e+06   7.361763e+00   3.238257e+01   1.809319e-20   2.378840e+06   1.504666e-38   0.000000e+00   0.000000e+00
     1512000   1.511999e-05   3.142442e+01   1.898689e+00   3.167723e+01   2.071712e+06  -4.709772e+05   1.070079e+06   3.128613e+01   1.376199e+02   6.991892e-20   2.378840e+06   2.715198e-37   0.000000e+00   0.000000e+00
     1520000   1.519999e-05   3.159016e+01   1.861011e+00   3.176284e+01   2.071712e+06  -4.709772e+05   1.070079e+06   9.203196e+00   4.048257e+01   4.409298e-20   2.378840e+06   2.350049e-38   0.000000e+00   0.000000e+00
     1528000   1.527999e-05   3.175590e+01   1.823332e+00   3.184844e+01   2.071712e+06  -4.709772e+05   1.070079e+06   9.016104e+00   3.965960e+01  -3.284207e-20   2.378840e+06   2.255308e-38   0.000000e+00   0.000000e+00
     1536000   1.535999e-05   3.192164e+01   1.785654e+00   3.193405e+01   2.071712e+06  -4.709772e+05   1.070079e+06   2.155358e+01   9.480886e+01  -9.422862e-20   2.378840e+06   1.288297e-37   0.000000e+00   0.000000e+00
     1544000   1.543999e-05   3.208737e+01   1.747976e+00   3.201966e+01   2.071712e+06  -4.709772e+05   1.070079e+06   9.035760e+00   3.974606e+01   7.076006e-20   2.378840e+06   2.264139e-38   0.000000e+00   0.000000e+00
     1552000   1.551999e-05   3.225311e+01   1.710298e+00   3.210526e+01   2.071712e+06  -4.709772e+05   1.070079e+06   1.511442e+01   6.648456e+01  -1.212725e-19   2.378840e+06   6.336077e-38   0.000000e+00   0.000000e+00
     1560000   1.559999e-05   3.241885e+01   1.672620e+00   3.219087e+01   2.071712e+06  -4.709772e+05   1.070079e+06   2.026859e+01   8.915650e+01  -2.467170e-19   2.378840e+06   1.139225e-37   0.000000e+00   0.000000e+00
     1568000   1.567999e-05   3.258458e+01   1.634942e+00   3.227647e+01   2.071712e+06  -4.709772e+05   1.070079e+06   7.698970e+00   3.386586e+01  -4.926760e-21   2.378840e+06   1.644855e-38   0.000000e+00   0.000000e+00
     1576000   1.575999e-05   3.275032e+01   1.597263e+00   3.236208e+01   2.071712e+06  -4.709772e+05   1.070079e+06  -3.241360e+00  -1.425794e+01   1.004081e-20   2.378840e+06   2.908621e-39   0.000000e+00   0.000000e+00
     1584000   1.583999e-05   3.291606e+01   1.559585e+00   3.244769e+01   2.071712e+06  -4.709772e+05   1.070079e+06   9.569552e+00   4.209408e+01  -2.199490e-20   2.378840e+06   2.540180e-38   0.000000e+00   0.000000e+00
     1592000   1.591999e-05   3.308179e+01   1.521907e+00   3.253329e+01   2.071712e+06  -4.709772e+05   1.070079e+06   1.245161e+01   5.477154e+01   1.060268e-20   2.378840e+06   4.299008e-38   0.000000e+00   0.000000e+00
     1600000   1.599999e-05   3.324753e+01   1.484229e+00   3.261890e+01   2.071712e+06  -4.709772e+05   1.070079e+06   8.782625e+00   3.863259e+01  -1.490252e-20   2.378840e+06   2.139728e-38   0.000000e+00   0.000000e+00
     1608000   1.607999e-05   3.341327e+01   1.446551e+00   3.270451e+01   2.071712e+06  -4.709772e+05   1.070079e+06   1.071558e+00   4.713517e+00  -4.802412e-21   2.378840e+06   3.190818e-40   0.000000e+00   0.000000e+00
     1616000   1.615999e-05   3.357900e+01   1.408872e+00   3.279011e+01   2.071712e+06  -4.709772e+05   1.070079e+06  -3.152838e+00  -1.386855e+01   4.269559e-21   2.378840e+06   2.756586e-39   0.000000e+00   0.000000e+00
     1624000   1.623999e-05   3.374474e+01   1.371194e+00   3.287572e+01   2.071712e+06  -4.709772e+05   1.070079e+06   1.034900e+00   4.552266e+00   3.433479e-21   2.378840e+06   2.974399e-40   0.000000e+00   0.000000e+00
     1632000   1.631999e-05   3.391048e+01   1.333516e+00   3.296132e+01   2.071712e+06  -4.709772e+05   1.070079e+06   8.053527e-01   3.542546e+00  -4.155726e-21   2.378840e+06   1.809349e-40   0.000000e+00   0.000000e+00
     1640000   1.639999e-05   3.407622e+01   1.295838e+00   3.304693e+01   2.071712e+06  -4.709772e+05   1.070079e+06   6.121375e+00   2.692641e+01   2.743082e-20   2.378840e+06   1.039417e-38   0.000000e+00   0.000000e+00
     1648000   1.647999e-05   3.424195e+01   1.258160e+00   3.313254e+01   2.071712e+06  -4.709772e+05   1.070079e+06   5.368812e+00   2.361607e+01  -2.257023e-20   2.378840e+06   7.992878e-39   0.000000e+00   0.000000e+00
     1656000   1.655999e-05   3.440769e+01   1.220482e+00   3.321814e+01   2.071712e+06  -4.709772e+05   1.070079e+06   4.187712e-01   1.842070e+00   1.614192e-21   2.378840e+06   4.843456e-41   0.000000e+00   0.000000e+00
     1664000   1.663999e-05   3.457343e+01   1.182803e+00   3.330375e+01   2.071712e+06  -4.709772e+05   1.070079e+06  -4.965444e+00  -2.184175e+01   2.221023e-20   2.378840e+06   6.836970e-39   0.000000e+00   0.000000e+00
     1672000   1.671999e-05   3.473916e+01   1.145125e+00   3.338936e+01   2.071712e+06  -4.709772e+05   1.070079e+06   1.090840e+01   4.798336e+01  -8.071003e-20   2.378840e+06   3.299068e-38   0.000000e+00   0.000000e+00
     1680000   1.679999e-05   3.490490e+01   1.107447e+00   3.347496e+01   2.071712e+06  -4.709772e+05   1.070079e+06   1.398506e+01   6.151679e+01  -1.100037e-19   2.378840e+06   5.427800e-38   0.000000e+00   0.000000e+00
     1688000   1.687999e-05   3.507064e+01   1.069769e+00   3.356057e+01   2.071712e+06  -4.709772e+05   1.070079e+06   4.555539e+00   2.003869e+01  -3.218936e-20   2.378840e+06   5.754773e-39   0.000000e+00   0.000000e+00
     1696000   1.695999e-05   3.523637e+01   1.032091e+00   3.364618e+01   2.071712e+06  -4.709772e+05   1.070079e+06   5.753129e+00   2.530659e+01   4.852291e-20   2.378840e+06   9.177905e-39   0.000000e+00   0.000000e+00
     1704000   1.703999e-05   3.540211e+01   9.944125e-01   3.373178e+01   2.071712e+06  -4.709772e+05   1.070079e+06   1.426355e+00   6.274183e+00  -1.061502e-21   2.378840e+06   5.622970e-40   0.000000e+00   0.000000e+00
     1712000   1.711999e-05   3.556785e+01   9.567343e-01   3.381739e+01   2.071712e+06  -4.709772e+05   1.070079e+06  -9.597883e+00  -4.221870e+01  -2.258033e-20   2.378840e+06   2.553327e-38   0.000000e+00   0.000000e+00
     1720000   1.719999e-05   3.573359e+01   9.190561e-01   3.390299e+01   2.071712e+06  -4.709772e+05   1.070079e+06  -3.694746e+00  -1.625227e+01  -1.022249e-20   2.378840e+06   3.780015e-39   0.000000e+00   0.000000e+00
     1728000   1.727999e-05   3.589932e+01   8.813780e-01   3.398860e+01   2.071712e+06  -4.709772e+05   1.070079e+06  -2.840218e+01  -1.249341e+02   2.780428e-19   2.378840e+06   2.237231e-37   0.000000e+00   0.000000e+00
     1736000   1.735999e-05   3.606506e+01   8.436998e-01   3.407421e+01   2.071712e+06  -4.709772e+05   1.070079e+06   1.136734e+00   5.000212e+00   3.968996e-21   2.378840e+06   3.566797e-40   0.000000e+00   0.000000e+00
     1744000   1.743999e-05   3.623080e+01   8.060216e-01   3.415981e+01   2.071712e+06  -4.709772e+05   1.070079e+06  -6.340056e+00  -2.788833e+01   1.675076e-20   2.378840e+06   1.116127e-38   0.000000e+00   0.000000e+00
     1752000   1.751999e-05   3.639653e+01   7.683434e-01   3.424542e+01   2.071712e+06  -4.709772e+05   1.070079e+06  -7.151888e-01  -3.145938e+00   3.097309e-21   2.378840e+06   1.431409e-40   0.000000e+00   0.000000e+00
     1760000   1.759999e-05   3.656227e+01   7.306653e-01   3.433103e+01   2.071712e+06  -4.709772e+05   1.070079e+06  -1.030402e+00  -4.532480e+00   2.892074e-22   2.378840e+06   2.948290e-40   0.000000e+00   0.000000e+00
     1768000   1.767999e-05   3.672801e+01   6.929871e-01   3.441663e+01   2.071712e+06  -4.709772e+05   1.070079e+06  -6.252706e+00  -2.750410e+01   3.055757e-20   2.378840e+06   1.084362e-38   0.000000e+00   0.000000e+00
     1776000   1.775999e-05   3.689374e+01   6.553089e-01   3.450224e+01   2.071712e+06  -4.709772e+05   1.070079e+06   1.134231e+01   4.989201e+01   7.708981e-20   2.378840e+06   3.566510e-38   0.000000e+00   0.000000e+00
     1784000   1.783999e-05   3.705948e+01   6.176307e-01   3.458785e+01   2.071712e+06  -4.709772e+05   1.070079e+06  -9.877531e+00  -4.344880e+01  -1.660945e-20   2.378840e+06   2.704900e-38   0.000000e+00   0.000000e+00
     1792000   1.791999e-05   3.722522e+01   5.799526e-01   3.467345e+01   2.071712e+06  -4.709772e+05   1.070079e+06   8.758977e-02   3.852856e-01   9.042987e-22   2.378840e+06   2.251835e-42   0.000000e+00   0.000000e+00
     1800000   1.799999e-05   3.739095e+01   5.422744e-01   3.475906e+01   2.071712e+06  -4.709772e+05   1.070079e+06   8.443599e+00   3.714129e+01   6.631442e-21   2.378840e+06   1.976069e-38   0.000000e+00   0.000000e+00
     1808000   1.807999e-05   3.755669e+01   5.045962e-01   3.484466e+01   2.071712e+06  -4.709772e+05   1.070079e+06  -1.004749e+01  -4.419643e+01  -1.120156e-20   2.378840e+06   2.801578e-38   0.000000e+00   0.000000e+00
     1816000   1.815999e-05   3.772243e+01   4.669180e-01   3.493027e+01   2.071712e+06  -4.709772e+05   1.070079e+06  -2.281617e+00  -1.003627e+01   1.574140e-20   2.378840e+06   1.441679e-39   0.000000e+00   0.000000e+00
     1824000   1.823999e-05   3.788817e+01   4.292398e-01   3.501588e+01   2.071712e+06  -4.709772e+05   1.070079e+06  -7.844837e+00  -3.450749e+01  -1.711412e-20   2.378840e+06   1.706594e-38   0.000000e+00   0.000000e+00
     1832000   1.831999e-05   3.805390e+01   3.915617e-01   3.510148e+01   2.071712e+06  -4.709772e+05   1.070079e+06  -5.192386e+00  -2.284002e+01  -3.603387e-21   2.378840e+06   7.473800e-39   0.000000e+00   0.000000e+00
     1840000   1.839999e-05   3.821964e+01   3.538835e-01   3.518709e+01   2.071712e+06  -4.709772e+05   1.070079e+06  -9.697431e+00  -4.265659e+01  -6.012597e-20   2.378840e+06   2.610484e-38   0.000000e+00   0.000000e+00
     1848000   1.847999e-05   3.838538e+01   3.162053e-01   3.527270e+01   2.071712e+06  -4.709772e+05   1.070079e+06   2.213811e+00   9.738006e+00   1.461878e-21   2.378840e+06   1.357791e-39   0.000000e+00   0.000000e+00
     1856000   1.855999e-05   3.855111e+01   2.785271e-01   3.535830e+01   2.071712e+06  -4.709773e+05   1.070079e+06   9.709098e+06   4.270790e+07   1.805991e-14   2.378840e+06   2.613461e-26   0.000000e+00   0.000000e+00
     1864000   1.863999e-05   3.871685e+01   2.408490e-01   3.544391e+01   2.071712e+06  -4.709753e+05   1.070079e+06  -1.396310e+05  -6.142045e+05  -1.566594e-15   2.378840e+06   5.227314e-30   0.000000e+00   0.000000e+00
     1872000   1.871999e-05   3.888259e+01   2.031710e-01   3.552952e+01   2.071712e+06  -4.709754e+05   1.070079e+06  -1.341750e+06  -5.902049e+06  -1.378628e-14   2.378840e+06   4.976585e-28   0.000000e+00   0.000000e+00
     1880000   1.879999e-05   3.904832e+01   1.654927e-01   3.561512e+01   2.071711e+06  -4.709797e+05   1.070079e+06  -1.057717e+06  -4.652610e+06   1.847149e-16   2.378840e+06   3.055946e-28   0.000000e+00   0.000000e+00
     1888000   1.887999e-05   3.921406e+01   1.278146e-01   3.570073e+01   2.071714e+06  -4.709680e+05   1.070079e+06   2.643091e+07   1.162654e+08  -1.293947e-13   2.378840e+06   1.936263e-25   0.000000e+00   0.000000e+00
     1896000   1.895999e-05   3.937980e+01   9.013782e-02   3.578633e+01   2.071718e+06  -4.709515e+05   1.070079e+06   4.821149e+07   2.120825e+08   1.528124e-13   2.378840e+06   6.448962e-25   0.000000e+00   0.000000e+00
     1904000   1.903999e-05   3.954554e+01   5.246246e-02   3.587194e+01   2.071722e+06  -4.709323e+05   1.070079e+06   5.665708e+07   2.492454e+08   9.575830e-14   2.378840e+06   8.904865e-25   0.000000e+00   0.000000e+00
     1912000   1.911999e-05   3.971127e+01   1.478874e-02   3.595755e+01   2.071727e+06  -4.709099e+05   1.070079e+06   6.938541e+07   3.052550e+08   4.628759e-13   2.378840e+06   1.335953e-24   0.000000e+00   0.000000e+00
