     timestep     time              x             y              z              vx             vy             vz             ax             ay             az         v_magnitude      ELoss        Electronic      Nuclear
           0   0.000000e+00   1.000000e-01   1.585780e+01   1.951854e+01   1.702205e+05   4.221814e+05   7.403284e+05   0.000000e+00   0.000000e+00   0.000000e+00   8.690790e+05   0.000000e+00   0.000000e+00   0.000000e+00
        8000   7.999000e-08   1.136176e-01   1.589158e+01   1.957777e+01   1.702202e+05   4.221821e+05   7.403281e+05  -4.590883e+06   1.251142e+07  -6.079243e+06   8.690790e+05   3.902916e-28   0.000000e+00   0.000000e+00
       16000   1.599900e-07   1.272352e-01   1.592535e+01   1.963699e+01   1.702196e+05   4.221837e+05   7.403273e+05  -1.827466e+07   5.038456e+07  -2.453082e+07   8.690790e+05   6.318514e-27   0.000000e+00   0.000000e+00
       24000   2.399900e-07   1.408527e-01   1.595913e+01   1.969622e+01   1.702171e+05   4.221907e+05   7.403239e+05  -4.537453e+07   1.251115e+08  -6.091577e+07   8.690790e+05   3.896815e-26   0.000000e+00   0.000000e+00
       32000   3.199900e-07   1.544700e-01   1.599290e+01   1.975544e+01   1.702157e+05   4.221945e+05   7.403220e+05  -1.331102e+07   3.707553e+07  -1.808313e+07   8.690790e+05   3.418309e-27   0.000000e+00   0.000000e+00
       40000   3.999900e-07   1.680871e-01   1.602668e+01   1.981467e+01   1.702116e+05   4.222052e+05   7.403169e+05  -5.015056e+07   1.418392e+08  -6.936089e+07   8.690790e+05   4.993112e-26   0.000000e+00   0.000000e+00
       48000   4.799900e-07   1.817039e-01   1.606046e+01   1.987390e+01   1.702081e+05   4.222159e+05   7.403115e+05  -3.608332e+07   1.264140e+08  -6.380059e+07   8.690790e+05   3.884888e-26   0.000000e+00   0.000000e+00
       56000   5.599900e-07   1.953205e-01   1.609423e+01   1.993312e+01   1.702073e+05   4.222183e+05   7.403104e+05   9.309462e+06  -6.963454e+07   3.757402e+07   8.690790e+05   1.154416e-26   0.000000e+00   0.000000e+00
       64000   6.399900e-07   2.089370e-01   1.612801e+01   1.999234e+01   1.702062e+05   4.222194e+05   7.403100e+05  -2.607249e+06  -1.298272e+07   8.003844e+06   8.690790e+05   4.349169e-28   0.000000e+00   0.000000e+00
       72000   7.199900e-07   2.225535e-01   1.616179e+01   2.005157e+01   1.702062e+05   4.222192e+05   7.403101e+05   3.298955e+06  -1.329891e+06   4.106780e+00   8.690790e+05   2.300022e-29   0.000000e+00   0.000000e+00
       80000   7.999900e-07   2.361700e-01   1.619557e+01   2.011079e+01   1.702065e+05   4.222191e+05   7.403101e+05  -9.795234e+06   3.948691e+06  -1.705718e-01   8.690790e+05   2.028785e-28   0.000000e+00   0.000000e+00
       88000   8.799900e-07   2.497866e-01   1.622934e+01   2.017002e+01   1.702064e+05   4.222191e+05   7.403101e+05   4.526764e+06  -1.824845e+06   6.072658e-01   8.690790e+05   4.331530e-29   0.000000e+00   0.000000e+00
       96000   9.599900e-07   2.634031e-01   1.626312e+01   2.022924e+01   1.702064e+05   4.222191e+05   7.403101e+05  -8.522725e+06   3.435711e+06  -4.710218e-16   8.690790e+05   1.535851e-28   0.000000e+00   0.000000e+00
      104000   1.039990e-06   2.770196e-01   1.629690e+01   2.028847e+01   1.702054e+05   4.222195e+05   7.403101e+05  -1.709862e+07   6.892807e+06   8.926166e-15   8.690790e+05   6.182555e-28   0.000000e+00   0.000000e+00
      112000   1.119990e-06   2.906360e-01   1.633068e+01   2.034769e+01   1.702051e+05   4.222197e+05   7.403101e+05  -7.243816e+06   2.920126e+06   3.071723e-15   8.690790e+05   1.109446e-28   0.000000e+00   0.000000e+00
      120000   1.199990e-06   3.042524e-01   1.636445e+01   2.040692e+01   1.702045e+05   4.222199e+05   7.403101e+05  -6.006663e+00   2.421396e+00  -8.669826e-23   8.690790e+05   7.631885e-41   0.000000e+00   0.000000e+00
      128000   1.279990e-06   3.178687e-01   1.639823e+01   2.046614e+01   1.702045e+05   4.222199e+05   7.403101e+05  -2.379004e+00   9.590201e-01   2.084018e-22   8.690790e+05   1.197445e-41   0.000000e+00   0.000000e+00
      136000   1.359990e-06   3.314851e-01   1.643201e+01   2.052537e+01   1.702045e+05   4.222199e+05   7.403101e+05  -2.737849e+00   1.103677e+00  -9.442351e-22   8.690790e+05   1.584694e-41   0.000000e+00   0.000000e+00
      144000   1.439990e-06   3.451015e-01   1.646579e+01   2.058459e+01   1.702045e+05   4.222199e+05   7.403101e+05  -7.103092e+00   2.863386e+00  -5.251592e-22   8.690790e+05   1.066910e-40   0.000000e+00   0.000000e+00
      152000   1.519990e-06   3.587178e-01   1.649956e+01   2.064382e+01   1.702045e+05   4.222199e+05   7.403101e+05  -8.024045e+00   3.234639e+00   5.483968e-22   8.690790e+05   1.361662e-40   0.000000e+00   0.000000e+00
      160000   1.599990e-06   3.723342e-01   1.653334e+01   2.070304e+01   1.702045e+05   4.222199e+05   7.403101e+05  -1.421910e+01   5.731979e+00   3.444482e-21   8.690790e+05   4.275802e-40   0.000000e+00   0.000000e+00
      168000   1.679990e-06   3.859505e-01   1.656712e+01   2.076227e+01   1.702045e+05   4.222199e+05   7.403101e+05  -1.767006e+01   7.123126e+00  -2.719222e-21   8.690790e+05   6.603205e-40   0.000000e+00   0.000000e+00
      176000   1.759990e-06   3.995669e-01   1.660090e+01   2.082149e+01   1.702045e+05   4.222199e+05   7.403101e+05   6.117281e+00  -2.465988e+00  -1.860215e-21   8.690790e+05   7.913875e-41   0.000000e+00   0.000000e+00
      184000   1.839990e-06   4.131833e-01   1.663467e+01   2.088072e+01   1.702045e+05   4.222199e+05   7.403101e+05  -1.239417e+01   4.996315e+00   8.799362e-22   8.690790e+05   3.247785e-40   0.000000e+00   0.000000e+00
      192000   1.919990e-06   4.267996e-01   1.666845e+01   2.093994e+01   1.702045e+05   4.222199e+05   7.403101e+05  -9.518845e+00   3.837221e+00  -1.324839e-21   8.690790e+05   1.916458e-40   0.000000e+00   0.000000e+00
      200000   1.999990e-06   4.404160e-01   1.670223e+01   2.099917e+01   1.702045e+05   4.222199e+05   7.403101e+05  -4.672951e+00   1.883752e+00  -1.957154e-21   8.690790e+05   4.621241e-41   0.000000e+00   0.000000e+00
      208000   2.079990e-06   4.540324e-01   1.673601e+01   2.105839e+01   1.702045e+05   4.222199e+05   7.403101e+05   1.248002e+00  -5.030924e-01  -2.159696e-22   8.690790e+05   3.289938e-42   0.000000e+00   0.000000e+00
      216000   2.159990e-06   4.676487e-01   1.676978e+01   2.111762e+01   1.702045e+05   4.222199e+05   7.403101e+05   1.064750e+01  -4.292201e+00  -9.536233e-22   8.690790e+05   2.397030e-40   0.000000e+00   0.000000e+00
      224000   2.239990e-06   4.812651e-01   1.680356e+01   2.117684e+01   1.702045e+05   4.222199e+05   7.403101e+05  -3.664993e+00   1.477426e+00   6.545948e-22   8.690790e+05   2.839946e-41   0.000000e+00   0.000000e+00
      232000   2.319990e-06   4.948815e-01   1.683734e+01   2.123607e+01   1.702045e+05   4.222199e+05   7.403101e+05  -1.397069e+01   5.631841e+00   5.062432e-22   8.690790e+05   4.127354e-40   0.000000e+00   0.000000e+00
      240000   2.399990e-06   5.084978e-01   1.687112e+01   2.129529e+01   1.702045e+05   4.222199e+05   7.403101e+05  -9.766250e+00   3.936954e+00   1.272563e-21   8.690790e+05   2.017211e-40   0.000000e+00   0.000000e+00
      248000   2.479990e-06   5.221142e-01   1.690489e+01   2.135452e+01   1.702045e+05   4.222199e+05   7.403101e+05  -9.681561e+00   3.902814e+00   2.817287e-21   8.690790e+05   1.983062e-40   0.000000e+00   0.000000e+00
      256000   2.559990e-06   5.357306e-01   1.693867e+01   2.141374e+01   1.702045e+05   4.222199e+05   7.403101e+05  -4.816907e+00   1.941783e+00  -8.548680e-22   8.690790e+05   4.907933e-41   0.000000e+00   0.000000e+00
      264000   2.639990e-06   5.493469e-01   1.697245e+01   2.147296e+01   1.702045e+05   4.222199e+05   7.403101e+05  -2.042751e+00   8.234704e-01  -1.308558e-22   8.690790e+05   8.828322e-42   0.000000e+00   0.000000e+00
      272000   2.719990e-06   5.629633e-01   1.700623e+01   2.153219e+01   1.702045e+05   4.222199e+05   7.403101e+05   1.283743e+00  -5.175003e-01  -4.012525e-22   8.690790e+05   3.488576e-42   0.000000e+00   0.000000e+00
      280000   2.799990e-06   5.765796e-01   1.704000e+01   2.159141e+01   1.702045e+05   4.222199e+05   7.403101e+05  -3.356391e+00   1.353023e+00  -9.467747e-22   8.690790e+05   2.381742e-41   0.000000e+00   0.000000e+00
      288000   2.879990e-06   5.901960e-01   1.707378e+01   2.165064e+01   1.702045e+05   4.222199e+05   7.403101e+05  -2.142095e+01   8.635178e+00  -4.622979e-21   8.690790e+05   9.703649e-40   0.000000e+00   0.000000e+00
      296000   2.959990e-06   6.038124e-01   1.710756e+01   2.170986e+01   1.702045e+05   4.222199e+05   7.403101e+05  -8.165080e+00   3.291493e+00  -1.309513e-21   8.690790e+05   1.410125e-40   0.000000e+00   0.000000e+00
      304000   3.039990e-06   6.174287e-01   1.714134e+01   2.176909e+01   1.702045e+05   4.222199e+05   7.403101e+05  -5.385621e+00   2.171042e+00   8.166000e-22   8.690790e+05   6.135180e-41   0.000000e+00   0.000000e+00
      312000   3.119990e-06   6.310451e-01   1.717512e+01   2.182831e+01   1.702045e+05   4.222199e+05   7.403101e+05  -2.013040e+00   8.114933e-01   1.180831e-22   8.690790e+05   8.571571e-42   0.000000e+00   0.000000e+00
      320000   3.199990e-06   6.446615e-01   1.720889e+01   2.188754e+01   1.702045e+05   4.222199e+05   7.403101e+05  -9.025694e+00   3.638422e+00  -1.406024e-22   8.690790e+05   1.722693e-40   0.000000e+00   0.000000e+00
      328000   3.279990e-06   6.582778e-01   1.724267e+01   2.194676e+01   1.702045e+05   4.222199e+05   7.403101e+05  -9.814128e+00   3.956254e+00  -6.997234e-22   8.690790e+05   2.037079e-40   0.000000e+00   0.000000e+00
      336000   3.359990e-06   6.718942e-01   1.727645e+01   2.200599e+01   1.702045e+05   4.222199e+05   7.403101e+05  -8.468150e+00   3.413666e+00  -1.633760e-21   8.690790e+05   1.516422e-40   0.000000e+00   0.000000e+00
      344000   3.439990e-06   6.855106e-01   1.731023e+01   2.206521e+01   1.702045e+05   4.222199e+05   7.403101e+05  -7.100030e+00   2.862152e+00  -9.398014e-22   8.690790e+05   1.065970e-40   0.000000e+00   0.000000e+00
      352000   3.519990e-06   6.991269e-01   1.734400e+01   2.212444e+01   1.702045e+05   4.222199e+05   7.403101e+05  -5.038669e+00   2.031179e+00   8.407742e-22   8.690790e+05   5.370853e-41   0.000000e+00   0.000000e+00
      360000   3.599990e-06   7.127433e-01   1.737778e+01   2.218366e+01   1.702045e+05   4.222199e+05   7.403101e+05  -8.890538e+00   3.583938e+00  -3.041337e-21   8.690790e+05   1.671696e-40   0.000000e+00   0.000000e+00
      368000   3.679990e-06   7.263596e-01   1.741156e+01   2.224289e+01   1.702045e+05   4.222199e+05   7.403101e+05  -1.166512e+01   4.702425e+00   1.025422e-21   8.690790e+05   2.877761e-40   0.000000e+00   0.000000e+00
      376000   3.759990e-06   7.399760e-01   1.744534e+01   2.230211e+01   1.702045e+05   4.222199e+05   7.403101e+05  -6.839201e+00   2.757007e+00  -1.003162e-21   8.690790e+05   9.894982e-41   0.000000e+00   0.000000e+00
      384000   3.839990e-06   7.535924e-01   1.747911e+01   2.236134e+01   1.702045e+05   4.222199e+05   7.403101e+05  -2.498884e-01   1.007346e-01  -1.098399e-22   8.690790e+05   1.329384e-43   0.000000e+00   0.000000e+00
      392000   3.919990e-06   7.672087e-01   1.751289e+01   2.242056e+01   1.702045e+05   4.222199e+05   7.403101e+05  -1.375881e+00   5.546429e-01   3.433490e-22   8.690790e+05   4.008796e-42   0.000000e+00   0.000000e+00
      400000   3.999990e-06   7.808251e-01   1.754667e+01   2.247979e+01   1.702045e+05   4.222199e+05   7.403101e+05   5.625885e+00  -2.267897e+00  -7.608635e-23   8.690790e+05   6.691852e-41   0.000000e+00   0.000000e+00
      408000   4.079990e-06   7.944415e-01   1.758045e+01   2.253901e+01   1.702045e+05   4.222199e+05   7.403101e+05  -1.240900e+01   5.002296e+00  -3.295487e-22   8.690790e+05   3.256264e-40   0.000000e+00   0.000000e+00
      416000   4.159990e-06   8.080578e-01   1.761422e+01   2.259824e+01   1.702045e+05   4.222199e+05   7.403101e+05  -9.962823e+00   4.016196e+00  -1.516037e-21   8.690790e+05   2.099640e-40   0.000000e+00   0.000000e+00
      424000   4.239990e-06   8.216742e-01   1.764800e+01   2.265746e+01   1.702045e+05   4.222199e+05   7.403101e+05  -1.454749e+01   5.864359e+00  -2.731874e-21   8.690790e+05   4.475657e-40   0.000000e+00   0.000000e+00
      432000   4.319990e-06   8.352906e-01   1.768178e+01   2.271669e+01   1.702045e+05   4.222199e+05   7.403101e+05  -4.059958e+00   1.636643e+00   4.524318e-22   8.690790e+05   3.487705e-41   0.000000e+00   0.000000e+00
      440000   4.399990e-06   8.489069e-01   1.771556e+01   2.277591e+01   1.702045e+05   4.222199e+05   7.403101e+05  -1.166648e+01   4.702972e+00  -2.307433e-21   8.690790e+05   2.878280e-40   0.000000e+00   0.000000e+00
      448000   4.479990e-06   8.625233e-01   1.774933e+01   2.283514e+01   1.702045e+05   4.222199e+05   7.403101e+05  -1.140287e+00   4.596705e-01   1.110496e-24   8.690790e+05   2.753620e-42   0.000000e+00   0.000000e+00
      456000   4.559990e-06   8.761397e-01   1.778311e+01   2.289436e+01   1.702045e+05   4.222199e+05   7.403101e+05   4.912546e+00  -1.980337e+00   1.845350e-21   8.690790e+05   5.102455e-41   0.000000e+00   0.000000e+00
      464000   4.639990e-06   8.897560e-01   1.781689e+01   2.295359e+01   1.702045e+05   4.222199e+05   7.403101e+05  -4.285760e+00   1.727668e+00  -7.223487e-22   8.690790e+05   3.885914e-41   0.000000e+00   0.000000e+00
      472000   4.719990e-06   9.033724e-01   1.785067e+01   2.301281e+01   1.702045e+05   4.222199e+05   7.403101e+05  -8.762842e+00   3.532462e+00   2.911696e-21   8.690790e+05   1.624137e-40   0.000000e+00   0.000000e+00
      480000   4.799990e-06   9.169887e-01   1.788444e+01   2.307203e+01   1.702045e+05   4.222199e+05   7.403101e+05  -6.093589e+00   2.456437e+00   2.758626e-21   8.690790e+05   7.854048e-41   0.000000e+00   0.000000e+00
      488000   4.879990e-06   9.306051e-01   1.791822e+01   2.313126e+01   1.702045e+05   4.222199e+05   7.403101e+05  -9.089803e+00   3.664266e+00   1.479775e-21   8.690790e+05   1.747451e-40   0.000000e+00   0.000000e+00
      496000   4.959990e-06   9.442215e-01   1.795200e+01   2.319048e+01   1.702045e+05   4.222199e+05   7.403101e+05  -9.382489e+00   3.782253e+00  -3.771174e-21   8.690790e+05   1.861797e-40   0.000000e+00   0.000000e+00
      504000   5.039990e-06   9.578378e-01   1.798578e+01   2.324971e+01   1.702045e+05   4.222199e+05   7.403101e+05  -7.646584e+00   3.082478e+00  -1.833723e-21   8.690790e+05   1.236615e-40   0.000000e+00   0.000000e+00
      512000   5.119990e-06   9.714542e-01   1.801956e+01   2.330893e+01   1.702045e+05   4.222199e+05   7.403101e+05  -1.086110e+01   4.378308e+00  -2.051194e-21   8.690790e+05   2.494842e-40   0.000000e+00   0.000000e+00
      520000   5.199990e-06   9.850706e-01   1.805333e+01   2.336816e+01   1.702045e+05   4.222199e+05   7.403101e+05  -1.127860e+01   4.546611e+00  -1.872715e-22   8.690790e+05   2.690335e-40   0.000000e+00   0.000000e+00
      528000   5.279990e-06   9.986869e-01   1.808711e+01   2.342738e+01   1.702045e+05   4.222199e+05   7.403101e+05   3.270276e-02  -1.318308e-02  -7.221691e-24   8.690790e+05   2.199833e-45   0.000000e+00   0.000000e+00
      536000   5.359990e-06   1.012303e+00   1.812089e+01   2.348661e+01   1.702045e+05   4.222199e+05   7.403101e+05  -1.232472e+01   4.968320e+00   1.255065e-21   8.690790e+05   3.213118e-40   0.000000e+00   0.000000e+00
      544000   5.439990e-06   1.025920e+00   1.815467e+01   2.354583e+01   1.702045e+05   4.222199e+05   7.403101e+05  -1.177153e+01   4.745317e+00   6.909128e-23   8.690790e+05   2.930758e-40   0.000000e+00   0.000000e+00
      552000   5.519990e-06   1.039536e+00   1.818844e+01   2.360506e+01   1.702045e+05   4.222199e+05   7.403101e+05  -2.210226e+00   8.909826e-01  -4.085662e-23   8.690790e+05   1.034139e-41   0.000000e+00   0.000000e+00
      560000   5.599990e-06   1.053152e+00   1.822222e+01   2.366428e+01   1.702045e+05   4.222199e+05   7.403101e+05  -8.871788e+00   3.576380e+00   9.013118e-22   8.690790e+05   1.664455e-40   0.000000e+00   0.000000e+00
      568000   5.679990e-06   1.066769e+00   1.825600e+01   2.372351e+01   1.702045e+05   4.222199e+05   7.403101e+05  -1.344200e+01   5.418715e+00   3.213361e-21   8.690790e+05   3.821455e-40   0.000000e+00   0.000000e+00
      576000   5.759990e-06   1.080385e+00   1.828978e+01   2.378273e+01   1.702045e+05   4.222199e+05   7.403101e+05  -1.325992e+01   5.345317e+00   3.325164e-21   8.690790e+05   3.718632e-40   0.000000e+00   0.000000e+00
      584000   5.839990e-06   1.094001e+00   1.832355e+01   2.384196e+01   1.702045e+05   4.222199e+05   7.403101e+05  -1.635964e+01   6.594871e+00   2.086628e-22   8.690790e+05   5.660116e-40   0.000000e+00   0.000000e+00
      592000   5.919990e-06   1.107618e+00   1.835733e+01   2.390118e+01   1.702045e+05   4.222199e+05   7.403101e+05  -1.600221e+01   6.450785e+00   6.961808e-22   8.690790e+05   5.415721e-40   0.000000e+00   0.000000e+00
      600000   5.999990e-06   1.121234e+00   1.839111e+01   2.396041e+01   1.702045e+05   4.222199e+05   7.403101e+05  -1.651946e+01   6.659295e+00   5.862596e-21   8.690790e+05   5.771488e-40   0.000000e+00   0.000000e+00
      608000   6.079990e-06   1.134851e+00   1.842489e+01   2.401963e+01   1.702045e+05   4.222199e+05   7.403101e+05  -1.398198e+01   5.636390e+00   4.434995e-22   8.690790e+05   4.134517e-40   0.000000e+00   0.000000e+00
      616000   6.159990e-06   1.148467e+00   1.845866e+01   2.407886e+01   1.702045e+05   4.222199e+05   7.403101e+05  -1.551677e+01   6.255095e+00  -1.776386e-21   8.690790e+05   5.092039e-40   0.000000e+00   0.000000e+00
      624000   6.239990e-06   1.162083e+00   1.849244e+01   2.413808e+01   1.702045e+05   4.222199e+05   7.403101e+05  -2.507919e+00   1.010988e+00  -2.358476e-22   8.690790e+05   1.331048e-41   0.000000e+00   0.000000e+00
      632000   6.319990e-06   1.175700e+00   1.852622e+01   2.419731e+01   1.702045e+05   4.222199e+05   7.403101e+05  -2.332552e+01   9.402942e+00   8.900239e-21   8.690790e+05   1.150596e-39   0.000000e+00   0.000000e+00
      640000   6.399990e-06   1.189316e+00   1.856000e+01   2.425653e+01   1.702045e+05   4.222199e+05   7.403101e+05  -9.316769e+00   3.755760e+00  -8.504354e-22   8.690790e+05   1.836013e-40   0.000000e+00   0.000000e+00
      648000   6.479990e-06   1.202932e+00   1.859377e+01   2.431576e+01   1.702045e+05   4.222199e+05   7.403101e+05  -1.241037e+01   5.002847e+00   2.526135e-21   8.690790e+05   3.257680e-40   0.000000e+00   0.000000e+00
      656000   6.559990e-06   1.216549e+00   1.862755e+01   2.437498e+01   1.702045e+05   4.222199e+05   7.403101e+05  -1.453486e+01   5.859268e+00   1.038549e-21   8.690790e+05   4.467954e-40   0.000000e+00   0.000000e+00
      664000   6.639990e-06   1.230165e+00   1.866133e+01   2.443421e+01   1.702045e+05   4.222199e+05   7.403101e+05  -1.069008e+01   4.309367e+00  -1.008469e-21   8.690790e+05   2.417038e-40   0.000000e+00   0.000000e+00
      672000   6.719990e-06   1.243781e+00   1.869511e+01   2.449343e+01   1.702045e+05   4.222199e+05   7.403101e+05  -8.551857e+00   3.447410e+00  -1.931004e-21   8.690790e+05   1.546848e-40   0.000000e+00   0.000000e+00
      680000   6.799990e-06   1.257398e+00   1.872888e+01   2.455266e+01   1.702045e+05   4.222199e+05   7.403101e+05  -1.344436e+01   5.419667e+00  -1.760725e-22   8.690790e+05   3.823138e-40   0.000000e+00   0.000000e+00
      688000   6.879990e-06   1.271014e+00   1.876266e+01   2.461188e+01   1.702045e+05   4.222199e+05   7.403101e+05  -1.369530e+01   5.520825e+00  -4.625218e-22   8.690790e+05   3.966328e-40   0.000000e+00   0.000000e+00
      696000   6.959990e-06   1.284631e+00   1.879644e+01   2.467110e+01   1.702045e+05   4.222199e+05   7.403101e+05  -2.051441e+01   8.269735e+00   4.249998e-21   8.690790e+05   8.899832e-40   0.000000e+00   0.000000e+00
      704000   7.039990e-06   1.298247e+00   1.883022e+01   2.473033e+01   1.702045e+05   4.222199e+05   7.403101e+05  -2.267871e+01   9.142202e+00  -4.791150e-21   8.690790e+05   1.087711e-39   0.000000e+00   0.000000e+00
      712000   7.119990e-06   1.311863e+00   1.886399e+01   2.478955e+01   1.702045e+05   4.222199e+05   7.403101e+05  -1.462257e+01   5.894626e+00   5.092259e-22   8.690790e+05   4.522452e-40   0.000000e+00   0.000000e+00
      720000   7.199990e-06   1.325480e+00   1.889777e+01   2.484878e+01   1.702045e+05   4.222199e+05   7.403101e+05  -6.532314e+00   2.633295e+00   1.577546e-22   8.690790e+05   9.026926e-41   0.000000e+00   0.000000e+00
      728000   7.279990e-06   1.339096e+00   1.893155e+01   2.490800e+01   1.702045e+05   4.222199e+05   7.403101e+05  -1.099513e+01   4.432337e+00   2.656030e-21   8.690790e+05   2.556928e-40   0.000000e+00   0.000000e+00
      736000   7.359990e-06   1.352712e+00   1.896533e+01   2.496723e+01   1.702045e+05   4.222199e+05   7.403101e+05  -9.142940e+00   3.685686e+00   2.149236e-21   8.690790e+05   1.768046e-40   0.000000e+00   0.000000e+00
      744000   7.439990e-06   1.366329e+00   1.899911e+01   2.502645e+01   1.702045e+05   4.222199e+05   7.403101e+05  -1.487902e+01   5.998004e+00  -4.773583e-21   8.690790e+05   4.681962e-40   0.000000e+00   0.000000e+00
      752000   7.519990e-06   1.379945e+00   1.903288e+01   2.508568e+01   1.702045e+05   4.222199e+05   7.403101e+05  -8.628366e+00   3.478252e+00   4.732924e-22   8.690790e+05   1.574707e-40   0.000000e+00   0.000000e+00
      760000   7.599990e-06   1.393561e+00   1.906666e+01   2.514490e+01   1.702045e+05   4.222199e+05   7.403101e+05  -2.433431e+01   9.809603e+00   3.347985e-21   8.690790e+05   1.252316e-39   0.000000e+00   0.000000e+00
      768000   7.679990e-06   1.407178e+00   1.910044e+01   2.520413e+01   1.702045e+05   4.222199e+05   7.403101e+05  -1.543010e+01   6.220154e+00   1.388584e-21   8.690790e+05   5.035937e-40   0.000000e+00   0.000000e+00
      776000   7.759990e-06   1.420794e+00   1.913422e+01   2.526335e+01   1.702045e+05   4.222199e+05   7.403101e+05  -9.280177e+00   3.741009e+00  -1.995199e-21   8.690790e+05   1.821731e-40   0.000000e+00   0.000000e+00
      784000   7.839990e-06   1.434411e+00   1.916799e+01   2.532258e+01   1.702045e+05   4.222199e+05   7.403101e+05  -1.247444e+01   5.028677e+00   4.939810e-21   8.690790e+05   3.290914e-40   0.000000e+00   0.000000e+00
      792000   7.919990e-06   1.448027e+00   1.920177e+01   2.538180e+01   1.702045e+05   4.222199e+05   7.403101e+05  -1.227342e+01   4.947640e+00  -1.885116e-21   8.690790e+05   3.185649e-40   0.000000e+00   0.000000e+00
      800000   7.999990e-06   1.461643e+00   1.923555e+01   2.544103e+01   1.702045e+05   4.222199e+05   7.403101e+05  -1.638224e+01   6.603982e+00   7.341028e-21   8.690790e+05   5.675726e-40   0.000000e+00   0.000000e+00
      808000   8.079990e-06   1.475260e+00   1.926933e+01   2.550025e+01   1.702045e+05   4.222199e+05   7.403101e+05  -2.241804e+01   9.037121e+00   1.027407e-20   8.690790e+05   1.062862e-39   0.000000e+00   0.000000e+00
      816000   8.159990e-06   1.488876e+00   1.930310e+01   2.555948e+01   1.702045e+05   4.222199e+05   7.403101e+05  -7.445797e+00   3.001537e+00   9.578683e-22   8.690790e+05   1.172700e-40   0.000000e+00   0.000000e+00
      824000   8.239990e-06   1.502492e+00   1.933688e+01   2.561870e+01   1.702045e+05   4.222199e+05   7.403101e+05  -1.319877e+01   5.320667e+00   6.045502e-22   8.690790e+05   3.684306e-40   0.000000e+00   0.000000e+00
      832000   8.319990e-06   1.516109e+00   1.937066e+01   2.567793e+01   1.702045e+05   4.222199e+05   7.403101e+05  -1.455726e+01   5.868298e+00   2.319739e-21   8.690790e+05   4.481763e-40   0.000000e+00   0.000000e+00
      840000   8.399990e-06   1.529725e+00   1.940444e+01   2.573715e+01   1.702045e+05   4.222199e+05   7.403101e+05  -1.666541e+01   6.718130e+00  -4.224533e-21   8.690790e+05   5.873604e-40   0.000000e+00   0.000000e+00
      848000   8.479990e-06   1.543341e+00   1.943821e+01   2.579638e+01   1.702045e+05   4.222199e+05   7.403101e+05  -2.077823e+01   8.376086e+00  -7.091590e-22   8.690790e+05   9.130520e-40   0.000000e+00   0.000000e+00
      856000   8.559990e-06   1.556958e+00   1.947199e+01   2.585560e+01   1.702045e+05   4.222199e+05   7.403101e+05  -1.878458e+01   7.572409e+00  -1.306839e-22   8.690790e+05   7.462676e-40   0.000000e+00   0.000000e+00
      864000   8.639990e-06   1.570574e+00   1.950577e+01   2.591483e+01   1.702045e+05   4.222199e+05   7.403101e+05  -2.344975e+01   9.453024e+00   8.277933e-21   8.690790e+05   1.163066e-39   0.000000e+00   0.000000e+00
      872000   8.719990e-06   1.584191e+00   1.953955e+01   2.597405e+01   1.702045e+05   4.222199e+05   7.403101e+05  -1.738794e+01   7.009398e+00   9.968917e-22   8.690790e+05   6.394903e-40   0.000000e+00   0.000000e+00
      880000   8.799990e-06   1.597807e+00   1.957332e+01   2.603328e+01   1.702045e+05   4.222199e+05   7.403101e+05  -2.491064e+01   1.004193e+01  -1.451619e-21   8.690790e+05   1.312344e-39   0.000000e+00   0.000000e+00
      888000   8.879990e-06   1.611423e+00   1.960710e+01   2.609250e+01   1.702045e+05   4.222199e+05   7.403101e+05  -8.544886e+00   3.444600e+00   1.068604e-21   8.690790e+05   1.544331e-40   0.000000e+00   0.000000e+00
      896000   8.959990e-06   1.625040e+00   1.964088e+01   2.615172e+01   1.702045e+05   4.222199e+05   7.403101e+05  -2.173654e+01   8.762397e+00  -9.120603e-22   8.690790e+05   9.991307e-40   0.000000e+00   0.000000e+00
      904000   9.039990e-06   1.638656e+00   1.967466e+01   2.621095e+01   1.702045e+05   4.222199e+05   7.403101e+05  -1.693938e+01   6.828573e+00  -5.745431e-21   8.690790e+05   6.068884e-40   0.000000e+00   0.000000e+00
      912000   9.119990e-06   1.652272e+00   1.970843e+01   2.627017e+01   1.702045e+05   4.222199e+05   7.403101e+05  -2.491535e+01   1.004383e+01   3.823032e-21   8.690790e+05   1.312819e-39   0.000000e+00   0.000000e+00
      920000   9.199990e-06   1.665889e+00   1.974221e+01   2.632940e+01   1.702045e+05   4.222199e+05   7.403101e+05  -1.819165e+01   7.333387e+00  -1.306832e-21   8.690790e+05   6.999559e-40   0.000000e+00   0.000000e+00
      928000   9.279990e-06   1.679505e+00   1.977599e+01   2.638862e+01   1.702045e+05   4.222199e+05   7.403101e+05  -1.370245e+01   5.523707e+00  -4.840305e-21   8.690790e+05   3.971289e-40   0.000000e+00   0.000000e+00
      936000   9.359990e-06   1.693121e+00   1.980977e+01   2.644785e+01   1.702045e+05   4.222199e+05   7.403101e+05  -1.146487e+01   4.621699e+00   4.190017e-22   8.690790e+05   2.780062e-40   0.000000e+00   0.000000e+00
      944000   9.439990e-06   1.706738e+00   1.984354e+01   2.650707e+01   1.702045e+05   4.222199e+05   7.403101e+05  -1.837013e+01   7.405334e+00  -6.271485e-21   8.690790e+05   7.137501e-40   0.000000e+00   0.000000e+00
      952000   9.519990e-06   1.720354e+00   1.987732e+01   2.656630e+01   1.702045e+05   4.222199e+05   7.403101e+05  -1.462345e+01   5.894978e+00   1.317231e-21   8.690790e+05   4.523003e-40   0.000000e+00   0.000000e+00
      960000   9.599990e-06   1.733971e+00   1.991110e+01   2.662552e+01   1.702045e+05   4.222199e+05   7.403101e+05  -2.037334e+01   8.212866e+00  -1.672585e-21   8.690790e+05   8.779715e-40   0.000000e+00   0.000000e+00
      968000   9.679990e-06   1.747587e+00   1.994488e+01   2.668475e+01   1.702045e+05   4.222199e+05   7.403101e+05  -9.817891e+00   3.957771e+00   6.920229e-22   8.690790e+05   2.039167e-40   0.000000e+00   0.000000e+00
      976000   9.759990e-06   1.761203e+00   1.997866e+01   2.674397e+01   1.702045e+05   4.222199e+05   7.403101e+05  -2.510126e+01   1.011878e+01   5.799207e-21   8.690790e+05   1.332502e-39   0.000000e+00   0.000000e+00
      984000   9.839990e-06   1.774820e+00   2.001243e+01   2.680320e+01   1.702045e+05   4.222199e+05   7.403101e+05  -1.929081e+01   7.776477e+00   8.604014e-22   8.690790e+05   7.869780e-40   0.000000e+00   0.000000e+00
      992000   9.919990e-06   1.788436e+00   2.004621e+01   2.686242e+01   1.702045e+05   4.222199e+05   7.403101e+05  -2.602603e+01   1.049157e+01   8.414017e-21   8.690790e+05   1.432476e-39   0.000000e+00   0.000000e+00
     1000000   9.999990e-06   1.802052e+00   2.007999e+01   2.692165e+01   1.702045e+05   4.222199e+05   7.403101e+05  -2.041645e+01   8.230243e+00   2.395776e-21   8.690790e+05   8.816061e-40   0.000000e+00   0.000000e+00
     1008000   1.007999e-05   1.815669e+00   2.011377e+01   2.698087e+01   1.702045e+05   4.222199e+05   7.403101e+05  -3.219328e+01   1.297770e+01  -1.805594e-21   8.690790e+05   2.191779e-39   0.000000e+00   0.000000e+00
     1016000   1.015999e-05   1.829285e+00   2.014754e+01   2.704010e+01   1.702045e+05   4.222199e+05   7.403101e+05  -1.810340e+01   7.297813e+00   2.642618e-21   8.690790e+05   6.932630e-40   0.000000e+00   0.000000e+00
     1024000   1.023999e-05   1.842901e+00   2.018132e+01   2.709932e+01   1.702045e+05   4.222199e+05   7.403101e+05  -5.109624e+00   2.059783e+00  -5.806146e-22   8.690790e+05   5.525271e-41   0.000000e+00   0.000000e+00
     1032000   1.031999e-05   1.856518e+00   2.021510e+01   2.715855e+01   1.702045e+05   4.222199e+05   7.403101e+05  -1.433766e+01   5.779773e+00   8.407259e-21   8.690790e+05   4.348274e-40   0.000000e+00   0.000000e+00
     1040000   1.039999e-05   1.870134e+00   2.024888e+01   2.721777e+01   1.702045e+05   4.222199e+05   7.403101e+05  -2.284170e+01   9.207906e+00   1.116605e-21   8.690790e+05   1.103405e-39   0.000000e+00   0.000000e+00
     1048000   1.047999e-05   1.883751e+00   2.028265e+01   2.727700e+01   1.702045e+05   4.222199e+05   7.403101e+05  -2.737560e+01   1.103561e+01  -6.060649e-21   8.690790e+05   1.584927e-39   0.000000e+00   0.000000e+00
     1056000   1.055999e-05   1.897367e+00   2.031643e+01   2.733622e+01   1.702045e+05   4.222199e+05   7.403101e+05  -3.024115e+01   1.219076e+01  -1.445448e-20   8.690790e+05   1.934045e-39   0.000000e+00   0.000000e+00
     1064000   1.063999e-05   1.910983e+00   2.035021e+01   2.739545e+01   1.702045e+05   4.222199e+05   7.403101e+05  -1.565693e+01   6.311594e+00  -3.859610e-21   8.690790e+05   5.185172e-40   0.000000e+00   0.000000e+00
     1072000   1.071999e-05   1.924600e+00   2.038399e+01   2.745467e+01   1.702045e+05   4.222199e+05   7.403101e+05  -2.515162e+01   1.013908e+01  -7.147643e-21   8.690790e+05   1.337870e-39   0.000000e+00   0.000000e+00
     1080000   1.079999e-05   1.938216e+00   2.041776e+01   2.751390e+01   1.702045e+05   4.222199e+05   7.403101e+05  -1.767656e+01   7.125744e+00   6.174926e-21   8.690790e+05   6.607933e-40   0.000000e+00   0.000000e+00
     1088000   1.087999e-05   1.951832e+00   2.045154e+01   2.757312e+01   1.702045e+05   4.222199e+05   7.403101e+05  -2.247979e+01   9.062014e+00  -2.533442e-21   8.690790e+05   1.068713e-39   0.000000e+00   0.000000e+00
     1096000   1.095999e-05   1.965449e+00   2.048532e+01   2.763235e+01   1.702045e+05   4.222199e+05   7.403101e+05  -1.854467e+01   7.475696e+00   1.697205e-21   8.690790e+05   7.273687e-40   0.000000e+00   0.000000e+00
     1104000   1.103999e-05   1.979065e+00   2.051910e+01   2.769157e+01   1.702045e+05   4.222199e+05   7.403101e+05  -2.518870e+01   1.015403e+01   6.497382e-22   8.690790e+05   1.341809e-39   0.000000e+00   0.000000e+00
     1112000   1.111999e-05   1.992681e+00   2.055287e+01   2.775079e+01   1.702045e+05   4.222199e+05   7.403101e+05  -1.929953e+01   7.779993e+00   8.306969e-21   8.690790e+05   7.877928e-40   0.000000e+00   0.000000e+00
     1120000   1.119999e-05   2.006298e+00   2.058665e+01   2.781002e+01   1.702045e+05   4.222199e+05   7.403101e+05  -2.141746e+01   8.633768e+00  -3.046212e-21   8.690790e+05   9.701099e-40   0.000000e+00   0.000000e+00
     1128000   1.127999e-05   2.019914e+00   2.062043e+01   2.786924e+01   1.702045e+05   4.222199e+05   7.403101e+05  -2.265292e+01   9.131806e+00   1.449586e-21   8.690790e+05   1.085244e-39   0.000000e+00   0.000000e+00
     1136000   1.135999e-05   2.033531e+00   2.065421e+01   2.792847e+01   1.702045e+05   4.222199e+05   7.403101e+05  -2.436503e+01   9.821988e+00  -3.475457e-21   8.690790e+05   1.255516e-39   0.000000e+00   0.000000e+00
     1144000   1.143999e-05   2.047147e+00   2.068798e+01   2.798769e+01   1.702045e+05   4.222199e+05   7.403101e+05  -2.687738e+01   1.083476e+01   1.129069e-20   8.690790e+05   1.527789e-39   0.000000e+00   0.000000e+00
     1152000   1.151999e-05   2.060763e+00   2.072176e+01   2.804692e+01   1.702045e+05   4.222199e+05   7.403101e+05  -2.573884e+01   1.037580e+01  -5.801577e-21   8.690790e+05   1.401256e-39   0.000000e+00   0.000000e+00
     1160000   1.159999e-05   2.074380e+00   2.075554e+01   2.810614e+01   1.702045e+05   4.222199e+05   7.403101e+05  -3.249709e+01   1.310017e+01   1.635585e-21   8.690790e+05   2.233368e-39   0.000000e+00   0.000000e+00
     1168000   1.167999e-05   2.087996e+00   2.078932e+01   2.816537e+01   1.702045e+05   4.222199e+05   7.403101e+05  -4.093715e+01   1.650251e+01   4.678055e-21   8.690790e+05   3.544154e-39   0.000000e+00   0.000000e+00
     1176000   1.175999e-05   2.101612e+00   2.082310e+01   2.822459e+01   1.702045e+05   4.222199e+05   7.403101e+05  -2.417251e+01   9.744382e+00  -1.492781e-21   8.690790e+05   1.235705e-39   0.000000e+00   0.000000e+00
     1184000   1.183999e-05   2.115229e+00   2.085687e+01   2.828382e+01   1.702045e+05   4.222199e+05   7.403101e+05  -3.054456e+01   1.231307e+01  -9.465666e-21   8.690790e+05   1.973080e-39   0.000000e+00   0.000000e+00
     1192000   1.191999e-05   2.128845e+00   2.089065e+01   2.834304e+01   1.702045e+05   4.222199e+05   7.403101e+05  -1.226484e+01   4.944180e+00  -3.779672e-22   8.690790e+05   3.181955e-40   0.000000e+00   0.000000e+00
     1200000   1.199999e-05   2.142462e+00   2.092443e+01   2.840227e+01   1.702045e+05   4.222199e+05   7.403101e+05  -2.617471e+01   1.055150e+01   5.283738e-22   8.690790e+05   1.449119e-39   0.000000e+00   0.000000e+00
     1208000   1.207999e-05   2.156078e+00   2.095821e+01   2.846149e+01   1.702045e+05   4.222199e+05   7.403101e+05  -1.639413e+01   6.608772e+00   4.911260e-22   8.690790e+05   5.685139e-40   0.000000e+00   0.000000e+00
     1216000   1.215999e-05   2.169694e+00   2.099198e+01   2.852072e+01   1.702045e+05   4.222199e+05   7.403101e+05  -4.081725e+01   1.645418e+01  -1.206667e-21   8.690790e+05   3.523292e-39   0.000000e+00   0.000000e+00
     1224000   1.223999e-05   2.183311e+00   2.102576e+01   2.857994e+01   1.702045e+05   4.222199e+05   7.403101e+05  -2.808738e+01   1.132254e+01   3.226009e-21   8.690790e+05   1.668511e-39   0.000000e+00   0.000000e+00
     1232000   1.231999e-05   2.196927e+00   2.105954e+01   2.863917e+01   1.702045e+05   4.222199e+05   7.403101e+05  -4.068403e+01   1.640048e+01  -4.052996e-21   8.690790e+05   3.500420e-39   0.000000e+00   0.000000e+00
     1240000   1.239999e-05   2.210543e+00   2.109332e+01   2.869839e+01   1.702045e+05   4.222199e+05   7.403101e+05  -3.219637e+01   1.297894e+01  -9.461262e-21   8.690790e+05   2.192350e-39   0.000000e+00   0.000000e+00
     1248000   1.247999e-05   2.224160e+00   2.112709e+01   2.875762e+01   1.702045e+05   4.222199e+05   7.403101e+05  -2.605751e+01   1.050426e+01   6.229959e-21   8.690790e+05   1.436074e-39   0.000000e+00   0.000000e+00
     1256000   1.255999e-05   2.237776e+00   2.116087e+01   2.881684e+01   1.702045e+05   4.222199e+05   7.403101e+05  -2.732129e+01   1.101371e+01  -8.902038e-21   8.690790e+05   1.578722e-39   0.000000e+00   0.000000e+00
     1264000   1.263999e-05   2.251392e+00   2.119465e+01   2.887607e+01   1.702045e+05   4.222199e+05   7.403101e+05  -2.642804e+01   1.065362e+01   1.914781e-21   8.690790e+05   1.477179e-39   0.000000e+00   0.000000e+00
     1272000   1.271999e-05   2.265009e+00   2.122843e+01   2.893529e+01   1.702045e+05   4.222199e+05   7.403101e+05  -3.019673e+01   1.217285e+01  -1.168635e-20   8.690790e+05   1.928393e-39   0.000000e+00   0.000000e+00
     1280000   1.279999e-05   2.278625e+00   2.126220e+01   2.899452e+01   1.702045e+05   4.222199e+05   7.403101e+05  -3.688937e+01   1.487078e+01  -2.027100e-20   8.690790e+05   2.877945e-39   0.000000e+00   0.000000e+00
     1288000   1.287999e-05   2.292242e+00   2.129598e+01   2.905374e+01   1.702045e+05   4.222199e+05   7.403101e+05  -9.388166e+00   3.784541e+00  -1.032936e-22   8.690790e+05   1.864559e-40   0.000000e+00   0.000000e+00
     1296000   1.295999e-05   2.305858e+00   2.132976e+01   2.911297e+01   1.702045e+05   4.222199e+05   7.403101e+05  -3.317043e+01   1.337161e+01  -1.320051e-20   8.690790e+05   2.327137e-39   0.000000e+00   0.000000e+00
     1304000   1.303999e-05   2.319474e+00   2.136354e+01   2.917219e+01   1.702045e+05   4.222199e+05   7.403101e+05  -2.701884e+01   1.089179e+01  -3.891129e-21   8.690790e+05   1.544038e-39   0.000000e+00   0.000000e+00
     1312000   1.311999e-05   2.333091e+00   2.139731e+01   2.923141e+01   1.702045e+05   4.222199e+05   7.403101e+05  -3.604281e+01   1.452952e+01  -6.192702e-22   8.690790e+05   2.747385e-39   0.000000e+00   0.000000e+00
     1320000   1.319999e-05   2.346707e+00   2.143109e+01   2.929064e+01   1.702045e+05   4.222199e+05   7.403101e+05  -2.450165e+01   9.877063e+00  -2.124196e-21   8.690790e+05   1.269700e-39   0.000000e+00   0.000000e+00
     1328000   1.327999e-05   2.360323e+00   2.146487e+01   2.934986e+01   1.702045e+05   4.222199e+05   7.403101e+05  -1.782896e+01   7.187179e+00  -2.749233e-21   8.690790e+05   6.723215e-40   0.000000e+00   0.000000e+00
     1336000   1.335999e-05   2.373940e+00   2.149865e+01   2.940909e+01   1.702045e+05   4.222199e+05   7.403101e+05  -1.923586e+01   7.754326e+00   4.260259e-21   8.690790e+05   7.825942e-40   0.000000e+00   0.000000e+00
     1344000   1.343999e-05   2.387556e+00   2.153242e+01   2.946831e+01   1.702045e+05   4.222199e+05   7.403101e+05  -2.009452e+01   8.100467e+00   4.982992e-21   8.690790e+05   8.540254e-40   0.000000e+00   0.000000e+00
     1352000   1.351999e-05   2.401172e+00   2.156620e+01   2.952754e+01   1.702045e+05   4.222199e+05   7.403101e+05  -2.267404e+01   9.140321e+00   5.780156e-21   8.690790e+05   1.087372e-39   0.000000e+00   0.000000e+00
     1360000   1.359999e-05   2.414789e+00   2.159998e+01   2.958676e+01   1.702045e+05   4.222199e+05   7.403101e+05  -1.837078e+01   7.405597e+00  -2.485316e-21   8.690790e+05   7.138062e-40   0.000000e+00   0.000000e+00
     1368000   1.367999e-05   2.428405e+00   2.163376e+01   2.964599e+01   1.702045e+05   4.222199e+05   7.403101e+05  -2.929741e+01   1.277194e+01  -5.484368e-01   8.690790e+05   1.858843e-39   0.000000e+00   0.000000e+00
     1376000   1.375999e-05   2.442022e+00   2.166753e+01   2.970521e+01   1.702045e+05   4.222199e+05   7.403101e+05  -2.676838e+01   1.081091e+01  -1.145791e-02   8.690790e+05   1.516195e-39   0.000000e+00   0.000000e+00
     1384000   1.383999e-05   2.455638e+00   2.170131e+01   2.976444e+01   1.702045e+05   4.222199e+05   7.403101e+05  -3.999126e+01   2.381600e+01  -4.388557e+00   8.690790e+05   3.976279e-39   0.000000e+00   0.000000e+00
     1392000   1.391999e-05   2.469254e+00   2.173509e+01   2.982366e+01   1.702045e+05   4.222199e+05   7.403101e+05  -2.875915e+01   8.881689e+00   1.546531e+00   8.690790e+05   1.652762e-39   0.000000e+00   0.000000e+00
     1400000   1.399999e-05   2.482871e+00   2.176887e+01   2.988289e+01   1.702045e+05   4.222199e+05   7.403101e+05  -2.036840e+01  -7.426129e+00   8.918226e+00   8.690790e+05   9.997977e-40   0.000000e+00   0.000000e+00
     1408000   1.407999e-05   2.496487e+00   2.180265e+01   2.994211e+01   1.702045e+05   4.222199e+05   7.403101e+05  -3.725795e+01   1.664079e+01  -9.247456e-01   8.690790e+05   3.030616e-39   0.000000e+00   0.000000e+00
     1416000   1.415999e-05   2.510103e+00   2.183642e+01   3.000134e+01   1.702045e+05   4.222199e+05   7.403101e+05  -3.082598e+01   1.097803e+01   8.261108e-01   8.690790e+05   1.949360e-39   0.000000e+00   0.000000e+00
     1424000   1.423999e-05   2.523720e+00   2.187020e+01   3.006056e+01   1.702045e+05   4.222199e+05   7.403101e+05  -2.816622e+01   1.114861e+00   5.839853e+00   8.690790e+05   1.507651e-39   0.000000e+00   0.000000e+00
     1432000   1.431999e-05   2.537336e+00   2.190398e+01   3.011979e+01   1.702045e+05   4.222199e+05   7.403101e+05  -3.361301e+01   1.254886e+01   5.709887e-01   8.690790e+05   2.342582e-39   0.000000e+00   0.000000e+00
     1440000   1.439999e-05   2.550952e+00   2.193776e+01   3.017901e+01   1.702045e+05   4.222199e+05   7.403101e+05  -3.359752e+01   1.528576e+01  -9.935074e-01   8.690790e+05   2.480482e-39   0.000000e+00   0.000000e+00
     1448000   1.447999e-05   2.564569e+00   2.197153e+01   3.023824e+01   1.702045e+05   4.222199e+05   7.403101e+05  -3.063092e+01   1.234788e+01  -1.857445e-20   8.690790e+05   1.984355e-39   0.000000e+00   0.000000e+00
     1456000   1.455999e-05   2.578185e+00   2.200531e+01   3.029746e+01   1.702045e+05   4.222199e+05   7.403101e+05  -3.083921e+01   1.243185e+01  -6.708180e-22   8.690790e+05   2.011504e-39   0.000000e+00   0.000000e+00
     1464000   1.463999e-05   2.591802e+00   2.203909e+01   3.035669e+01   1.702045e+05   4.222199e+05   7.403101e+05  -4.125722e+01   1.663154e+01   5.312373e-21   8.690790e+05   3.599910e-39   0.000000e+00   0.000000e+00
     1472000   1.471999e-05   2.605418e+00   2.207287e+01   3.041591e+01   1.702045e+05   4.222199e+05   7.403101e+05  -4.001919e+01   1.613247e+01  -9.012787e-21   8.690790e+05   3.387047e-39   0.000000e+00   0.000000e+00
     1480000   1.479999e-05   2.619034e+00   2.210664e+01   3.047514e+01   1.702045e+05   4.222199e+05   7.403101e+05  -3.767482e+01   1.518741e+01   5.885966e-21   8.690790e+05   3.002068e-39   0.000000e+00   0.000000e+00
     1488000   1.487999e-05   2.632651e+00   2.214042e+01   3.053436e+01   1.702045e+05   4.222199e+05   7.403101e+05  -3.102844e+01   1.250813e+01   5.141404e-21   8.690790e+05   2.036289e-39   0.000000e+00   0.000000e+00
     1496000   1.495999e-05   2.646267e+00   2.217420e+01   3.059359e+01   1.702045e+05   4.222199e+05   7.403101e+05  -2.534567e+01   1.021730e+01   2.636545e-22   8.690790e+05   1.358725e-39   0.000000e+00   0.000000e+00
     1504000   1.503999e-05   2.659883e+00   2.220798e+01   3.065281e+01   1.702045e+05   4.222199e+05   7.403101e+05  -3.026629e+01   1.220089e+01  -1.947601e-21   8.690790e+05   1.937385e-39   0.000000e+00   0.000000e+00
     1512000   1.511999e-05   2.673500e+00   2.224175e+01   3.071204e+01   1.702045e+05   4.222199e+05   7.403101e+05  -4.121027e+01   1.661261e+01  -1.023744e-20   8.690790e+05   3.591637e-39   0.000000e+00   0.000000e+00
     1520000   1.519999e-05   2.687116e+00   2.227553e+01   3.077126e+01   1.702045e+05   4.222199e+05   7.403101e+05  -4.807005e+01   1.937792e+01   9.930867e-21   8.690790e+05   4.886898e-39   0.000000e+00   0.000000e+00
     1528000   1.527999e-05   2.700732e+00   2.230931e+01   3.083048e+01   1.702045e+05   4.222199e+05   7.403101e+05  -3.727190e+01   1.502498e+01  -7.214197e-21   8.690790e+05   2.938063e-39   0.000000e+00   0.000000e+00
     1536000   1.535999e-05   2.714349e+00   2.234309e+01   3.088971e+01   1.702045e+05   4.222199e+05   7.403101e+05  -3.782024e+01   1.524603e+01   1.659563e-21   8.690790e+05   3.025148e-39   0.000000e+00   0.000000e+00
     1544000   1.543999e-05   2.727965e+00   2.237686e+01   3.094893e+01   1.702045e+05   4.222199e+05   7.403101e+05  -3.670518e+01   1.479653e+01   1.338369e-20   8.690790e+05   2.849466e-39   0.000000e+00   0.000000e+00
     1552000   1.551999e-05   2.741582e+00   2.241064e+01   3.100816e+01   1.702045e+05   4.222199e+05   7.403101e+05  -3.285570e+01   1.324473e+01   1.176190e-20   8.690790e+05   2.282925e-39   0.000000e+00   0.000000e+00
     1560000   1.559999e-05   2.755198e+00   2.244442e+01   3.106738e+01   1.702045e+05   4.222199e+05   7.403101e+05  -4.175433e+01   1.683193e+01   1.538963e-20   8.690790e+05   3.687054e-39   0.000000e+00   0.000000e+00
     1568000   1.567999e-05   2.768814e+00   2.247820e+01   3.112661e+01   1.702045e+05   4.222199e+05   7.403101e+05  -2.585739e+01   1.042359e+01   8.443421e-21   8.690790e+05   1.414180e-39   0.000000e+00   0.000000e+00
     1576000   1.575999e-05   2.782431e+00   2.251197e+01   3.118583e+01   1.702045e+05   4.222199e+05   7.403101e+05  -4.405745e+01   1.776036e+01  -9.649635e-21   8.690790e+05   4.105099e-39   0.000000e+00   0.000000e+00
     1584000   1.583999e-05   2.796047e+00   2.254575e+01   3.124506e+01   1.702045e+05   4.222199e+05   7.403101e+05  -3.024975e+01   1.219423e+01   1.385849e-20   8.690790e+05   1.935418e-39   0.000000e+00   0.000000e+00
     1592000   1.591999e-05   2.809663e+00   2.257953e+01   3.130428e+01   1.702045e+05   4.222199e+05   7.403101e+05  -3.952723e+01   1.593415e+01  -3.814134e-21   8.690790e+05   3.304397e-39   0.000000e+00   0.000000e+00
     1600000   1.599999e-05   2.823280e+00   2.261331e+01   3.136351e+01   1.702045e+05   4.222199e+05   7.403101e+05  -3.678134e+01   1.482723e+01   6.279400e-21   8.690790e+05   2.861317e-39   0.000000e+00   0.000000e+00
     1608000   1.607999e-05   2.836896e+00   2.264708e+01   3.142273e+01   1.702045e+05   4.222199e+05   7.403101e+05  -3.549612e+01   1.430913e+01   5.155008e-21   8.690790e+05   2.664828e-39   0.000000e+00   0.000000e+00
     1616000   1.615999e-05   2.850512e+00   2.268086e+01   3.148196e+01   1.702045e+05   4.222199e+05   7.403101e+05  -3.294175e+01   1.327942e+01  -2.118121e-20   8.690790e+05   2.295099e-39   0.000000e+00   0.000000e+00
     1624000   1.623999e-05   2.864129e+00   2.271464e+01   3.154118e+01   1.702045e+05   4.222199e+05   7.403101e+05  -3.954993e+01   1.594330e+01  -4.949372e-21   8.690790e+05   3.308137e-39   0.000000e+00   0.000000e+00
     1632000   1.631999e-05   2.877745e+00   2.274842e+01   3.160041e+01   1.702045e+05   4.222199e+05   7.403101e+05  -3.506915e+01   1.413702e+01   4.169312e-21   8.690790e+05   2.600960e-39   0.000000e+00   0.000000e+00
     1640000   1.639999e-05   2.891362e+00   2.278220e+01   3.165963e+01   1.702045e+05   4.222199e+05   7.403101e+05  -4.042615e+01   1.629652e+01  -4.939135e-21   8.690790e+05   3.456288e-39   0.000000e+00   0.000000e+00
     1648000   1.647999e-05   2.904978e+00   2.281597e+01   3.171886e+01   1.702045e+05   4.222199e+05   7.403101e+05  -3.215141e+01   1.296082e+01   6.069449e-21   8.690790e+05   2.186284e-39   0.000000e+00   0.000000e+00
     1656000   1.655999e-05   2.918594e+00   2.284975e+01   3.177808e+01   1.702045e+05   4.222199e+05   7.403101e+05  -3.012080e+01   1.214224e+01   5.125610e-22   8.690790e+05   1.918845e-39   0.000000e+00   0.000000e+00
     1664000   1.663999e-05   2.932211e+00   2.288353e+01   3.183731e+01   1.702045e+05   4.222199e+05   7.403101e+05  -2.801700e+01   1.129417e+01   7.207539e-21   8.690790e+05   1.660138e-39   0.000000e+00   0.000000e+00
     1672000   1.671999e-05   2.945827e+00   2.291731e+01   3.189653e+01   1.702045e+05   4.222199e+05   7.403101e+05  -3.832272e+01   1.544859e+01  -1.733990e-20   8.690790e+05   3.105855e-39   0.000000e+00   0.000000e+00
     1680000   1.679999e-05   2.959443e+00   2.295108e+01   3.195576e+01   1.702045e+05   4.222199e+05   7.403101e+05  -3.928248e+01   1.583548e+01  -1.777861e-20   8.690790e+05   3.263546e-39   0.000000e+00   0.000000e+00
     1688000   1.687999e-05   2.973060e+00   2.298486e+01   3.201498e+01   1.702045e+05   4.222199e+05   7.403101e+05  -5.157439e+01   2.079058e+01  -5.795650e-21   8.690790e+05   5.625286e-39   0.000000e+00   0.000000e+00
     1696000   1.695999e-05   2.986676e+00   2.301864e+01   3.207421e+01   1.702045e+05   4.222199e+05   7.403101e+05  -3.325248e+01   1.340468e+01  -9.047098e-21   8.690790e+05   2.338744e-39   0.000000e+00   0.000000e+00
     1704000   1.703999e-05   3.000292e+00   2.305242e+01   3.213343e+01   1.702045e+05   4.222199e+05   7.403101e+05  -3.774107e+01   1.521412e+01  -1.649928e-20   8.690790e+05   3.012762e-39   0.000000e+00   0.000000e+00
     1712000   1.711999e-05   3.013909e+00   2.308619e+01   3.219266e+01   1.702045e+05   4.222199e+05   7.403101e+05  -2.498126e+01   1.007040e+01  -9.185383e-21   8.690790e+05   1.320030e-39   0.000000e+00   0.000000e+00
     1720000   1.719999e-05   3.027525e+00   2.311997e+01   3.225188e+01   1.702045e+05   4.222199e+05   7.403101e+05  -3.746073e+01   1.510110e+01   5.688423e-21   8.690790e+05   2.967759e-39   0.000000e+00   0.000000e+00
     1728000   1.727999e-05   3.041142e+00   2.315375e+01   3.231111e+01   1.702045e+05   4.222199e+05   7.403101e+05  -3.799529e+01   1.531659e+01  -6.779396e-21   8.690790e+05   3.053240e-39   0.000000e+00   0.000000e+00
     1736000   1.735999e-05   3.054758e+00   2.318753e+01   3.237033e+01   1.702045e+05   4.222199e+05   7.403101e+05  -3.733734e+01   1.505136e+01   9.603466e-21   8.690790e+05   2.948413e-39   0.000000e+00   0.000000e+00
     1744000   1.743999e-05   3.068374e+00   2.322130e+01   3.242955e+01   1.702045e+05   4.222199e+05   7.403101e+05  -3.747695e+01   1.510764e+01   5.278239e-21   8.690790e+05   2.970523e-39   0.000000e+00   0.000000e+00
     1752000   1.751999e-05   3.081991e+00   2.325508e+01   3.248878e+01   1.702045e+05   4.222199e+05   7.403101e+05  -3.584074e+01   1.444806e+01  -4.397397e-22   8.690790e+05   2.716806e-39   0.000000e+00   0.000000e+00
     1760000   1.759999e-05   3.095607e+00   2.328886e+01   3.254800e+01   1.702045e+05   4.222199e+05   7.403101e+05  -3.629612e+01   1.463163e+01   5.249019e-21   8.690790e+05   2.786257e-39   0.000000e+00   0.000000e+00
     1768000   1.767999e-05   3.109223e+00   2.332264e+01   3.260723e+01   1.702045e+05   4.222199e+05   7.403101e+05  -4.234884e+01   1.707159e+01  -1.613708e-20   8.690790e+05   3.792894e-39   0.000000e+00   0.000000e+00
     1776000   1.775999e-05   3.122840e+00   2.335641e+01   3.266645e+01   1.702045e+05   4.222199e+05   7.403101e+05  -4.704470e+01   1.896458e+01  -4.035287e-21   8.690790e+05   4.680694e-39   0.000000e+00   0.000000e+00
     1784000   1.783999e-05   3.136456e+00   2.339019e+01   3.272568e+01   1.702045e+05   4.222199e+05   7.403101e+05  -4.654856e+01   1.876457e+01   1.951048e-21   8.690790e+05   4.582580e-39   0.000000e+00   0.000000e+00
     1792000   1.791999e-05   3.150072e+00   2.342397e+01   3.278490e+01   1.702045e+05   4.222199e+05   7.403101e+05  -3.906611e+01   1.574826e+01  -6.702473e-21   8.690790e+05   3.227893e-39   0.000000e+00   0.000000e+00
     1800000   1.799999e-05   3.163689e+00   2.345775e+01   3.284413e+01   1.702045e+05   4.222199e+05   7.403101e+05  -3.413011e+01   1.375847e+01  -1.450079e-21   8.690790e+05   2.463776e-39   0.000000e+00   0.000000e+00
     1808000   1.807999e-05   3.177305e+00   2.349152e+01   3.290335e+01   1.702045e+05   4.222199e+05   7.403101e+05  -2.131166e+01   8.591121e+00  -2.327351e-21   8.690790e+05   9.606594e-40   0.000000e+00   0.000000e+00
     1816000   1.815999e-05   3.190922e+00   2.352530e+01   3.296258e+01   1.702045e+05   4.222199e+05   7.403101e+05  -4.646169e+01   1.872956e+01  -1.270704e-20   8.690790e+05   4.565280e-39   0.000000e+00   0.000000e+00
     1824000   1.823999e-05   3.204538e+00   2.355908e+01   3.302180e+01   1.702045e+05   4.222199e+05   7.403101e+05  -4.052366e+01   1.633583e+01   1.150966e-20   8.690790e+05   3.472967e-39   0.000000e+00   0.000000e+00
     1832000   1.831999e-05   3.218154e+00   2.359286e+01   3.308103e+01   1.702045e+05   4.222199e+05   7.403101e+05  -4.665387e+01   1.880703e+01   1.854003e-21   8.690790e+05   4.603210e-39   0.000000e+00   0.000000e+00
     1840000   1.839999e-05   3.231771e+00   2.362664e+01   3.314025e+01   1.702045e+05   4.222199e+05   7.403101e+05  -3.994965e+01   1.610443e+01   5.268712e-21   8.690790e+05   3.375446e-39   0.000000e+00   0.000000e+00
     1848000   1.847999e-05   3.245387e+00   2.366041e+01   3.319948e+01   1.702045e+05   4.222199e+05   7.403101e+05  -3.790577e+01   1.528051e+01   3.677972e-22   8.690790e+05   3.038899e-39   0.000000e+00   0.000000e+00
     1856000   1.855999e-05   3.259003e+00   2.369419e+01   3.325870e+01   1.702045e+05   4.222199e+05   7.403101e+05  -4.352855e+01   1.754715e+01  -1.219619e-21   8.690790e+05   4.007244e-39   0.000000e+00   0.000000e+00
     1864000   1.863999e-05   3.272620e+00   2.372797e+01   3.331793e+01   1.702045e+05   4.222199e+05   7.403101e+05  -4.321751e+01   1.742177e+01  -2.013579e-20   8.690790e+05   3.950288e-39   0.000000e+00   0.000000e+00
     1872000   1.871999e-05   3.286236e+00   2.376175e+01   3.337715e+01   1.702045e+05   4.222199e+05   7.403101e+05  -3.939005e+01   1.587885e+01  -1.665378e-20   8.690790e+05   3.281582e-39   0.000000e+00   0.000000e+00
     1880000   1.879999e-05   3.299852e+00   2.379552e+01   3.343638e+01   1.702045e+05   4.222199e+05   7.403101e+05  -5.591509e+01   2.254040e+01  -1.070808e-20   8.690790e+05   6.612188e-39   0.000000e+00   0.000000e+00
     1888000   1.887999e-05   3.313469e+00   2.382930e+01   3.349560e+01   1.702045e+05   4.222199e+05   7.403101e+05  -3.878729e+01   1.563586e+01  -6.118505e-21   8.690790e+05   3.181741e-39   0.000000e+00   0.000000e+00
     1896000   1.895999e-05   3.327085e+00   2.386308e+01   3.355483e+01   1.702045e+05   4.222199e+05   7.403101e+05  -4.874729e+01   1.965093e+01   3.839381e-21   8.690790e+05   5.025563e-39   0.000000e+00   0.000000e+00
     1904000   1.903999e-05   3.340702e+00   2.389686e+01   3.361405e+01   1.702045e+05   4.222199e+05   7.403101e+05  -4.707447e+01   1.897658e+01   2.416824e-21   8.690790e+05   4.686616e-39   0.000000e+00   0.000000e+00
     1912000   1.911999e-05   3.354318e+00   2.393063e+01   3.367328e+01   1.702045e+05   4.222199e+05   7.403101e+05  -5.718811e+01   2.305357e+01  -1.350492e-20   8.690790e+05   6.916610e-39   0.000000e+00   0.000000e+00
     1920000   1.919999e-05   3.367934e+00   2.396441e+01   3.373250e+01   1.702045e+05   4.222199e+05   7.403101e+05  -3.225864e+01   1.300405e+01  -6.865007e-21   8.690790e+05   2.201097e-39   0.000000e+00   0.000000e+00
     1928000   1.927999e-05   3.381551e+00   2.399819e+01   3.379173e+01   1.702045e+05   4.222199e+05   7.403101e+05  -1.817326e+01   7.325975e+00  -7.485275e-22   8.690790e+05   6.986340e-40   0.000000e+00   0.000000e+00
     1936000   1.935999e-05   3.395167e+00   2.403197e+01   3.385095e+01   1.702045e+05   4.222199e+05   7.403101e+05  -2.731589e+01   1.101153e+01   7.249334e-21   8.690790e+05   1.578233e-39   0.000000e+00   0.000000e+00
     1944000   1.943999e-05   3.408783e+00   2.406574e+01   3.391017e+01   1.702045e+05   4.222199e+05   7.403101e+05  -4.098183e+01   1.652052e+01  -1.034841e-21   8.690790e+05   3.551884e-39   0.000000e+00   0.000000e+00
     1952000   1.951999e-05   3.422400e+00   2.409952e+01   3.396940e+01   1.702045e+05   4.222199e+05   7.403101e+05  -4.989006e+01   2.011160e+01  -6.927028e-21   8.690790e+05   5.263909e-39   0.000000e+00   0.000000e+00
     1960000   1.959999e-05   3.436016e+00   2.413330e+01   3.402862e+01   1.702045e+05   4.222199e+05   7.403101e+05  -4.117213e+01   1.659724e+01  -1.922542e-20   8.690790e+05   3.584905e-39   0.000000e+00   0.000000e+00
     1968000   1.967999e-05   3.449632e+00   2.416708e+01   3.408785e+01   1.702045e+05   4.222199e+05   7.403101e+05  -5.209833e+01   2.100179e+01   1.349402e-20   8.690790e+05   5.740166e-39   0.000000e+00   0.000000e+00
     1976000   1.975999e-05   3.463249e+00   2.420085e+01   3.414707e+01   1.702045e+05   4.222199e+05   7.403101e+05  -4.621085e+01   1.862844e+01   6.475253e-21   8.690790e+05   4.516251e-39   0.000000e+00   0.000000e+00
     1984000   1.983999e-05   3.476865e+00   2.423463e+01   3.420630e+01   1.702045e+05   4.222199e+05   7.403101e+05  -4.740030e+01   1.910793e+01   5.542093e-21   8.690790e+05   4.751823e-39   0.000000e+00   0.000000e+00
     1992000   1.991999e-05   3.490482e+00   2.426841e+01   3.426552e+01   1.702045e+05   4.222199e+05   7.403101e+05  -4.806334e+01   1.937521e+01  -3.545697e-21   8.690790e+05   4.885691e-39   0.000000e+00   0.000000e+00
     2000000   1.999999e-05   3.504098e+00   2.430219e+01   3.432475e+01   1.702045e+05   4.222199e+05   7.403101e+05  -4.211447e+01   1.697711e+01  -3.557339e-21   8.690790e+05   3.751053e-39   0.000000e+00   0.000000e+00
     2008000   2.007999e-05   3.517714e+00   2.433596e+01   3.438397e+01   1.702045e+05   4.222199e+05   7.403101e+05  -4.561697e+01   1.838903e+01   1.616694e-21   8.690790e+05   4.400927e-39   0.000000e+00   0.000000e+00
     2016000   2.015999e-05   3.531331e+00   2.436974e+01   3.444320e+01   1.702045e+05   4.222199e+05   7.403101e+05  -3.696126e+01   1.489976e+01  -7.277544e-21   8.690790e+05   2.889422e-39   0.000000e+00   0.000000e+00
     2024000   2.023999e-05   3.544947e+00   2.440352e+01   3.450242e+01   1.702045e+05   4.222199e+05   7.403101e+05  -4.035640e+01   1.626840e+01   1.000191e-20   8.690790e+05   3.444429e-39   0.000000e+00   0.000000e+00
     2032000   2.031999e-05   3.558563e+00   2.443730e+01   3.456165e+01   1.702045e+05   4.222199e+05   7.403101e+05  -4.303777e+01   1.734931e+01  -1.266839e-20   8.690790e+05   3.917350e-39   0.000000e+00   0.000000e+00
     2040000   2.039999e-05   3.572180e+00   2.447107e+01   3.462087e+01   1.702045e+05   4.222199e+05   7.403101e+05  -5.604078e+01   2.259106e+01  -1.503532e-21   8.690790e+05   6.641934e-39   0.000000e+00   0.000000e+00
     2048000   2.047999e-05   3.585796e+00   2.450485e+01   3.468010e+01   1.702045e+05   4.222199e+05   7.403101e+05  -4.128321e+01   1.664202e+01   1.601661e-20   8.690790e+05   3.604679e-39   0.000000e+00   0.000000e+00
     2056000   2.055999e-05   3.599412e+00   2.453863e+01   3.473932e+01   1.702045e+05   4.222199e+05   7.403101e+05  -4.162343e+01   1.677917e+01  -7.856827e-21   8.690790e+05   3.664227e-39   0.000000e+00   0.000000e+00
     2064000   2.063999e-05   3.613029e+00   2.457241e+01   3.479855e+01   1.702045e+05   4.222199e+05   7.403101e+05  -4.212948e+01   1.698316e+01   1.426500e-20   8.690790e+05   3.753816e-39   0.000000e+00   0.000000e+00
     2072000   2.071999e-05   3.626645e+00   2.460619e+01   3.485777e+01   1.702045e+05   4.222199e+05   7.403101e+05  -4.715456e+01   1.900887e+01   3.371121e-21   8.690790e+05   4.702746e-39   0.000000e+00   0.000000e+00
     2080000   2.079999e-05   3.640262e+00   2.463996e+01   3.491700e+01   1.702045e+05   4.222199e+05   7.403101e+05  -4.942861e+01   1.992557e+01  -9.194256e-21   8.690790e+05   5.167036e-39   0.000000e+00   0.000000e+00
     2088000   2.087999e-05   3.653878e+00   2.467374e+01   3.497622e+01   1.702045e+05   4.222199e+05   7.403101e+05  -5.621140e+01   2.265984e+01  -1.174713e-20   8.690790e+05   6.682446e-39   0.000000e+00   0.000000e+00
     2096000   2.095999e-05   3.667494e+00   2.470752e+01   3.503545e+01   1.702045e+05   4.222199e+05   7.403101e+05  -4.742527e+01   1.911800e+01  -2.937852e-21   8.690790e+05   4.756808e-39   0.000000e+00   0.000000e+00
     2104000   2.103999e-05   3.681111e+00   2.474130e+01   3.509467e+01   1.702045e+05   4.222199e+05   7.403101e+05  -4.907285e+01   1.978216e+01  -2.300331e-20   8.690790e+05   5.093058e-39   0.000000e+00   0.000000e+00
     2112000   2.111999e-05   3.694727e+00   2.477507e+01   3.515390e+01   1.702045e+05   4.222199e+05   7.403101e+05  -4.775489e+01   1.925087e+01   6.575873e-21   8.690790e+05   4.823212e-39   0.000000e+00   0.000000e+00
     2120000   2.119999e-05   3.708343e+00   2.480885e+01   3.521312e+01   1.702045e+05   4.222199e+05   7.403101e+05  -3.880503e+01   1.564302e+01   6.765026e-21   8.690790e+05   3.184470e-39   0.000000e+00   0.000000e+00
     2128000   2.127999e-05   3.721960e+00   2.484263e+01   3.527235e+01   1.702045e+05   4.222199e+05   7.403101e+05  -5.258110e+01   2.119640e+01  -3.906656e-22   8.690790e+05   5.846967e-39   0.000000e+00   0.000000e+00
     2136000   2.135999e-05   3.735576e+00   2.487641e+01   3.533157e+01   1.702045e+05   4.222199e+05   7.403101e+05  -4.094664e+01   1.650634e+01  -3.731241e-21   8.690790e+05   3.546125e-39   0.000000e+00   0.000000e+00
     2144000   2.143999e-05   3.749192e+00   2.491018e+01   3.539080e+01   1.702045e+05   4.222199e+05   7.403101e+05  -5.649040e+01   2.277231e+01   4.339770e-21   8.690790e+05   6.748964e-39   0.000000e+00   0.000000e+00
     2152000   2.151999e-05   3.762809e+00   2.494396e+01   3.545002e+01   1.702045e+05   4.222199e+05   7.403101e+05  -3.931491e+01   1.584856e+01  -3.105195e-21   8.690790e+05   3.269246e-39   0.000000e+00   0.000000e+00
     2160000   2.159999e-05   3.776425e+00   2.497774e+01   3.550924e+01   1.702045e+05   4.222199e+05   7.403101e+05  -5.128334e+01   2.067325e+01  -6.857963e-23   8.690790e+05   5.562105e-39   0.000000e+00   0.000000e+00
     2168000   2.167999e-05   3.790042e+00   2.501152e+01   3.556847e+01   1.702045e+05   4.222199e+05   7.403101e+05  -3.572299e+01   1.440059e+01   8.344759e-22   8.690790e+05   2.699075e-39   0.000000e+00   0.000000e+00
     2176000   2.175999e-05   3.803658e+00   2.504529e+01   3.562769e+01   1.702045e+05   4.222199e+05   7.403101e+05  -4.685994e+01   1.889010e+01  -4.721545e-23   8.690790e+05   4.644033e-39   0.000000e+00   0.000000e+00
     2184000   2.183999e-05   3.817274e+00   2.507907e+01   3.568692e+01   1.702045e+05   4.222199e+05   7.403101e+05  -5.027680e+01   2.026750e+01  -8.481036e-22   8.690790e+05   5.345982e-39   0.000000e+00   0.000000e+00
     2192000   2.191999e-05   3.830891e+00   2.511285e+01   3.574614e+01   1.702045e+05   4.222199e+05   7.403101e+05  -4.905930e+01   1.977670e+01   6.553427e-21   8.690790e+05   5.090307e-39   0.000000e+00   0.000000e+00
     2200000   2.199999e-05   3.844507e+00   2.514663e+01   3.580537e+01   1.702045e+05   4.222199e+05   7.403101e+05  -4.468705e+01   1.801417e+01   5.532760e-21   8.690790e+05   4.223489e-39   0.000000e+00   0.000000e+00
     2208000   2.207999e-05   3.858123e+00   2.518040e+01   3.586459e+01   1.702045e+05   4.222199e+05   7.403101e+05  -4.126894e+01   1.663627e+01   3.861657e-21   8.690790e+05   3.602097e-39   0.000000e+00   0.000000e+00
     2216000   2.215999e-05   3.871740e+00   2.521418e+01   3.592382e+01   1.702045e+05   4.222199e+05   7.403101e+05  -4.529371e+01   1.825872e+01  -1.257305e-20   8.690790e+05   4.338884e-39   0.000000e+00   0.000000e+00
     2224000   2.223999e-05   3.885356e+00   2.524796e+01   3.598304e+01   1.702045e+05   4.222199e+05   7.403101e+05  -4.422640e+01   1.782847e+01  -6.632453e-21   8.690790e+05   4.136809e-39   0.000000e+00   0.000000e+00
     2232000   2.231999e-05   3.898972e+00   2.528174e+01   3.604227e+01   1.702045e+05   4.222199e+05   7.403101e+05  -3.999024e+01   1.612080e+01  -1.487098e-20   8.690790e+05   3.382268e-39   0.000000e+00   0.000000e+00
     2240000   2.239999e-05   3.912589e+00   2.531551e+01   3.610149e+01   1.702045e+05   4.222199e+05   7.403101e+05  -4.011126e+01   1.616958e+01   6.132594e-21   8.690790e+05   3.402537e-39   0.000000e+00   0.000000e+00
     2248000   2.247999e-05   3.926205e+00   2.534929e+01   3.616072e+01   1.702045e+05   4.222199e+05   7.403101e+05  -5.101866e+01   2.056656e+01  -4.067469e-21   8.690790e+05   5.504713e-39   0.000000e+00   0.000000e+00
     2256000   2.255999e-05   3.939822e+00   2.538307e+01   3.621994e+01   1.702045e+05   4.222199e+05   7.403101e+05  -4.913415e+01   1.980687e+01   2.536707e-20   8.690790e+05   5.105915e-39   0.000000e+00   0.000000e+00
     2264000   2.263999e-05   3.953438e+00   2.541685e+01   3.627917e+01   1.702045e+05   4.222199e+05   7.403101e+05  -5.103712e+01   2.057400e+01   1.568363e-20   8.690790e+05   5.508998e-39   0.000000e+00   0.000000e+00
     2272000   2.271999e-05   3.967054e+00   2.545062e+01   3.633839e+01   1.702045e+05   4.222199e+05   7.403101e+05  -5.266911e+01   2.123188e+01   2.309108e-20   8.690790e+05   5.867005e-39   0.000000e+00   0.000000e+00
     2280000   2.279999e-05   3.980671e+00   2.548440e+01   3.639762e+01   1.702045e+05   4.222199e+05   7.403101e+05  -5.036169e+01   2.030172e+01   1.183056e-21   8.690790e+05   5.364203e-39   0.000000e+00   0.000000e+00
     2288000   2.287999e-05   3.994287e+00   2.551818e+01   3.645684e+01   1.702045e+05   4.222199e+05   7.403101e+05  -5.177861e+01   2.087291e+01  -3.009840e-21   8.690790e+05   5.670315e-39   0.000000e+00   0.000000e+00
     2296000   2.295999e-05   4.007903e+00   2.555196e+01   3.651607e+01   1.702045e+05   4.222199e+05   7.403101e+05  -4.985115e+01   2.009591e+01   8.789140e-21   8.690790e+05   5.255794e-39   0.000000e+00   0.000000e+00
     2304000   2.303999e-05   4.021520e+00   2.558574e+01   3.657529e+01   1.702045e+05   4.222199e+05   7.403101e+05  -5.525190e+01   2.227305e+01  -9.360586e-21   8.690790e+05   6.456296e-39   0.000000e+00   0.000000e+00
     2312000   2.311999e-05   4.035136e+00   2.561951e+01   3.663452e+01   1.702045e+05   4.222199e+05   7.403101e+05  -4.939504e+01   1.991204e+01   1.453198e-20   8.690790e+05   5.160201e-39   0.000000e+00   0.000000e+00
     2320000   2.319999e-05   4.048752e+00   2.565329e+01   3.669374e+01   1.702045e+05   4.222199e+05   7.403101e+05  -4.923420e+01   1.984721e+01  -1.677244e-20   8.690790e+05   5.126651e-39   0.000000e+00   0.000000e+00
     2328000   2.327999e-05   4.062369e+00   2.568707e+01   3.675297e+01   1.702045e+05   4.222199e+05   7.403101e+05  -5.738695e+01   2.313373e+01   2.400861e-20   8.690790e+05   6.964963e-39   0.000000e+00   0.000000e+00
     2336000   2.335999e-05   4.075985e+00   2.572085e+01   3.681219e+01   1.702045e+05   4.222199e+05   7.403101e+05  -4.949858e+01   1.995378e+01   7.403230e-21   8.690790e+05   5.181983e-39   0.000000e+00   0.000000e+00
     2344000   2.343999e-05   4.089602e+00   2.575462e+01   3.687142e+01   1.702045e+05   4.222199e+05   7.403101e+05  -4.452574e+01   1.794914e+01   1.622313e-20   8.690790e+05   4.193089e-39   0.000000e+00   0.000000e+00
     2352000   2.351999e-05   4.103218e+00   2.578840e+01   3.693064e+01   1.702045e+05   4.222199e+05   7.403101e+05  -5.814773e+01   2.344041e+01   2.506298e-21   8.690790e+05   7.150480e-39   0.000000e+00   0.000000e+00
     2360000   2.359999e-05   4.116834e+00   2.582218e+01   3.698986e+01   1.702045e+05   4.222199e+05   7.403101e+05  -3.925084e+01   1.582273e+01  -4.705688e-21   8.690790e+05   3.258620e-39   0.000000e+00   0.000000e+00
     2368000   2.367999e-05   4.130451e+00   2.585596e+01   3.704909e+01   1.702045e+05   4.222199e+05   7.403101e+05  -6.003470e+01   2.420109e+01   6.711165e-22   8.690790e+05   7.622172e-39   0.000000e+00   0.000000e+00
     2376000   2.375999e-05   4.144067e+00   2.588973e+01   3.710831e+01   1.702045e+05   4.222199e+05   7.403101e+05  -4.019771e+01   1.620443e+01   2.252396e-22   8.690790e+05   3.417728e-39   0.000000e+00   0.000000e+00
     2384000   2.383999e-05   4.157683e+00   2.592351e+01   3.716754e+01   1.702045e+05   4.222199e+05   7.403101e+05  -5.761620e+01   2.322615e+01   1.974758e-22   8.690790e+05   7.020601e-39   0.000000e+00   0.000000e+00
     2392000   2.391999e-05   4.171300e+00   2.595729e+01   3.722676e+01   1.702045e+05   4.222199e+05   7.403101e+05  -4.195789e+01   1.691399e+01   4.275534e-21   8.690790e+05   3.723485e-39   0.000000e+00   0.000000e+00
     2400000   2.399999e-05   4.184916e+00   2.599107e+01   3.728599e+01   1.702045e+05   4.222199e+05   7.403101e+05  -3.315877e+01   1.336691e+01   4.852009e-22   8.690790e+05   2.325548e-39   0.000000e+00   0.000000e+00
     2408000   2.407999e-05   4.198532e+00   2.602484e+01   3.734521e+01   1.702045e+05   4.222199e+05   7.403101e+05  -5.768528e+01   2.325399e+01   8.876699e-21   8.690790e+05   7.037613e-39   0.000000e+00   0.000000e+00
     2416000   2.415999e-05   4.212149e+00   2.605862e+01   3.740444e+01   1.702045e+05   4.222199e+05   7.403101e+05  -4.696678e+01   1.893317e+01   1.263923e-20   8.690790e+05   4.665692e-39   0.000000e+00   0.000000e+00
     2424000   2.423999e-05   4.225765e+00   2.609240e+01   3.746366e+01   1.702045e+05   4.222199e+05   7.403101e+05  -3.192795e+01   1.287074e+01  -9.972986e-22   8.690790e+05   2.156219e-39   0.000000e+00   0.000000e+00
     2432000   2.431999e-05   4.239382e+00   2.612618e+01   3.752289e+01   1.702045e+05   4.222199e+05   7.403101e+05  -4.700434e+01   1.894831e+01   8.989461e-21   8.690790e+05   4.672756e-39   0.000000e+00   0.000000e+00
     2440000   2.439999e-05   4.252998e+00   2.615995e+01   3.758211e+01   1.702045e+05   4.222199e+05   7.403101e+05  -4.804834e+01   1.936917e+01   7.568091e-21   8.690790e+05   4.882634e-39   0.000000e+00   0.000000e+00
     2448000   2.447999e-05   4.266614e+00   2.619373e+01   3.764134e+01   1.702045e+05   4.222199e+05   7.403101e+05  -6.908925e+01   2.785114e+01  -1.074689e-20   8.690790e+05   1.009492e-38   0.000000e+00   0.000000e+00
     2456000   2.455999e-05   4.280231e+00   2.622751e+01   3.770056e+01   1.702045e+05   4.222199e+05   7.403101e+05  -4.636471e+01   1.869046e+01   8.507552e-21   8.690790e+05   4.546346e-39   0.000000e+00   0.000000e+00
     2464000   2.463999e-05   4.293847e+00   2.626129e+01   3.775979e+01   1.702045e+05   4.222199e+05   7.403101e+05  -5.165466e+01   2.082294e+01  -2.290803e-20   8.690790e+05   5.642968e-39   0.000000e+00   0.000000e+00
     2472000   2.471999e-05   4.307463e+00   2.629506e+01   3.781901e+01   1.702045e+05   4.222199e+05   7.403101e+05  -4.489878e+01   1.809952e+01   4.510887e-22   8.690790e+05   4.264007e-39   0.000000e+00   0.000000e+00
     2480000   2.479999e-05   4.321080e+00   2.632884e+01   3.787824e+01   1.702045e+05   4.222199e+05   7.403101e+05  -5.210409e+01   2.100411e+01  -2.423135e-21   8.690790e+05   5.741693e-39   0.000000e+00   0.000000e+00
     2488000   2.487999e-05   4.334696e+00   2.636262e+01   3.793746e+01   1.702045e+05   4.222199e+05   7.403101e+05  -4.402646e+01   1.774787e+01  -1.246960e-20   8.690790e+05   4.099613e-39   0.000000e+00   0.000000e+00
     2496000   2.495999e-05   4.348312e+00   2.639640e+01   3.799669e+01   1.702045e+05   4.222199e+05   7.403101e+05  -3.766900e+01   1.518506e+01  -2.027835e-22   8.690790e+05   3.001140e-39   0.000000e+00   0.000000e+00
     2504000   2.503999e-05   4.361929e+00   2.643017e+01   3.805591e+01   1.702045e+05   4.222199e+05   7.403101e+05  -4.116608e+01   1.659480e+01   3.940483e-21   8.690790e+05   3.584106e-39   0.000000e+00   0.000000e+00
     2512000   2.511999e-05   4.375545e+00   2.646395e+01   3.811514e+01   1.702045e+05   4.222199e+05   7.403101e+05  -4.534611e+01   1.827984e+01  -7.221458e-21   8.690790e+05   4.348836e-39   0.000000e+00   0.000000e+00
     2520000   2.519999e-05   4.389162e+00   2.649773e+01   3.817436e+01   1.702045e+05   4.222199e+05   7.403101e+05  -4.814686e+01   1.940888e+01   5.156169e-21   8.690790e+05   4.902631e-39   0.000000e+00   0.000000e+00
     2528000   2.527999e-05   4.402778e+00   2.653151e+01   3.823359e+01   1.702045e+05   4.222199e+05   7.403101e+05  -5.031550e+01   2.028310e+01  -1.583113e-20   8.690790e+05   5.354541e-39   0.000000e+00   0.000000e+00
     2536000   2.535999e-05   4.416394e+00   2.656529e+01   3.829281e+01   1.702045e+05   4.222199e+05   7.403101e+05  -4.151738e+01   1.673642e+01   1.420345e-20   8.690790e+05   3.645714e-39   0.000000e+00   0.000000e+00
     2544000   2.543999e-05   4.430011e+00   2.659906e+01   3.835204e+01   1.702045e+05   4.222199e+05   7.403101e+05  -4.293445e+01   1.730766e+01  -3.626680e-21   8.690790e+05   3.898683e-39   0.000000e+00   0.000000e+00
     2552000   2.551999e-05   4.443627e+00   2.663284e+01   3.841126e+01   1.702045e+05   4.222199e+05   7.403101e+05  -4.829035e+01   1.946672e+01  -1.493336e-21   8.690790e+05   4.931890e-39   0.000000e+00   0.000000e+00
     2560000   2.559999e-05   4.457243e+00   2.666662e+01   3.847049e+01   1.702045e+05   4.222199e+05   7.403101e+05  -5.141050e+01   2.072451e+01   1.556083e-20   8.690790e+05   5.589806e-39   0.000000e+00   0.000000e+00
     2568000   2.567999e-05   4.470860e+00   2.670040e+01   3.852971e+01   1.702045e+05   4.222199e+05   7.403101e+05  -4.487557e+01   1.809016e+01  -3.940743e-21   8.690790e+05   4.259231e-39   0.000000e+00   0.000000e+00
     2576000   2.575999e-05   4.484476e+00   2.673417e+01   3.858893e+01   1.702045e+05   4.222199e+05   7.403101e+05  -4.006314e+01   1.615019e+01   6.839715e-21   8.690790e+05   3.394711e-39   0.000000e+00   0.000000e+00
     2584000   2.583999e-05   4.498092e+00   2.676795e+01   3.864816e+01   1.702045e+05   4.222199e+05   7.403101e+05  -4.977551e+01   2.006542e+01  -6.257522e-21   8.690790e+05   5.239842e-39   0.000000e+00   0.000000e+00
     2592000   2.591999e-05   4.511709e+00   2.680173e+01   3.870738e+01   1.702045e+05   4.222199e+05   7.403101e+05  -4.878882e+01   1.966767e+01   1.457576e-20   8.690790e+05   5.034102e-39   0.000000e+00   0.000000e+00
     2600000   2.599999e-05   4.525325e+00   2.683551e+01   3.876661e+01   1.702045e+05   4.222199e+05   7.403101e+05  -5.702475e+01   2.298772e+01   6.367640e-21   8.690790e+05   6.877187e-39   0.000000e+00   0.000000e+00
     2608000   2.607999e-05   4.538942e+00   2.686928e+01   3.882583e+01   1.702045e+05   4.222199e+05   7.403101e+05  -4.869752e+01   1.963086e+01  -1.628644e-20   8.690790e+05   5.015579e-39   0.000000e+00   0.000000e+00
     2616000   2.615999e-05   4.552558e+00   2.690306e+01   3.888506e+01   1.702045e+05   4.222199e+05   7.403101e+05  -5.906320e+01   2.380946e+01   1.026219e-20   8.690790e+05   7.377741e-39   0.000000e+00   0.000000e+00
     2624000   2.623999e-05   4.566174e+00   2.693684e+01   3.894428e+01   1.702045e+05   4.222199e+05   7.403101e+05  -4.452279e+01   1.794795e+01   8.543791e-21   8.690790e+05   4.192717e-39   0.000000e+00   0.000000e+00
     2632000   2.631999e-05   4.579791e+00   2.697062e+01   3.900351e+01   1.702045e+05   4.222199e+05   7.403101e+05  -5.021723e+01   2.024348e+01   5.735899e-22   8.690790e+05   5.333266e-39   0.000000e+00   0.000000e+00
     2640000   2.639999e-05   4.593407e+00   2.700439e+01   3.906273e+01   1.702045e+05   4.222199e+05   7.403101e+05  -4.585485e+01   1.848493e+01  -4.190967e-22   8.690790e+05   4.447096e-39   0.000000e+00   0.000000e+00
     2648000   2.647999e-05   4.607023e+00   2.703817e+01   3.912196e+01   1.702045e+05   4.222199e+05   7.403101e+05  -5.302233e+01   2.137427e+01  -8.992126e-21   8.690790e+05   5.945890e-39   0.000000e+00   0.000000e+00
     2656000   2.655999e-05   4.620640e+00   2.707195e+01   3.918118e+01   1.702045e+05   4.222199e+05   7.403101e+05  -5.326233e+01   2.147102e+01   1.957956e-20   8.690790e+05   5.999839e-39   0.000000e+00   0.000000e+00
     2664000   2.663999e-05   4.634256e+00   2.710573e+01   3.924041e+01   1.702045e+05   4.222199e+05   7.403101e+05  -4.841496e+01   1.951696e+01   3.494858e-21   8.690790e+05   4.957302e-39   0.000000e+00   0.000000e+00
     2672000   2.671999e-05   4.647872e+00   2.713950e+01   3.929963e+01   1.702045e+05   4.222199e+05   7.403101e+05  -5.442506e+01   2.193974e+01   7.863695e-21   8.690790e+05   6.264488e-39   0.000000e+00   0.000000e+00
     2680000   2.679999e-05   4.661489e+00   2.717328e+01   3.935886e+01   1.702045e+05   4.222199e+05   7.403101e+05  -3.220666e+01   1.298309e+01   6.921668e-21   8.690790e+05   2.193960e-39   0.000000e+00   0.000000e+00
     2688000   2.687999e-05   4.675105e+00   2.720706e+01   3.941808e+01   1.702045e+05   4.222199e+05   7.403101e+05  -5.056263e+01   2.038272e+01  -9.859797e-21   8.690790e+05   5.407041e-39   0.000000e+00   0.000000e+00
     2696000   2.695999e-05   4.688722e+00   2.724084e+01   3.947731e+01   1.702045e+05   4.222199e+05   7.403101e+05  -5.028530e+01   2.027092e+01  -5.957804e-21   8.690790e+05   5.347889e-39   0.000000e+00   0.000000e+00
     2704000   2.703999e-05   4.702338e+00   2.727461e+01   3.953653e+01   1.702045e+05   4.222199e+05   7.403101e+05  -3.999865e+01   1.612419e+01   1.339943e-20   8.690790e+05   3.383969e-39   0.000000e+00   0.000000e+00
     2712000   2.711999e-05   4.715954e+00   2.730839e+01   3.959576e+01   1.702045e+05   4.222199e+05   7.403101e+05  -4.229045e+01   1.704806e+01  -6.739993e-22   8.690790e+05   3.782350e-39   0.000000e+00   0.000000e+00
     2720000   2.719999e-05   4.729571e+00   2.734217e+01   3.965498e+01   1.702045e+05   4.222199e+05   7.403101e+05  -4.700254e+01   1.894758e+01  -7.003966e-21   8.690790e+05   4.672305e-39   0.000000e+00   0.000000e+00
     2728000   2.727999e-05   4.743187e+00   2.737595e+01   3.971421e+01   1.702045e+05   4.222199e+05   7.403101e+05  -5.683736e+01   2.291218e+01  -1.285470e-20   8.690790e+05   6.832043e-39   0.000000e+00   0.000000e+00
     2736000   2.735999e-05   4.756803e+00   2.740973e+01   3.977343e+01   1.702045e+05   4.222199e+05   7.403101e+05  -4.476595e+01   1.804597e+01  -4.672159e-21   8.690790e+05   4.238438e-39   0.000000e+00   0.000000e+00
     2744000   2.743999e-05   4.770420e+00   2.744350e+01   3.983266e+01   1.702045e+05   4.222199e+05   7.403101e+05  -4.567523e+01   1.841252e+01   2.171686e-20   8.690790e+05   4.412195e-39   0.000000e+00   0.000000e+00
     2752000   2.751999e-05   4.784036e+00   2.747728e+01   3.989188e+01   1.702045e+05   4.222199e+05   7.403101e+05  -4.841978e+01   1.951890e+01  -9.598600e-21   8.690790e+05   4.958373e-39   0.000000e+00   0.000000e+00
     2760000   2.759999e-05   4.797652e+00   2.751106e+01   3.995111e+01   1.702045e+05   4.222199e+05   7.403101e+05  -4.526628e+01   1.824767e+01  -4.262847e-21   8.690790e+05   4.333748e-39   0.000000e+00   0.000000e+00
     2768000   2.767999e-05   4.811269e+00   2.754484e+01   4.001033e+01   1.702045e+05   4.222199e+05   7.403101e+05  -5.000815e+01   2.015920e+01   4.945841e-21   8.690790e+05   5.289154e-39   0.000000e+00   0.000000e+00
     2776000   2.775999e-05   4.824885e+00   2.757861e+01   4.006956e+01   1.702045e+05   4.222199e+05   7.403101e+05  -4.772122e+01   1.923730e+01  -1.495071e-20   8.690790e+05   4.816460e-39   0.000000e+00   0.000000e+00
     2784000   2.783999e-05   4.838502e+00   2.761239e+01   4.012878e+01   1.702045e+05   4.222199e+05   7.403101e+05  -4.842456e+01   1.952083e+01   8.570019e-21   8.690790e+05   4.959713e-39   0.000000e+00   0.000000e+00
     2792000   2.791999e-05   4.852118e+00   2.764617e+01   4.018800e+01   1.702045e+05   4.222199e+05   7.403101e+05  -3.709659e+01   1.495431e+01   2.419742e-20   8.690790e+05   2.910723e-39   0.000000e+00   0.000000e+00
     2800000   2.799999e-05   4.865734e+00   2.767995e+01   4.024723e+01   1.702045e+05   4.222199e+05   7.403101e+05  -4.392491e+01   1.770693e+01   6.373492e-22   8.690790e+05   4.080565e-39   0.000000e+00   0.000000e+00
     2808000   2.807999e-05   4.879351e+00   2.771372e+01   4.030645e+01   1.702045e+05   4.222199e+05   7.403101e+05  -4.751593e+01   1.915454e+01   1.041022e-20   8.690790e+05   4.774806e-39   0.000000e+00   0.000000e+00
     2816000   2.815999e-05   4.892967e+00   2.774750e+01   4.036568e+01   1.702045e+05   4.222199e+05   7.403101e+05  -5.733872e+01   2.311429e+01   8.029394e-21   8.690790e+05   6.953078e-39   0.000000e+00   0.000000e+00
     2824000   2.823999e-05   4.906583e+00   2.778128e+01   4.042490e+01   1.702045e+05   4.222199e+05   7.403101e+05  -4.038726e+01   1.628084e+01   1.188809e-20   8.690790e+05   3.449839e-39   0.000000e+00   0.000000e+00
     2832000   2.831999e-05   4.920200e+00   2.781506e+01   4.048413e+01   1.702045e+05   4.222199e+05   7.403101e+05  -4.054206e+01   1.634325e+01   7.746233e-21   8.690790e+05   3.476180e-39   0.000000e+00   0.000000e+00
     2840000   2.839999e-05   4.933816e+00   2.784883e+01   4.054335e+01   1.702045e+05   4.222199e+05   7.403101e+05  -4.197634e+01   1.692143e+01  -7.609975e-21   8.690790e+05   3.726499e-39   0.000000e+00   0.000000e+00
     2848000   2.847999e-05   4.947432e+00   2.788261e+01   4.060258e+01   1.702045e+05   4.222199e+05   7.403101e+05  -5.039993e+01   2.031713e+01   6.585863e-21   8.690790e+05   5.372201e-39   0.000000e+00   0.000000e+00
     2856000   2.855999e-05   4.961049e+00   2.791639e+01   4.066180e+01   1.702045e+05   4.222199e+05   7.403101e+05  -4.058559e+01   1.636079e+01   5.332872e-21   8.690790e+05   3.483760e-39   0.000000e+00   0.000000e+00
     2864000   2.863999e-05   4.974665e+00   2.795017e+01   4.072103e+01   1.702045e+05   4.222199e+05   7.403101e+05  -4.384266e+01   1.767378e+01  -9.672398e-22   8.690790e+05   4.065159e-39   0.000000e+00   0.000000e+00
     2872000   2.871999e-05   4.988282e+00   2.798394e+01   4.078025e+01   1.702045e+05   4.222199e+05   7.403101e+05  -5.027437e+01   2.026652e+01   1.050600e-20   8.690790e+05   5.345385e-39   0.000000e+00   0.000000e+00
     2880000   2.879999e-05   5.001898e+00   2.801772e+01   4.083948e+01   1.702045e+05   4.222199e+05   7.403101e+05  -5.036350e+01   2.030245e+01   3.324909e-21   8.690790e+05   5.364699e-39   0.000000e+00   0.000000e+00
     2888000   2.887999e-05   5.015514e+00   2.805150e+01   4.089870e+01   1.702045e+05   4.222199e+05   7.403101e+05  -4.394503e+01   1.771505e+01   1.002231e-20   8.690790e+05   4.084465e-39   0.000000e+00   0.000000e+00
     2896000   2.895999e-05   5.029131e+00   2.808528e+01   4.095793e+01   1.702045e+05   4.222199e+05   7.403101e+05  -4.548811e+01   1.833709e+01  -2.076061e-20   8.690790e+05   4.376199e-39   0.000000e+00   0.000000e+00
     2904000   2.903999e-05   5.042747e+00   2.811905e+01   4.101715e+01   1.702045e+05   4.222199e+05   7.403101e+05  -4.836866e+01   1.949829e+01  -7.238015e-21   8.690790e+05   4.947981e-39   0.000000e+00   0.000000e+00
     2912000   2.911999e-05   5.056363e+00   2.815283e+01   4.107638e+01   1.702045e+05   4.222199e+05   7.403101e+05  -4.827227e+01   1.945943e+01  -1.459703e-20   8.690790e+05   4.928279e-39   0.000000e+00   0.000000e+00
     2920000   2.919999e-05   5.069980e+00   2.818661e+01   4.113560e+01   1.702045e+05   4.222199e+05   7.403101e+05  -5.245092e+01   2.114392e+01  -9.981864e-22   8.690790e+05   5.818323e-39   0.000000e+00   0.000000e+00
     2928000   2.927999e-05   5.083596e+00   2.822039e+01   4.119483e+01   1.702045e+05   4.222199e+05   7.403101e+05  -5.113753e+01   2.061447e+01  -6.819629e-22   8.690790e+05   5.530803e-39   0.000000e+00   0.000000e+00
     2936000   2.935999e-05   5.097212e+00   2.825416e+01   4.125405e+01   1.702045e+05   4.222199e+05   7.403101e+05  -5.615315e+01   2.263636e+01  -3.601605e-21   8.690790e+05   6.668746e-39   0.000000e+00   0.000000e+00
     2944000   2.943999e-05   5.110829e+00   2.828794e+01   4.131328e+01   1.702045e+05   4.222199e+05   7.403101e+05  -3.219269e+01   1.297746e+01   2.825201e-21   8.690790e+05   2.192056e-39   0.000000e+00   0.000000e+00
     2952000   2.951999e-05   5.124445e+00   2.832172e+01   4.137250e+01   1.702045e+05   4.222199e+05   7.403101e+05  -4.735438e+01   1.908942e+01  -5.658615e-21   8.690790e+05   4.742263e-39   0.000000e+00   0.000000e+00
     2960000   2.959999e-05   5.138062e+00   2.835550e+01   4.143173e+01   1.702045e+05   4.222199e+05   7.403101e+05  -3.867919e+01   1.559229e+01  -4.462368e-21   8.690790e+05   3.164246e-39   0.000000e+00   0.000000e+00
     2968000   2.967999e-05   5.151678e+00   2.838928e+01   4.149095e+01   1.702045e+05   4.222199e+05   7.403101e+05  -3.303762e+01   1.331807e+01   1.639802e-20   8.690790e+05   2.308531e-39   0.000000e+00   0.000000e+00
     2976000   2.975999e-05   5.165294e+00   2.842305e+01   4.155018e+01   1.702045e+05   4.222199e+05   7.403101e+05  -3.589416e+01   1.446959e+01   1.644717e-20   8.690790e+05   2.725083e-39   0.000000e+00   0.000000e+00
     2984000   2.983999e-05   5.178911e+00   2.845683e+01   4.160940e+01   1.702045e+05   4.222199e+05   7.403101e+05  -4.908312e+01   1.978630e+01  -7.803978e-21   8.690790e+05   5.094923e-39   0.000000e+00   0.000000e+00
     2992000   2.991999e-05   5.192527e+00   2.849061e+01   4.166862e+01   1.702045e+05   4.222199e+05   7.403101e+05  -6.100333e+01   2.459156e+01  -4.883232e-21   8.690790e+05   7.870195e-39   0.000000e+00   0.000000e+00
     3000000   2.999999e-05   5.206143e+00   2.852439e+01   4.172785e+01   1.702045e+05   4.222199e+05   7.403101e+05  -4.509397e+01   1.817820e+01  -2.251531e-21   8.690790e+05   4.300778e-39   0.000000e+00   0.000000e+00
     3008000   3.007999e-05   5.219760e+00   2.855816e+01   4.178707e+01   1.702045e+05   4.222199e+05   7.403101e+05  -4.080791e+01   1.645041e+01   1.891080e-20   8.690790e+05   3.522084e-39   0.000000e+00   0.000000e+00
     3016000   3.015999e-05   5.233376e+00   2.859194e+01   4.184630e+01   1.702045e+05   4.222199e+05   7.403101e+05  -5.764245e+01   2.323672e+01  -8.225883e-21   8.690790e+05   7.026866e-39   0.000000e+00   0.000000e+00
     3024000   3.023999e-05   5.246992e+00   2.862572e+01   4.190552e+01   1.702045e+05   4.222199e+05   7.403101e+05  -4.647501e+01   1.873493e+01   6.846683e-21   8.690790e+05   4.568322e-39   0.000000e+00   0.000000e+00
     3032000   3.031999e-05   5.260609e+00   2.865950e+01   4.196475e+01   1.702045e+05   4.222199e+05   7.403101e+05  -3.874448e+01   1.561861e+01  -1.362826e-20   8.690790e+05   3.174980e-39   0.000000e+00   0.000000e+00
     3040000   3.039999e-05   5.274225e+00   2.869327e+01   4.202397e+01   1.702045e+05   4.222199e+05   7.403101e+05  -3.393725e+01   1.368073e+01  -1.285950e-20   8.690790e+05   2.435965e-39   0.000000e+00   0.000000e+00
     3048000   3.047999e-05   5.287842e+00   2.872705e+01   4.208320e+01   1.702045e+05   4.222199e+05   7.403101e+05  -5.431646e+01   2.189596e+01  -9.044472e-21   8.690790e+05   6.239365e-39   0.000000e+00   0.000000e+00
     3056000   3.055999e-05   5.301458e+00   2.876083e+01   4.214242e+01   1.702045e+05   4.222199e+05   7.403101e+05  -4.541052e+01   1.830581e+01  -2.800323e-20   8.690790e+05   4.361311e-39   0.000000e+00   0.000000e+00
     3064000   3.063999e-05   5.315074e+00   2.879461e+01   4.220165e+01   1.702045e+05   4.222199e+05   7.403101e+05  -4.407583e+01   1.776777e+01   5.832729e-21   8.690790e+05   4.108660e-39   0.000000e+00   0.000000e+00
     3072000   3.071999e-05   5.328691e+00   2.882838e+01   4.226087e+01   1.702045e+05   4.222199e+05   7.403101e+05  -4.154927e+01   1.674927e+01   7.224330e-21   8.690790e+05   3.651171e-39   0.000000e+00   0.000000e+00
     3080000   3.079999e-05   5.342307e+00   2.886216e+01   4.232010e+01   1.702045e+05   4.222199e+05   7.403101e+05  -3.861331e+01   1.556573e+01  -2.126571e-21   8.690790e+05   3.153437e-39   0.000000e+00   0.000000e+00
     3088000   3.087999e-05   5.355923e+00   2.889594e+01   4.237932e+01   1.702045e+05   4.222199e+05   7.403101e+05  -3.491077e+01   1.407317e+01   7.551620e-21   8.690790e+05   2.577686e-39   0.000000e+00   0.000000e+00
     3096000   3.095999e-05   5.369540e+00   2.892972e+01   4.243855e+01   1.702045e+05   4.222199e+05   7.403101e+05  -4.596369e+01   1.852880e+01  -9.428897e-21   8.690790e+05   4.468082e-39   0.000000e+00   0.000000e+00
     3104000   3.103999e-05   5.383156e+00   2.896349e+01   4.249777e+01   1.702045e+05   4.222199e+05   7.403101e+05  -4.946017e+01   1.993830e+01  -2.142186e-20   8.690790e+05   5.173723e-39   0.000000e+00   0.000000e+00
     3112000   3.111999e-05   5.396772e+00   2.899727e+01   4.255700e+01   1.702045e+05   4.222199e+05   7.403101e+05  -3.701576e+01   1.492173e+01   5.064965e-21   8.690790e+05   2.897909e-39   0.000000e+00   0.000000e+00
     3120000   3.119999e-05   5.410389e+00   2.903105e+01   4.261622e+01   1.702045e+05   4.222199e+05   7.403101e+05  -3.183438e+01   1.283302e+01   5.890453e-21   8.690790e+05   2.143253e-39   0.000000e+00   0.000000e+00
     3128000   3.127999e-05   5.424005e+00   2.906483e+01   4.267545e+01   1.702045e+05   4.222199e+05   7.403101e+05  -3.744610e+01   1.509521e+01  -2.264352e-20   8.690790e+05   2.965491e-39   0.000000e+00   0.000000e+00
     3136000   3.135999e-05   5.437622e+00   2.909860e+01   4.273467e+01   1.702045e+05   4.222199e+05   7.403101e+05  -4.571827e+01   1.842987e+01  -9.671100e-21   8.690790e+05   4.420320e-39   0.000000e+00   0.000000e+00
     3144000   3.143999e-05   5.451238e+00   2.913238e+01   4.279390e+01   1.702045e+05   4.222199e+05   7.403101e+05  -4.027632e+01   1.623612e+01   1.108550e-20   8.690790e+05   3.430840e-39   0.000000e+00   0.000000e+00
     3152000   3.151999e-05   5.464854e+00   2.916616e+01   4.285312e+01   1.702045e+05   4.222199e+05   7.403101e+05  -2.482360e+01   1.000685e+01   2.823283e-22   8.690790e+05   1.303364e-39   0.000000e+00   0.000000e+00
     3160000   3.159999e-05   5.478471e+00   2.919994e+01   4.291235e+01   1.702045e+05   4.222199e+05   7.403101e+05  -3.389065e+01   1.366194e+01  -8.941348e-22   8.690790e+05   2.429188e-39   0.000000e+00   0.000000e+00
     3168000   3.167999e-05   5.492087e+00   2.923371e+01   4.297157e+01   1.702045e+05   4.222199e+05   7.403101e+05  -3.709693e+01   1.495445e+01   1.107953e-20   8.690790e+05   2.910580e-39   0.000000e+00   0.000000e+00
     3176000   3.175999e-05   5.505703e+00   2.926749e+01   4.303080e+01   1.702045e+05   4.222199e+05   7.403101e+05  -3.310144e+01   1.334380e+01  -1.140844e-21   8.690790e+05   2.317495e-39   0.000000e+00   0.000000e+00
     3184000   3.183999e-05   5.519320e+00   2.930127e+01   4.309002e+01   1.702045e+05   4.222199e+05   7.403101e+05  -3.116371e+01   1.256266e+01   6.817181e-21   8.690790e+05   2.053915e-39   0.000000e+00   0.000000e+00
     3192000   3.191999e-05   5.532936e+00   2.933505e+01   4.314925e+01   1.702045e+05   4.222199e+05   7.403101e+05  -3.665800e+01   1.477751e+01   6.203377e-21   8.690790e+05   2.841996e-39   0.000000e+00   0.000000e+00
     3200000   3.199999e-05   5.546552e+00   2.936883e+01   4.320847e+01   1.702045e+05   4.222199e+05   7.403101e+05  -3.943399e+01   1.589656e+01  -2.373953e-21   8.690790e+05   3.288736e-39   0.000000e+00   0.000000e+00
     3208000   3.207999e-05   5.560169e+00   2.940260e+01   4.326769e+01   1.702045e+05   4.222199e+05   7.403101e+05  -3.990856e+01   1.608787e+01  -6.978163e-21   8.690790e+05   3.368444e-39   0.000000e+00   0.000000e+00
     3216000   3.215999e-05   5.573785e+00   2.943638e+01   4.332692e+01   1.702045e+05   4.222199e+05   7.403101e+05  -3.571147e+01   1.439595e+01   9.139154e-21   8.690790e+05   2.697241e-39   0.000000e+00   0.000000e+00
     3224000   3.223999e-05   5.587402e+00   2.947016e+01   4.338614e+01   1.702045e+05   4.222199e+05   7.403101e+05  -3.420670e+01   1.378934e+01  -8.024797e-21   8.690790e+05   2.474724e-39   0.000000e+00   0.000000e+00
     3232000   3.231999e-05   5.601018e+00   2.950394e+01   4.344537e+01   1.702045e+05   4.222199e+05   7.403101e+05  -2.619494e+01   1.055966e+01   4.291805e-21   8.690790e+05   1.450976e-39   0.000000e+00   0.000000e+00
     3240000   3.239999e-05   5.614634e+00   2.953771e+01   4.350459e+01   1.702045e+05   4.222199e+05   7.403101e+05  -3.416092e+01   1.377089e+01  -3.016370e-21   8.690790e+05   2.468164e-39   0.000000e+00   0.000000e+00
     3248000   3.247999e-05   5.628251e+00   2.957149e+01   4.356382e+01   1.702045e+05   4.222199e+05   7.403101e+05  -2.935548e+01   1.183373e+01   1.177523e-21   8.690790e+05   1.822619e-39   0.000000e+00   0.000000e+00
     3256000   3.255999e-05   5.641867e+00   2.960527e+01   4.362304e+01   1.702045e+05   4.222199e+05   7.403101e+05  -3.444423e+01   1.388510e+01   5.697960e-21   8.690790e+05   2.509325e-39   0.000000e+00   0.000000e+00
     3264000   3.263999e-05   5.655483e+00   2.963905e+01   4.368227e+01   1.702045e+05   4.222199e+05   7.403101e+05  -2.678389e+01   1.079708e+01   4.148525e-21   8.690790e+05   1.517323e-39   0.000000e+00   0.000000e+00
     3272000   3.271999e-05   5.669100e+00   2.967282e+01   4.374149e+01   1.702045e+05   4.222199e+05   7.403101e+05  -4.238174e+01   1.708485e+01  -2.443904e-20   8.690790e+05   3.798747e-39   0.000000e+00   0.000000e+00
     3280000   3.279999e-05   5.682716e+00   2.970660e+01   4.380072e+01   1.702045e+05   4.222199e+05   7.403101e+05  -3.113970e+01   1.255298e+01   1.796002e-20   8.690790e+05   2.050818e-39   0.000000e+00   0.000000e+00
     3288000   3.287999e-05   5.696332e+00   2.974038e+01   4.385994e+01   1.702045e+05   4.222199e+05   7.403101e+05  -3.151700e+01   1.270508e+01   1.662661e-21   8.690790e+05   2.100817e-39   0.000000e+00   0.000000e+00
     3296000   3.295999e-05   5.709949e+00   2.977416e+01   4.391917e+01   1.702045e+05   4.222199e+05   7.403101e+05  -3.777795e+01   1.522898e+01  -4.489651e-21   8.690790e+05   3.018128e-39   0.000000e+00   0.000000e+00
     3304000   3.303999e-05   5.723565e+00   2.980793e+01   4.397839e+01   1.702045e+05   4.222199e+05   7.403101e+05  -3.407500e+01   1.373625e+01   1.114224e-21   8.690790e+05   2.455775e-39   0.000000e+00   0.000000e+00
     3312000   3.311999e-05   5.737182e+00   2.984171e+01   4.403762e+01   1.702045e+05   4.222199e+05   7.403101e+05  -3.458137e+01   1.394038e+01   5.057834e-21   8.690790e+05   2.529139e-39   0.000000e+00   0.000000e+00
     3320000   3.319999e-05   5.750798e+00   2.987549e+01   4.409684e+01   1.702045e+05   4.222199e+05   7.403101e+05  -3.822689e+01   1.540996e+01  -9.104791e-21   8.690790e+05   3.090489e-39   0.000000e+00   0.000000e+00
     3328000   3.327999e-05   5.764414e+00   2.990927e+01   4.415607e+01   1.702045e+05   4.222199e+05   7.403101e+05  -3.167580e+01   1.276910e+01  -3.295914e-21   8.690790e+05   2.122088e-39   0.000000e+00   0.000000e+00
     3336000   3.335999e-05   5.778031e+00   2.994304e+01   4.421529e+01   1.702045e+05   4.222199e+05   7.403101e+05  -3.375254e+01   1.360627e+01  -7.093326e-21   8.690790e+05   2.409427e-39   0.000000e+00   0.000000e+00
     3344000   3.343999e-05   5.791647e+00   2.997682e+01   4.427452e+01   1.702045e+05   4.222199e+05   7.403101e+05  -3.339387e+01   1.346168e+01  -1.591393e-20   8.690790e+05   2.358491e-39   0.000000e+00   0.000000e+00
     3352000   3.351999e-05   5.805263e+00   3.001060e+01   4.433374e+01   1.702045e+05   4.222199e+05   7.403101e+05  -2.047958e+01   8.255695e+00   6.227107e-21   8.690790e+05   8.869162e-40   0.000000e+00   0.000000e+00
     3360000   3.359999e-05   5.818880e+00   3.004438e+01   4.439297e+01   1.702045e+05   4.222199e+05   7.403101e+05  -3.167899e+01   1.277038e+01   1.524439e-21   8.690790e+05   2.122286e-39   0.000000e+00   0.000000e+00
     3368000   3.367999e-05   5.832496e+00   3.007815e+01   4.445219e+01   1.702045e+05   4.222199e+05   7.403101e+05  -2.026080e+01   8.167498e+00  -2.210922e-22   8.690790e+05   8.682752e-40   0.000000e+00   0.000000e+00
     3376000   3.375999e-05   5.846112e+00   3.011193e+01   4.451142e+01   1.702045e+05   4.222199e+05   7.403101e+05  -3.057154e+01   1.232395e+01  -6.389110e-21   8.690790e+05   1.976497e-39   0.000000e+00   0.000000e+00
     3384000   3.383999e-05   5.859729e+00   3.014571e+01   4.457064e+01   1.702045e+05   4.222199e+05   7.403101e+05  -4.136451e+01   1.667479e+01  -6.001717e-21   8.690790e+05   3.618488e-39   0.000000e+00   0.000000e+00
     3392000   3.391999e-05   5.873345e+00   3.017949e+01   4.462987e+01   1.702045e+05   4.222199e+05   7.403101e+05  -3.380289e+01   1.362656e+01   8.681374e-21   8.690790e+05   2.416630e-39   0.000000e+00   0.000000e+00
     3400000   3.399999e-05   5.886962e+00   3.021327e+01   4.468909e+01   1.702045e+05   4.222199e+05   7.403101e+05  -3.160051e+01   1.273874e+01  -5.052253e-21   8.690790e+05   2.111951e-39   0.000000e+00   0.000000e+00
     3408000   3.407999e-05   5.900578e+00   3.024704e+01   4.474831e+01   1.702045e+05   4.222199e+05   7.403101e+05  -2.923690e+01   1.178593e+01   7.674364e-21   8.690790e+05   1.807596e-39   0.000000e+00   0.000000e+00
     3416000   3.415999e-05   5.914194e+00   3.028082e+01   4.480754e+01   1.702045e+05   4.222199e+05   7.403101e+05  -3.079837e+01   1.241538e+01  -8.821452e-21   8.690790e+05   2.006173e-39   0.000000e+00   0.000000e+00
     3424000   3.423999e-05   5.927811e+00   3.031460e+01   4.486676e+01   1.702045e+05   4.222199e+05   7.403101e+05  -3.219399e+01   1.297799e+01  -9.512856e-23   8.690790e+05   2.192066e-39   0.000000e+00   0.000000e+00
     3432000   3.431999e-05   5.941427e+00   3.034838e+01   4.492599e+01   1.702045e+05   4.222199e+05   7.403101e+05  -1.811183e+01   7.301210e+00  -9.362039e-21   8.690790e+05   6.938901e-40   0.000000e+00   0.000000e+00
     3440000   3.439999e-05   5.955043e+00   3.038215e+01   4.498521e+01   1.702045e+05   4.222199e+05   7.403101e+05  -7.059813e+00   2.845940e+00  -1.063664e-21   8.690790e+05   1.054523e-40   0.000000e+00   0.000000e+00
     3448000   3.447999e-05   5.968660e+00   3.041593e+01   4.504444e+01   1.702045e+05   4.222199e+05   7.403101e+05  -2.518989e+01   1.015451e+01   6.890229e-21   8.690790e+05   1.342058e-39   0.000000e+00   0.000000e+00
     3456000   3.455999e-05   5.982276e+00   3.044971e+01   4.510366e+01   1.702045e+05   4.222199e+05   7.403101e+05  -3.698022e+01   1.490740e+01  -7.552795e-21   8.690790e+05   2.892025e-39   0.000000e+00   0.000000e+00
     3464000   3.463999e-05   5.995893e+00   3.048349e+01   4.516289e+01   1.702045e+05   4.222199e+05   7.403101e+05  -4.945661e+01   1.993686e+01   1.097690e-20   8.690790e+05   5.172743e-39   0.000000e+00   0.000000e+00
     3472000   3.471999e-05   6.009509e+00   3.051726e+01   4.522211e+01   1.702045e+05   4.222199e+05   7.403101e+05  -2.152843e+01   8.678502e+00   7.875410e-21   8.690790e+05   9.801855e-40   0.000000e+00   0.000000e+00
     3480000   3.479999e-05   6.023125e+00   3.055104e+01   4.528134e+01   1.702045e+05   4.222199e+05   7.403101e+05  -2.469232e+01   9.953927e+00   3.425603e-22   8.690790e+05   1.289465e-39   0.000000e+00   0.000000e+00
     3488000   3.487999e-05   6.036742e+00   3.058482e+01   4.534056e+01   1.702045e+05   4.222199e+05   7.403101e+05  -2.546355e+01   1.026482e+01   4.679221e-21   8.690790e+05   1.371289e-39   0.000000e+00   0.000000e+00
     3496000   3.495999e-05   6.050358e+00   3.061860e+01   4.539979e+01   1.702045e+05   4.222199e+05   7.403101e+05  -2.518655e+01   1.015316e+01  -7.222027e-21   8.690790e+05   1.341753e-39   0.000000e+00   0.000000e+00
     3504000   3.503999e-05   6.063974e+00   3.065237e+01   4.545901e+01   1.702045e+05   4.222199e+05   7.403101e+05  -2.071713e+01   8.351455e+00  -3.602510e-21   8.690790e+05   9.077788e-40   0.000000e+00   0.000000e+00
     3512000   3.511999e-05   6.077591e+00   3.068615e+01   4.551824e+01   1.702045e+05   4.222199e+05   7.403101e+05  -1.477936e+01   5.957830e+00   7.417688e-21   8.690790e+05   4.620313e-40   0.000000e+00   0.000000e+00
     3520000   3.519999e-05   6.091207e+00   3.071993e+01   4.557746e+01   1.702045e+05   4.222199e+05   7.403101e+05  -2.195704e+01   8.851285e+00  -3.733245e-21   8.690790e+05   1.019575e-39   0.000000e+00   0.000000e+00
     3528000   3.527999e-05   6.104823e+00   3.075371e+01   4.563669e+01   1.702045e+05   4.222199e+05   7.403101e+05  -1.640684e+01   6.613896e+00   3.217229e-21   8.690790e+05   5.693699e-40   0.000000e+00   0.000000e+00
     3536000   3.535999e-05   6.118440e+00   3.078748e+01   4.569591e+01   1.702045e+05   4.222199e+05   7.403101e+05  -9.606775e+00   3.872667e+00  -1.619565e-21   8.690790e+05   1.952234e-40   0.000000e+00   0.000000e+00
     3544000   3.543999e-05   6.132056e+00   3.082126e+01   4.575514e+01   1.702045e+05   4.222199e+05   7.403101e+05  -1.549194e+01   6.245085e+00  -3.465141e-21   8.690790e+05   5.076000e-40   0.000000e+00   0.000000e+00
     3552000   3.551999e-05   6.145673e+00   3.085504e+01   4.581436e+01   1.702045e+05   4.222199e+05   7.403101e+05  -2.353813e+01   9.488650e+00   7.354934e-21   8.690790e+05   1.171656e-39   0.000000e+00   0.000000e+00
     3560000   3.559999e-05   6.159289e+00   3.088882e+01   4.587359e+01   1.702045e+05   4.222199e+05   7.403101e+05  -3.298910e+01   1.329851e+01   3.165565e-21   8.690790e+05   2.301492e-39   0.000000e+00   0.000000e+00
     3568000   3.567999e-05   6.172905e+00   3.092259e+01   4.593281e+01   1.702045e+05   4.222199e+05   7.403101e+05  -2.450900e+01   9.880024e+00   2.093685e-21   8.690790e+05   1.270517e-39   0.000000e+00   0.000000e+00
     3576000   3.575999e-05   6.186522e+00   3.095637e+01   4.599204e+01   1.702045e+05   4.222199e+05   7.403101e+05  -1.776474e+01   7.161293e+00   1.927262e-21   8.690790e+05   6.675115e-40   0.000000e+00   0.000000e+00
     3584000   3.583999e-05   6.200138e+00   3.099015e+01   4.605126e+01   1.702045e+05   4.222199e+05   7.403101e+05  -2.418334e+01   9.748748e+00   1.526676e-22   8.690790e+05   1.236793e-39   0.000000e+00   0.000000e+00
     3592000   3.591999e-05   6.213754e+00   3.102393e+01   4.611049e+01   1.702045e+05   4.222199e+05   7.403101e+05  -1.597282e+01   6.438935e+00  -2.585041e-21   8.690790e+05   5.395312e-40   0.000000e+00   0.000000e+00
     3600000   3.599999e-05   6.227371e+00   3.105770e+01   4.616971e+01   1.702045e+05   4.222199e+05   7.403101e+05  -2.278489e+01   9.185005e+00  -2.280883e-22   8.690790e+05   1.097896e-39   0.000000e+00   0.000000e+00
     3608000   3.607999e-05   6.240987e+00   3.109148e+01   4.622894e+01   1.702045e+05   4.222199e+05   7.403101e+05  -2.094597e+01   8.443703e+00  -4.524348e-21   8.690790e+05   9.279224e-40   0.000000e+00   0.000000e+00
     3616000   3.615999e-05   6.254603e+00   3.112526e+01   4.628816e+01   1.702045e+05   4.222199e+05   7.403101e+05  -2.066252e+01   8.329440e+00   2.462306e-21   8.690790e+05   9.029548e-40   0.000000e+00   0.000000e+00
     3624000   3.623999e-05   6.268220e+00   3.115904e+01   4.634738e+01   1.702045e+05   4.222199e+05   7.403101e+05  -2.645647e+01   1.066509e+01   1.185673e-20   8.690790e+05   1.480342e-39   0.000000e+00   0.000000e+00
     3632000   3.631999e-05   6.281836e+00   3.119282e+01   4.640661e+01   1.702045e+05   4.222199e+05   7.403101e+05  -2.105642e+01   8.488226e+00  -1.255576e-22   8.690790e+05   9.377094e-40   0.000000e+00   0.000000e+00
     3640000   3.639999e-05   6.295453e+00   3.122659e+01   4.646583e+01   1.702045e+05   4.222199e+05   7.403101e+05  -1.724046e+01   6.949944e+00   8.493688e-21   8.690790e+05   6.286774e-40   0.000000e+00   0.000000e+00
     3648000   3.647999e-05   6.309069e+00   3.126037e+01   4.652506e+01   1.702045e+05   4.222199e+05   7.403101e+05  -1.624186e+01   6.547389e+00   2.821412e-21   8.690790e+05   5.578716e-40   0.000000e+00   0.000000e+00
     3656000   3.655999e-05   6.322685e+00   3.129415e+01   4.658428e+01   1.702045e+05   4.222199e+05   7.403101e+05  -2.173838e+01   8.763139e+00  -4.156684e-21   8.690790e+05   9.993709e-40   0.000000e+00   0.000000e+00
     3664000   3.663999e-05   6.336302e+00   3.132793e+01   4.664351e+01   1.702045e+05   4.222199e+05   7.403101e+05  -1.358834e+01   5.477708e+00   3.875351e-22   8.690790e+05   3.905166e-40   0.000000e+00   0.000000e+00
     3672000   3.671999e-05   6.349918e+00   3.136170e+01   4.670273e+01   1.702045e+05   4.222199e+05   7.403101e+05  -1.032158e+01   4.160817e+00  -3.715144e-22   8.690790e+05   2.253280e-40   0.000000e+00   0.000000e+00
     3680000   3.679999e-05   6.363534e+00   3.139548e+01   4.676196e+01   1.702045e+05   4.222199e+05   7.403101e+05  -8.109633e+00   3.269141e+00   2.154854e-21   8.690790e+05   1.391015e-40   0.000000e+00   0.000000e+00
     3688000   3.687999e-05   6.377151e+00   3.142926e+01   4.682118e+01   1.702045e+05   4.222199e+05   7.403101e+05  -1.169163e+01   4.713110e+00  -2.407485e-21   8.690790e+05   2.891215e-40   0.000000e+00   0.000000e+00
     3696000   3.695999e-05   6.390767e+00   3.146304e+01   4.688041e+01   1.702045e+05   4.222199e+05   7.403101e+05  -8.396102e+00   3.384622e+00   8.055264e-22   8.690790e+05   1.491069e-40   0.000000e+00   0.000000e+00
     3704000   3.703999e-05   6.404383e+00   3.149681e+01   4.693963e+01   1.702045e+05   4.222199e+05   7.403101e+05  -4.581784e+00   1.847001e+00   2.021101e-22   8.690790e+05   4.440397e-41   0.000000e+00   0.000000e+00
     3712000   3.711999e-05   6.418000e+00   3.153059e+01   4.699886e+01   1.702045e+05   4.222199e+05   7.403101e+05  -1.141777e+01   4.602712e+00  -5.747958e-21   8.690790e+05   2.756910e-40   0.000000e+00   0.000000e+00
     3720000   3.719999e-05   6.431616e+00   3.156437e+01   4.705808e+01   1.702045e+05   4.222199e+05   7.403101e+05  -4.275752e+00   1.723634e+00  -8.831512e-22   8.690790e+05   3.867647e-41   0.000000e+00   0.000000e+00
     3728000   3.727999e-05   6.445233e+00   3.159815e+01   4.711731e+01   1.702045e+05   4.222199e+05   7.403101e+05  -7.898396e+00   3.183988e+00   2.467524e-21   8.690790e+05   1.319228e-40   0.000000e+00   0.000000e+00
     3736000   3.735999e-05   6.458849e+00   3.163192e+01   4.717653e+01   1.702045e+05   4.222199e+05   7.403101e+05  -1.265053e+01   5.099660e+00  -5.436008e-22   8.690790e+05   3.384349e-40   0.000000e+00   0.000000e+00
     3744000   3.743999e-05   6.472465e+00   3.166570e+01   4.723576e+01   1.702045e+05   4.222199e+05   7.403101e+05  -1.322170e+01   5.329911e+00  -1.632923e-21   8.690790e+05   3.697515e-40   0.000000e+00   0.000000e+00
     3752000   3.751999e-05   6.486082e+00   3.169948e+01   4.729498e+01   1.702045e+05   4.222199e+05   7.403101e+05  -8.910085e+00   3.591818e+00  -4.598387e-22   8.690790e+05   1.679252e-40   0.000000e+00   0.000000e+00
     3760000   3.759999e-05   6.499698e+00   3.173326e+01   4.735421e+01   1.702045e+05   4.222199e+05   7.403101e+05   9.994668e-01  -4.029033e-01   1.555009e-22   8.690790e+05   2.111702e-42   0.000000e+00   0.000000e+00
     3768000   3.767999e-05   6.513314e+00   3.176703e+01   4.741343e+01   1.702045e+05   4.222199e+05   7.403101e+05  -1.691575e+00   6.819047e-01   2.468764e-22   8.690790e+05   6.052502e-42   0.000000e+00   0.000000e+00
     3776000   3.775999e-05   6.526931e+00   3.180081e+01   4.747266e+01   1.702045e+05   4.222199e+05   7.403101e+05  -3.838434e+00   1.547343e+00   6.886560e-22   8.690790e+05   3.114139e-41   0.000000e+00   0.000000e+00
     3784000   3.783999e-05   6.540547e+00   3.183459e+01   4.753188e+01   1.702045e+05   4.222199e+05   7.403101e+05  -8.876761e+00   3.578385e+00   2.364515e-21   8.690790e+05   1.666364e-40   0.000000e+00   0.000000e+00
     3792000   3.791999e-05   6.554163e+00   3.186837e+01   4.759111e+01   1.702045e+05   4.222199e+05   7.403101e+05  -1.206430e+01   4.863341e+00  -4.476709e-21   8.690790e+05   3.078048e-40   0.000000e+00   0.000000e+00
     3800000   3.799999e-05   6.567780e+00   3.190214e+01   4.765033e+01   1.702045e+05   4.222199e+05   7.403101e+05  -5.893918e+00   2.375946e+00   6.776719e-22   8.690790e+05   7.347957e-41   0.000000e+00   0.000000e+00
     3808000   3.807999e-05   6.581396e+00   3.193592e+01   4.770956e+01   1.702045e+05   4.222199e+05   7.403101e+05  -4.404163e+00   1.775399e+00  -1.490553e-21   8.690790e+05   4.103038e-41   0.000000e+00   0.000000e+00
     3816000   3.815999e-05   6.595013e+00   3.196970e+01   4.776878e+01   1.702045e+05   4.222199e+05   7.403101e+05  -1.198510e+00   4.831412e-01  -1.148484e-22   8.690790e+05   3.039998e-42   0.000000e+00   0.000000e+00
     3824000   3.823999e-05   6.608629e+00   3.200348e+01   4.782801e+01   1.702045e+05   4.222199e+05   7.403101e+05  -3.634739e+00   1.465230e+00  -6.615175e-22   8.690790e+05   2.795708e-41   0.000000e+00   0.000000e+00
     3832000   3.831999e-05   6.622245e+00   3.203725e+01   4.788723e+01   1.702045e+05   4.222199e+05   7.403101e+05   4.593434e+00  -1.851697e+00   2.702028e-21   8.690790e+05   4.460466e-41   0.000000e+00   0.000000e+00
     3840000   3.839999e-05   6.635862e+00   3.207103e+01   4.794645e+01   1.702045e+05   4.222199e+05   7.403101e+05  -1.138466e+01   4.589364e+00  -5.912706e-21   8.690790e+05   2.740524e-40   0.000000e+00   0.000000e+00
     3848000   3.847999e-05   6.649478e+00   3.210481e+01   4.800568e+01   1.702045e+05   4.222199e+05   7.403101e+05  -3.207122e+00   1.292849e+00  -2.363111e-22   8.690790e+05   2.175055e-41   0.000000e+00   0.000000e+00
     3856000   3.855999e-05   6.663094e+00   3.213859e+01   4.806490e+01   1.702045e+05   4.222199e+05   7.403101e+05  -4.991740e+00   2.012262e+00  -3.532948e-22   8.690790e+05   5.269444e-41   0.000000e+00   0.000000e+00
     3864000   3.863999e-05   6.676711e+00   3.217237e+01   4.812413e+01   1.702045e+05   4.222199e+05   7.403101e+05   1.478669e+00  -5.960785e-01  -6.094616e-22   8.690790e+05   4.623789e-42   0.000000e+00   0.000000e+00
     3872000   3.871999e-05   6.690327e+00   3.220614e+01   4.818335e+01   1.702045e+05   4.222199e+05   7.403101e+05  -5.999661e+00   2.418573e+00  -8.286174e-23   8.690790e+05   7.611272e-41   0.000000e+00   0.000000e+00
     3880000   3.879999e-05   6.703943e+00   3.223992e+01   4.824258e+01   1.702045e+05   4.222199e+05   7.403101e+05  -1.615351e+00   6.511776e-01  -2.259292e-22   8.690790e+05   5.512289e-42   0.000000e+00   0.000000e+00
     3888000   3.887999e-05   6.717560e+00   3.227370e+01   4.830180e+01   1.702045e+05   4.222199e+05   7.403101e+05   2.158893e+00  -8.702892e-01   8.170543e-23   8.690790e+05   9.856114e-42   0.000000e+00   0.000000e+00
     3896000   3.895999e-05   6.731176e+00   3.230748e+01   4.836103e+01   1.702045e+05   4.222199e+05   7.403101e+05  -2.122661e+00   8.556834e-01  -8.305573e-22   8.690790e+05   9.516518e-42   0.000000e+00   0.000000e+00
     3904000   3.903999e-05   6.744793e+00   3.234125e+01   4.842025e+01   1.702045e+05   4.222199e+05   7.403101e+05   7.588345e-01  -3.059001e-01   1.594683e-22   8.690790e+05   1.213850e-42   0.000000e+00   0.000000e+00
     3912000   3.911999e-05   6.758409e+00   3.237503e+01   4.847948e+01   1.702045e+05   4.222199e+05   7.403101e+05   1.073734e+01  -4.328419e+00   5.720917e-21   8.690790e+05   2.437768e-40   0.000000e+00   0.000000e+00
     3920000   3.919999e-05   6.772025e+00   3.240881e+01   4.853870e+01   1.702045e+05   4.222199e+05   7.403101e+05  -2.836347e+00   1.143383e+00   2.554460e-22   8.690790e+05   1.701577e-41   0.000000e+00   0.000000e+00
     3928000   3.927999e-05   6.785642e+00   3.244259e+01   4.859793e+01   1.702045e+05   4.222199e+05   7.403101e+05  -1.968640e+00   7.935946e-01  -6.107160e-22   8.690790e+05   8.197472e-42   0.000000e+00   0.000000e+00
     3936000   3.935999e-05   6.799258e+00   3.247636e+01   4.865715e+01   1.702045e+05   4.222199e+05   7.403101e+05  -4.524701e+00   1.823990e+00  -7.442190e-22   8.690790e+05   4.330508e-41   0.000000e+00   0.000000e+00
     3944000   3.943999e-05   6.812874e+00   3.251014e+01   4.871638e+01   1.702045e+05   4.222199e+05   7.403101e+05   3.654607e+00  -1.473239e+00  -2.709895e-22   8.690790e+05   2.827032e-41   0.000000e+00   0.000000e+00
     3952000   3.951999e-05   6.826491e+00   3.254392e+01   4.877560e+01   1.702045e+05   4.222199e+05   7.403101e+05  -8.116817e+00   3.272037e+00  -5.126452e-21   8.690790e+05   1.392880e-40   0.000000e+00   0.000000e+00
     3960000   3.959999e-05   6.840107e+00   3.257770e+01   4.883483e+01   1.702045e+05   4.222199e+05   7.403101e+05  -1.224711e+00   4.937032e-01   1.134049e-22   8.690790e+05   3.175758e-42   0.000000e+00   0.000000e+00
     3968000   3.967999e-05   6.853723e+00   3.261147e+01   4.889405e+01   1.702045e+05   4.222199e+05   7.403101e+05   3.155027e+00  -1.271849e+00   2.164167e-24   8.690790e+05   2.104455e-41   0.000000e+00   0.000000e+00
     3976000   3.975999e-05   6.867340e+00   3.264525e+01   4.895328e+01   1.702045e+05   4.222199e+05   7.403101e+05   1.466095e+01  -5.910095e+00   4.626698e-21   8.690790e+05   4.545518e-40   0.000000e+00   0.000000e+00
     3984000   3.983999e-05   6.880956e+00   3.267903e+01   4.901250e+01   1.702045e+05   4.222199e+05   7.403101e+05   1.070779e+01  -4.316507e+00   4.618468e-21   8.690790e+05   2.424658e-40   0.000000e+00   0.000000e+00
     3992000   3.991999e-05   6.894573e+00   3.271281e+01   4.907173e+01   1.702045e+05   4.222199e+05   7.403101e+05   5.348831e+00  -2.156212e+00  -1.244777e-22   8.690790e+05   6.050908e-41   0.000000e+00   0.000000e+00
     4000000   3.999999e-05   6.908189e+00   3.274658e+01   4.913095e+01   1.702045e+05   4.222199e+05   7.403101e+05   1.004267e+01  -4.048385e+00   2.077587e-21   8.690790e+05   2.133228e-40   0.000000e+00   0.000000e+00
     4008000   4.007999e-05   6.921805e+00   3.278036e+01   4.919018e+01   1.702045e+05   4.222199e+05   7.403101e+05   6.444766e+00  -2.598003e+00   1.156106e-21   8.690790e+05   8.785666e-41   0.000000e+00   0.000000e+00
     4016000   4.015999e-05   6.935422e+00   3.281414e+01   4.924940e+01   1.702045e+05   4.222199e+05   7.403101e+05   8.174246e+00  -3.295188e+00   8.840910e-22   8.690790e+05   1.413123e-40   0.000000e+00   0.000000e+00
     4024000   4.023999e-05   6.949038e+00   3.284792e+01   4.930863e+01   1.702045e+05   4.222199e+05   7.403101e+05   7.705584e+00  -3.106262e+00   1.187122e-21   8.690790e+05   1.255882e-40   0.000000e+00   0.000000e+00
     4032000   4.031999e-05   6.962654e+00   3.288169e+01   4.936785e+01   1.702045e+05   4.222199e+05   7.403101e+05   5.012562e+00  -2.020655e+00  -1.317836e-23   8.690790e+05   5.314686e-41   0.000000e+00   0.000000e+00
     4040000   4.039999e-05   6.976271e+00   3.291547e+01   4.942707e+01   1.702045e+05   4.222199e+05   7.403101e+05  -8.543077e-01   3.443870e-01  -5.236803e-23   8.690790e+05   1.543481e-42   0.000000e+00   0.000000e+00
     4048000   4.047999e-05   6.989887e+00   3.294925e+01   4.948630e+01   1.702045e+05   4.222199e+05   7.403101e+05  -1.067046e+00   4.301459e-01   3.275056e-22   8.690790e+05   2.407935e-42   0.000000e+00   0.000000e+00
     4056000   4.055999e-05   7.003503e+00   3.298303e+01   4.954552e+01   1.702045e+05   4.222197e+05   7.403102e+05  -4.288715e+06  -9.595977e+06   6.458872e+06   8.690790e+05   2.767950e-28   0.000000e+00   0.000000e+00
     4064000   4.063999e-05   7.017120e+00   3.301681e+01   4.960475e+01   1.702042e+05   4.222191e+05   7.403106e+05  -6.412447e+06  -1.410710e+07   9.519941e+06   8.690790e+05   6.007154e-28   0.000000e+00   0.000000e+00
     4072000   4.071999e-05   7.030736e+00   3.305058e+01   4.966397e+01   1.702019e+05   4.222141e+05   7.403140e+05  -5.044549e+07  -1.113114e+08   7.508052e+07   8.690790e+05   3.741864e-26   0.000000e+00   0.000000e+00
     4080000   4.079999e-05   7.044352e+00   3.308436e+01   4.972320e+01   1.701981e+05   4.222056e+05   7.403197e+05  -2.270442e+07  -4.935821e+07   3.336878e+07   8.690790e+05   7.396344e-27   0.000000e+00   0.000000e+00
     4088000   4.087999e-05   7.057968e+00   3.311814e+01   4.978243e+01   1.701936e+05   4.221959e+05   7.403263e+05  -9.874411e+07  -2.147484e+08   1.451678e+08   8.690790e+05   1.399622e-25   0.000000e+00   0.000000e+00
     4096000   4.095999e-05   7.071583e+00   3.315191e+01   4.984165e+01   1.701870e+05   4.221816e+05   7.403360e+05  -5.811647e+07  -1.248938e+08   8.458124e+07   8.690790e+05   4.754694e-26   0.000000e+00   0.000000e+00
     4104000   4.103999e-05   7.085198e+00   3.318568e+01   4.990088e+01   1.701840e+05   4.221753e+05   7.403403e+05   0.000000e+00   0.000000e+00   0.000000e+00   8.690790e+05   0.000000e+00   0.000000e+00   0.000000e+00
     4112000   4.111999e-05   7.098812e+00   3.321946e+01   4.996011e+01   1.701840e+05   4.221753e+05   7.403403e+05   0.000000e+00   0.000000e+00   0.000000e+00   8.690790e+05   0.000000e+00   0.000000e+00   0.000000e+00
