     timestep     time              x             y              z              vx             vy             vz             ax             ay             az         v_magnitude      ELoss        Electronic      Nuclear
           0   0.000000e+00   1.000000e-01   1.523978e+01   2.005650e+01   1.161830e+04   7.772075e+05   1.660177e+06   0.000000e+00   0.000000e+00   0.000000e+00   1.833133e+06   0.000000e+00   0.000000e+00   0.000000e+00
        8000   7.999000e-08   1.009292e-01   1.530195e+01   2.018932e+01   1.161039e+04   7.772078e+05   1.660177e+06  -5.475206e+07   8.179180e+05   4.280747e-01   1.833133e+06   2.428600e-26   0.000000e+00   0.000000e+00
       16000   1.599900e-07   1.018578e-01   1.536413e+01   2.032213e+01   1.160297e+04   7.772079e+05   1.660177e+06  -5.707913e+07   8.521366e+05  -2.913126e-15   1.833133e+06   2.639363e-26   0.000000e+00   0.000000e+00
       24000   2.399900e-07   1.027859e-01   1.542631e+01   2.045495e+01   1.159912e+04   7.772080e+05   1.660177e+06  -5.943124e+07   8.869571e+05  -2.369063e-15   1.833133e+06   2.861309e-26   0.000000e+00   0.000000e+00
       32000   3.199900e-07   1.037136e-01   1.548848e+01   2.058776e+01   1.159157e+04   7.772081e+05   1.660177e+06  -1.664633e+08   2.482697e+06  -1.672465e-14   1.833133e+06   2.243100e-25   0.000000e+00   0.000000e+00
       40000   3.999900e-07   1.046406e-01   1.555066e+01   2.072057e+01   1.158377e+04   7.772082e+05   1.660177e+06  -6.413553e+07   9.558976e+05  -1.984155e-15   1.833133e+06   3.332080e-26   0.000000e+00   0.000000e+00
       48000   4.799900e-07   1.055672e-01   1.561284e+01   2.085339e+01   1.157938e+04   7.772083e+05   1.660177e+06  -6.651828e+07   9.910347e+05  -3.519866e-15   1.833133e+06   3.584202e-26   0.000000e+00   0.000000e+00
       56000   5.599900e-07   1.064933e-01   1.567501e+01   2.098620e+01   1.157224e+04   7.772084e+05   1.660177e+06  -1.563080e+08   2.327348e+06  -8.463780e-15   1.833133e+06   1.977734e-25   0.000000e+00   0.000000e+00
       64000   6.399900e-07   1.074188e-01   1.573719e+01   2.111902e+01   1.156531e+04   7.772085e+05   1.660177e+06  -7.126576e+07   1.060475e+06  -1.581190e-15   1.833133e+06   4.113943e-26   0.000000e+00   0.000000e+00
       72000   7.199900e-07   1.083439e-01   1.579937e+01   2.125183e+01   1.155992e+04   7.772086e+05   1.660177e+06  -1.494430e+08   2.222762e+06  -1.062157e-14   1.833133e+06   1.807806e-25   0.000000e+00   0.000000e+00
       80000   7.999900e-07   1.092685e-01   1.586154e+01   2.138465e+01   1.155310e+04   7.772087e+05   1.660177e+06  -1.460309e+08   2.170729e+06  -8.309647e-15   1.833133e+06   1.726186e-25   0.000000e+00   0.000000e+00
       88000   8.799900e-07   1.101925e-01   1.592372e+01   2.151746e+01   1.154747e+04   7.772088e+05   1.660177e+06  -7.846841e+07   1.165854e+06  -3.923642e-15   1.833133e+06   4.987333e-26   0.000000e+00   0.000000e+00
       96000   9.599900e-07   1.111161e-01   1.598590e+01   2.165027e+01   1.154216e+04   7.772088e+05   1.660177e+06  -1.390950e+08   2.065670e+06  -1.217525e-14   1.833133e+06   1.566087e-25   0.000000e+00   0.000000e+00
      104000   1.039990e-06   1.120392e-01   1.604807e+01   2.178309e+01   1.153416e+04   7.772090e+05   1.660177e+06  -1.356334e+08   2.012865e+06  -1.310099e-14   1.833133e+06   1.489097e-25   0.000000e+00   0.000000e+00
      112000   1.119990e-06   1.129617e-01   1.611025e+01   2.191590e+01   1.153028e+04   7.772090e+05   1.660177e+06  -8.574212e+07   1.272027e+06  -7.101367e-15   1.833133e+06   5.954595e-26   0.000000e+00   0.000000e+00
      120000   1.199990e-06   1.138840e-01   1.617243e+01   2.204872e+01   1.152501e+04   7.772091e+05   1.660177e+06  -1.286277e+08   1.907384e+06  -1.290957e-14   1.833133e+06   1.339222e-25   0.000000e+00   0.000000e+00
      128000   1.279990e-06   1.148056e-01   1.623460e+01   2.218153e+01   1.151617e+04   7.772092e+05   1.660177e+06  -1.251172e+08   1.853904e+06  -3.358602e-15   1.833133e+06   1.267110e-25   0.000000e+00   0.000000e+00
      136000   1.359990e-06   1.157267e-01   1.629678e+01   2.231435e+01   1.151237e+04   7.772093e+05   1.660177e+06  -1.215824e+08   1.800933e+06  -1.259507e-14   1.833133e+06   1.196514e-25   0.000000e+00   0.000000e+00
      144000   1.439990e-06   1.166475e-01   1.635896e+01   2.244716e+01   1.150697e+04   7.772094e+05   1.660177e+06  -1.180427e+08   1.747680e+06  -1.005279e-14   1.833133e+06   1.127849e-25   0.000000e+00   0.000000e+00
      152000   1.519990e-06   1.175677e-01   1.642114e+01   2.257997e+01   1.149935e+04   7.772095e+05   1.660177e+06  -1.144843e+08   1.693875e+06  -9.540005e-15   1.833133e+06   1.060866e-25   0.000000e+00   0.000000e+00
      160000   1.599990e-06   1.184874e-01   1.648331e+01   2.271279e+01   1.149541e+04   7.772095e+05   1.660177e+06  -1.109291e+08   1.640709e+06  -1.773530e-14   1.833133e+06   9.959905e-26   0.000000e+00   0.000000e+00
      168000   1.679990e-06   1.194068e-01   1.654549e+01   2.284560e+01   1.148913e+04   7.772096e+05   1.660177e+06  -1.073419e+08   1.586786e+06  -1.811755e-14   1.833133e+06   9.326064e-26   0.000000e+00   0.000000e+00
      176000   1.759990e-06   1.203256e-01   1.660767e+01   2.297842e+01   1.148316e+04   7.772097e+05   1.660177e+06  -1.037366e+08   1.532693e+06  -7.838974e-15   1.833133e+06   8.709999e-26   0.000000e+00   0.000000e+00
      184000   1.839990e-06   1.212440e-01   1.666984e+01   2.311123e+01   1.147906e+04   7.772098e+05   1.660177e+06  -1.001611e+08   1.479337e+06  -1.889554e-14   1.833133e+06   8.119835e-26   0.000000e+00   0.000000e+00
      192000   1.919990e-06   1.221620e-01   1.673202e+01   2.324404e+01   1.147150e+04   7.772099e+05   1.660177e+06  -9.652745e+07   1.424731e+06  -3.881130e-15   1.833133e+06   7.541281e-26   0.000000e+00   0.000000e+00
      200000   1.999990e-06   1.230795e-01   1.679420e+01   2.337686e+01   1.146663e+04   7.772100e+05   1.660177e+06   2.474354e+07  -3.650559e+05  -4.307762e-17   1.833133e+06   4.950220e-27   0.000000e+00   0.000000e+00
      208000   2.079990e-06   1.239966e-01   1.685637e+01   2.350967e+01   1.146335e+04   7.772100e+05   1.660177e+06  -8.928044e+07   1.316829e+06  -4.850975e-15   1.833133e+06   6.451243e-26   0.000000e+00   0.000000e+00
      216000   2.159990e-06   1.249133e-01   1.691855e+01   2.364249e+01   1.145440e+04   7.772101e+05   1.660177e+06  -8.560135e+07   1.261580e+06  -5.246056e-15   1.833133e+06   5.930405e-26   0.000000e+00   0.000000e+00
      224000   2.239990e-06   1.258294e-01   1.698073e+01   2.377530e+01   1.144949e+04   7.772102e+05   1.660177e+06   1.782820e+07  -2.626366e+05   2.595298e-16   1.833133e+06   2.568513e-27   0.000000e+00   0.000000e+00
      232000   2.319990e-06   1.267452e-01   1.704290e+01   2.390812e+01   1.144665e+04   7.772103e+05   1.660177e+06  -7.828941e+07   1.153036e+06  -1.476247e-15   1.833133e+06   4.960354e-26   0.000000e+00   0.000000e+00
      240000   2.399990e-06   1.276606e-01   1.710508e+01   2.404093e+01   1.143904e+04   7.772104e+05   1.660177e+06  -7.456588e+07   1.097466e+06  -4.080616e-15   1.833133e+06   4.499632e-26   0.000000e+00   0.000000e+00
      248000   2.479990e-06   1.285755e-01   1.716726e+01   2.417374e+01   1.143412e+04   7.772104e+05   1.660177e+06   1.084069e+07  -1.594854e+05   1.395629e-16   1.833133e+06   9.485069e-28   0.000000e+00   0.000000e+00
      256000   2.559990e-06   1.294901e-01   1.722943e+01   2.430656e+01   1.143017e+04   7.772105e+05   1.660177e+06  -6.719027e+07   9.881447e+05  -1.769713e-15   1.833133e+06   3.653316e-26   0.000000e+00   0.000000e+00
      264000   2.639990e-06   1.304042e-01   1.729161e+01   2.443937e+01   1.142337e+04   7.772106e+05   1.660177e+06   6.098868e+06  -8.964060e+04  -8.475629e-17   1.833133e+06   2.994709e-28   0.000000e+00   0.000000e+00
      272000   2.719990e-06   1.313179e-01   1.735379e+01   2.457219e+01   1.141942e+04   7.772107e+05   1.660177e+06   3.782535e+06  -5.557612e+04   8.681788e-18   1.833133e+06   1.147936e-28   0.000000e+00   0.000000e+00
      280000   2.799990e-06   1.322312e-01   1.741596e+01   2.470500e+01   1.141392e+04   7.772107e+05   1.660177e+06  -5.598542e+07   8.221876e+05   9.277685e-16   1.833133e+06   2.536175e-26   0.000000e+00   0.000000e+00
      288000   2.879990e-06   1.331440e-01   1.747814e+01   2.483781e+01   1.140746e+04   7.772108e+05   1.660177e+06  -9.994150e+05   1.466885e+04  -8.166637e-18   1.833133e+06   8.367122e-30   0.000000e+00   0.000000e+00
      296000   2.959990e-06   1.340566e-01   1.754032e+01   2.497063e+01   1.140540e+04   7.772109e+05   1.660177e+06  -3.344604e+06   4.908135e+04  -1.838068e-16   1.833133e+06   9.150370e-29   0.000000e+00   0.000000e+00
      304000   3.039990e-06   1.349688e-01   1.760249e+01   2.510344e+01   1.139788e+04   7.772110e+05   1.660177e+06  -4.467745e+07   6.551997e+05  -1.513097e-15   1.833133e+06   1.614870e-26   0.000000e+00   0.000000e+00
      312000   3.119990e-06   1.358804e-01   1.766467e+01   2.523626e+01   1.139180e+04   7.772111e+05   1.660177e+06  -8.165701e+06   1.196870e+05  -2.570491e-16   1.833133e+06   5.421403e-28   0.000000e+00   0.000000e+00
      320000   3.199990e-06   1.367917e-01   1.772685e+01   2.536907e+01   1.139057e+04   7.772111e+05   1.660177e+06  -1.053903e+07   1.544569e+05   4.995696e-16   1.833133e+06   9.022294e-28   0.000000e+00   0.000000e+00
      328000   3.279990e-06   1.377028e-01   1.778903e+01   2.550189e+01   1.138339e+04   7.772112e+05   1.660177e+06  -1.300849e+07   1.905284e+05   2.801780e-16   1.833133e+06   1.373725e-27   0.000000e+00   0.000000e+00
      336000   3.359990e-06   1.386133e-01   1.785120e+01   2.563470e+01   1.137836e+04   7.772113e+05   1.660177e+06  -1.539818e+07   2.254291e+05   5.370051e-16   1.833133e+06   1.924011e-27   0.000000e+00   0.000000e+00
      344000   3.439990e-06   1.395235e-01   1.791338e+01   2.576751e+01   1.137578e+04   7.772113e+05   1.660177e+06  -1.779885e+07   2.605158e+05   3.819712e-16   1.833133e+06   2.569938e-27   0.000000e+00   0.000000e+00
      352000   3.519990e-06   1.404334e-01   1.797556e+01   2.590033e+01   1.136907e+04   7.772114e+05   1.660177e+06  -2.027854e+07   2.966350e+05   2.199330e-16   1.833133e+06   3.335099e-27   0.000000e+00   0.000000e+00
      360000   3.599990e-06   1.413428e-01   1.803773e+01   2.603314e+01   1.136561e+04   7.772114e+05   1.660177e+06  -2.269500e+07   3.318821e+05   1.581756e-16   1.833133e+06   4.176551e-27   0.000000e+00   0.000000e+00
      368000   3.679990e-06   1.422520e-01   1.809991e+01   2.616596e+01   1.136128e+04   7.772115e+05   1.660177e+06  -1.559131e+08   2.279138e+06  -2.055711e-14   1.833133e+06   1.967713e-25   0.000000e+00   0.000000e+00
      376000   3.759990e-06   1.431607e-01   1.816209e+01   2.629877e+01   1.135511e+04   7.772116e+05   1.660177e+06  -1.522563e+08   2.224474e+06  -5.862159e-15   1.833133e+06   1.876482e-25   0.000000e+00   0.000000e+00
      384000   3.839990e-06   1.440691e-01   1.822426e+01   2.643158e+01   1.135357e+04   7.772116e+05   1.660177e+06  -3.005423e+07   4.390348e+05   2.515877e-16   1.833133e+06   7.321632e-27   0.000000e+00   0.000000e+00
      392000   3.919990e-06   1.449773e-01   1.828644e+01   2.656440e+01   1.134950e+04   7.772117e+05   1.660177e+06  -1.448517e+08   2.115247e+06  -6.390840e-15   1.833133e+06   1.698384e-25   0.000000e+00   0.000000e+00
      400000   3.999990e-06   1.458849e-01   1.834862e+01   2.669721e+01   1.134142e+04   7.772118e+05   1.660177e+06  -1.411521e+08   2.059754e+06  -1.756102e-14   1.833133e+06   1.612723e-25   0.000000e+00   0.000000e+00
      408000   4.079990e-06   1.467923e-01   1.841079e+01   2.683003e+01   1.134127e+04   7.772118e+05   1.660177e+06  -3.747389e+07   5.468286e+05  -7.381770e-16   1.833133e+06   1.138035e-26   0.000000e+00   0.000000e+00
      416000   4.159990e-06   1.476995e-01   1.847297e+01   2.696284e+01   1.133744e+04   7.772119e+05   1.660177e+06  -1.336866e+08   1.950129e+06  -1.162687e-14   1.833133e+06   1.446621e-25   0.000000e+00   0.000000e+00
      424000   4.239990e-06   1.486062e-01   1.853515e+01   2.709566e+01   1.133004e+04   7.772120e+05   1.660177e+06  -1.299452e+08   1.894315e+06  -9.039998e-15   1.833133e+06   1.366772e-25   0.000000e+00   0.000000e+00
      432000   4.319990e-06   1.495125e-01   1.859733e+01   2.722847e+01   1.132869e+04   7.772120e+05   1.660177e+06  -1.261868e+08   1.839306e+06  -8.573568e-15   1.833133e+06   1.288842e-25   0.000000e+00   0.000000e+00
      440000   4.399990e-06   1.504187e-01   1.865950e+01   2.736128e+01   1.132475e+04   7.772120e+05   1.660177e+06  -1.224204e+08   1.783788e+06  -1.712035e-14   1.833133e+06   1.213042e-25   0.000000e+00   0.000000e+00
      448000   4.479990e-06   1.513245e-01   1.872168e+01   2.749410e+01   1.131934e+04   7.772121e+05   1.660177e+06  -1.186388e+08   1.727858e+06  -1.096115e-14   1.833133e+06   1.139245e-25   0.000000e+00   0.000000e+00
      456000   4.559990e-06   1.522300e-01   1.878386e+01   2.762691e+01   1.131784e+04   7.772121e+05   1.660177e+06  -1.148621e+08   1.672634e+06  -6.833021e-15   1.833133e+06   1.067858e-25   0.000000e+00   0.000000e+00
      464000   4.639990e-06   1.531352e-01   1.884603e+01   2.775973e+01   1.131232e+04   7.772122e+05   1.660177e+06  -1.110563e+08   1.616423e+06  -3.375450e-15   1.833133e+06   9.982534e-26   0.000000e+00   0.000000e+00
      472000   4.719990e-06   1.540400e-01   1.890821e+01   2.789254e+01   1.130933e+04   7.772123e+05   1.660177e+06  -1.072356e+08   1.560402e+06  -8.293767e-15   1.833133e+06   9.307387e-26   0.000000e+00   0.000000e+00
      480000   4.799990e-06   1.549446e-01   1.897039e+01   2.802535e+01   1.130768e+04   7.772123e+05   1.660177e+06  -1.034411e+08   1.504967e+06  -5.880330e-15   1.833133e+06   8.660250e-26   0.000000e+00   0.000000e+00
      488000   4.879990e-06   1.558489e-01   1.903256e+01   2.815817e+01   1.130014e+04   7.772124e+05   1.660177e+06  -9.959707e+07   1.448074e+06  -1.084182e-14   1.833133e+06   8.028441e-26   0.000000e+00   0.000000e+00
      496000   4.959990e-06   1.567527e-01   1.909474e+01   2.829098e+01   1.129875e+04   7.772124e+05   1.660177e+06   7.919660e+07  -1.151323e+06  -6.020992e-15   1.833133e+06   5.075863e-26   0.000000e+00   0.000000e+00
      504000   5.039990e-06   1.576566e-01   1.915692e+01   2.842380e+01   1.129788e+04   7.772124e+05   1.660177e+06  -9.192675e+07   1.336286e+06  -3.378205e-15   1.833133e+06   6.839256e-26   0.000000e+00   0.000000e+00
      512000   5.119990e-06   1.585601e-01   1.921910e+01   2.855661e+01   1.129039e+04   7.772125e+05   1.660177e+06  -8.804594e+07   1.279023e+06  -5.415613e-15   1.833133e+06   6.273876e-26   0.000000e+00   0.000000e+00
      520000   5.199990e-06   1.594632e-01   1.928127e+01   2.868943e+01   1.128879e+04   7.772126e+05   1.660177e+06   7.205237e+07  -1.046540e+06  -4.640428e-15   1.833133e+06   4.201199e-26   0.000000e+00   0.000000e+00
      528000   5.279990e-06   1.603662e-01   1.934345e+01   2.882224e+01   1.128674e+04   7.772126e+05   1.660177e+06  -8.032221e+07   1.166445e+06  -5.412287e-15   1.833133e+06   5.221214e-26   0.000000e+00   0.000000e+00
      536000   5.359990e-06   1.612688e-01   1.940563e+01   2.895505e+01   1.128134e+04   7.772127e+05   1.660177e+06  -7.640619e+07   1.109045e+06  -5.330572e-15   1.833133e+06   4.724404e-26   0.000000e+00   0.000000e+00
      544000   5.439990e-06   1.621711e-01   1.946780e+01   2.908787e+01   1.127955e+04   7.772127e+05   1.660177e+06   6.484543e+07  -9.410906e+05  -5.312659e-16   1.833133e+06   3.402599e-26   0.000000e+00   0.000000e+00
      552000   5.519990e-06   1.630733e-01   1.952998e+01   2.922068e+01   1.127585e+04   7.772128e+05   1.660177e+06  -6.863085e+07   9.957009e+05  -4.722441e-15   1.833133e+06   3.811584e-26   0.000000e+00   0.000000e+00
      560000   5.599990e-06   1.639751e-01   1.959216e+01   2.935350e+01   1.127155e+04   7.772128e+05   1.660177e+06   5.994370e+07  -8.693354e+05  -2.575059e-15   1.833133e+06   2.907494e-26   0.000000e+00   0.000000e+00
      568000   5.679990e-06   1.648768e-01   1.965433e+01   2.948631e+01   1.127106e+04   7.772128e+05   1.660177e+06   5.757802e+07  -8.349904e+05  -5.043459e-16   1.833133e+06   2.682465e-26   0.000000e+00   0.000000e+00
      576000   5.759990e-06   1.657783e-01   1.971651e+01   2.961912e+01   1.126523e+04   7.772129e+05   1.660177e+06  -5.685609e+07   8.240946e+05   1.197079e-01   1.833133e+06   2.615611e-26   0.000000e+00   0.000000e+00
      584000   5.839990e-06   1.666792e-01   1.977869e+01   2.975194e+01   1.126112e+04   7.772130e+05   1.660177e+06   5.264306e+07  -7.627518e+05   3.725765e-01   1.833133e+06   2.242213e-26   0.000000e+00   0.000000e+00
      592000   5.919990e-06   1.675803e-01   1.984087e+01   2.988475e+01   1.126436e+04   7.772124e+05   1.660177e+06   8.735053e+07  -3.748644e+07   1.695661e+07   1.833133e+06   7.542368e-26   0.000000e+00   0.000000e+00
      600000   5.999990e-06   1.684814e-01   1.990304e+01   3.001757e+01   1.126214e+04   7.772110e+05   1.660178e+06  -4.421294e+07  -5.427743e+05   5.540263e+05   1.833133e+06   1.581687e-26   0.000000e+00   0.000000e+00
      608000   6.079990e-06   1.693821e-01   1.996522e+01   3.015038e+01   1.125854e+04   7.772107e+05   1.660178e+06   4.528641e+07  -6.560057e+05  -2.458074e+00   1.833133e+06   1.659133e-26   0.000000e+00   0.000000e+00
      616000   6.159990e-06   1.702829e-01   2.002740e+01   3.028320e+01   1.125949e+04   7.772106e+05   1.660178e+06   4.287189e+07  -6.210869e+05  -2.072520e-16   1.833133e+06   1.486862e-26   0.000000e+00   0.000000e+00
      624000   6.239990e-06   1.711835e-01   2.008957e+01   3.041601e+01   1.125375e+04   7.772107e+05   1.660178e+06   4.030393e+07  -5.835875e+05  -2.179739e-15   1.833133e+06   1.314004e-26   0.000000e+00   0.000000e+00
      632000   6.319990e-06   1.720837e-01   2.015175e+01   3.054882e+01   1.125143e+04   7.772108e+05   1.660178e+06   3.787597e+07  -5.483184e+05  -2.667861e-15   1.833133e+06   1.160390e-26   0.000000e+00   0.000000e+00
      640000   6.399990e-06   1.729838e-01   2.021393e+01   3.068164e+01   1.125029e+04   7.772108e+05   1.660178e+06   3.543830e+07  -5.129771e+05  -2.389134e-15   1.833133e+06   1.015765e-26   0.000000e+00   0.000000e+00
      648000   6.479990e-06   1.738837e-01   2.027610e+01   3.081445e+01   1.124506e+04   7.772109e+05   1.660178e+06   3.286377e+07  -4.754887e+05   1.553923e-16   1.833133e+06   8.734686e-27   0.000000e+00   0.000000e+00
      656000   6.559990e-06   1.747833e-01   2.033828e+01   3.094727e+01   1.124508e+04   7.772109e+05   1.660178e+06   3.041332e+07  -4.400354e+05  -7.814898e-16   1.833133e+06   7.479988e-27   0.000000e+00   0.000000e+00
      664000   6.639990e-06   1.756829e-01   2.040046e+01   3.108008e+01   1.124141e+04   7.772109e+05   1.660178e+06   2.795361e+07  -4.043150e+05   8.480461e-16   1.833133e+06   6.318337e-27   0.000000e+00   0.000000e+00
      672000   6.719990e-06   1.765821e-01   2.046263e+01   3.121290e+01   1.123667e+04   7.772110e+05   1.660178e+06   2.537282e+07  -3.668324e+05   1.493176e-15   1.833133e+06   5.204837e-27   0.000000e+00   0.000000e+00
      680000   6.799990e-06   1.774812e-01   2.052481e+01   3.134571e+01   1.123950e+04   7.772109e+05   1.660178e+06   2.290091e+07  -3.311774e+05  -7.449217e-17   1.833133e+06   4.239426e-27   0.000000e+00   0.000000e+00
      688000   6.879990e-06   1.783803e-01   2.058699e+01   3.147852e+01   1.123618e+04   7.772110e+05   1.660178e+06  -1.489432e+08   2.153281e+06  -1.347907e-14   1.833133e+06   1.795671e-25   0.000000e+00   0.000000e+00
      696000   6.959990e-06   1.792789e-01   2.064916e+01   3.161134e+01   1.122974e+04   7.772111e+05   1.660178e+06   1.783376e+07  -2.576758e+05   3.604642e-16   1.833133e+06   2.569746e-27   0.000000e+00   0.000000e+00
      704000   7.039990e-06   1.801775e-01   2.071134e+01   3.174415e+01   1.123207e+04   7.772110e+05   1.660178e+06   1.534139e+07  -2.217101e+05  -5.803970e-16   1.833133e+06   1.901028e-27   0.000000e+00   0.000000e+00
      712000   7.119990e-06   1.810760e-01   2.077352e+01   3.187697e+01   1.122919e+04   7.772111e+05   1.660178e+06  -1.371726e+08   1.981878e+06  -2.293123e-14   1.833133e+06   1.523038e-25   0.000000e+00   0.000000e+00
      720000   7.199990e-06   1.819742e-01   2.083570e+01   3.200978e+01   1.122482e+04   7.772112e+05   1.660178e+06   1.024891e+07  -1.480192e+05   4.520210e-16   1.833133e+06   8.474217e-28   0.000000e+00   0.000000e+00
      728000   7.279990e-06   1.828723e-01   2.089787e+01   3.214260e+01   1.122535e+04   7.772111e+05   1.660178e+06  -1.292835e+08   1.867257e+06  -1.454080e-14   1.833133e+06   1.352867e-25   0.000000e+00   0.000000e+00
      736000   7.359990e-06   1.837703e-01   2.096005e+01   3.227541e+01   1.122249e+04   7.772112e+05   1.660178e+06  -1.253255e+08   1.809629e+06   1.245507e-15   1.833133e+06   1.271286e-25   0.000000e+00   0.000000e+00
      744000   7.439990e-06   1.846680e-01   2.102223e+01   3.240822e+01   1.122067e+04   7.772112e+05   1.660178e+06   2.620984e+06  -3.783940e+04   3.819568e-17   1.833133e+06   5.484570e-29   0.000000e+00   0.000000e+00
      752000   7.519990e-06   1.855658e-01   2.108440e+01   3.254104e+01   1.122126e+04   7.772112e+05   1.660178e+06  -1.173922e+08   1.694892e+06  -1.641980e-14   1.833133e+06   1.115411e-25   0.000000e+00   0.000000e+00
      760000   7.599990e-06   1.864633e-01   2.114658e+01   3.267385e+01   1.121608e+04   7.772113e+05   1.660178e+06  -1.134056e+08   1.636578e+06  -9.228902e-15   1.833133e+06   1.040927e-25   0.000000e+00   0.000000e+00
      768000   7.679990e-06   1.873605e-01   2.120876e+01   3.280667e+01   1.121730e+04   7.772113e+05   1.660178e+06  -5.047321e+06   7.284676e+04   1.422933e-16   1.833133e+06   2.077581e-28   0.000000e+00   0.000000e+00
      776000   7.759990e-06   1.882580e-01   2.127093e+01   3.293948e+01   1.121792e+04   7.772113e+05   1.660178e+06  -1.054304e+08   1.521736e+06  -5.235953e-15   1.833133e+06   8.996478e-26   0.000000e+00   0.000000e+00
      784000   7.839990e-06   1.891551e-01   2.133311e+01   3.307230e+01   1.121025e+04   7.772114e+05   1.660178e+06  -1.014171e+08   1.462808e+06  -5.546632e-15   1.833133e+06   8.324468e-26   0.000000e+00   0.000000e+00
      792000   7.919990e-06   1.900519e-01   2.139529e+01   3.320511e+01   1.121257e+04   7.772113e+05   1.660178e+06  -9.743174e+07   1.405616e+06  -4.346929e-15   1.833133e+06   7.682966e-26   0.000000e+00   0.000000e+00
      800000   7.999990e-06   1.909489e-01   2.145746e+01   3.333792e+01   1.121260e+04   7.772113e+05   1.660178e+06  -9.340218e+07   1.347486e+06  -1.046221e-14   1.833133e+06   7.060491e-26   0.000000e+00   0.000000e+00
      808000   8.079990e-06   1.918457e-01   2.151964e+01   3.347074e+01   1.120736e+04   7.772114e+05   1.660178e+06  -8.936392e+07   1.288624e+06  -2.950260e-15   1.833133e+06   6.463047e-26   0.000000e+00   0.000000e+00
      816000   8.159990e-06   1.927422e-01   2.158182e+01   3.360355e+01   1.120953e+04   7.772114e+05   1.660178e+06  -8.536494e+07   1.231198e+06  -7.229587e-15   1.833133e+06   5.897443e-26   0.000000e+00   0.000000e+00
      824000   8.239990e-06   1.936389e-01   2.164400e+01   3.373637e+01   1.120758e+04   7.772114e+05   1.660178e+06  -8.131152e+07   1.172532e+06  -2.759037e-15   1.833133e+06   5.350561e-26   0.000000e+00   0.000000e+00
      832000   8.319990e-06   1.945353e-01   2.170617e+01   3.386918e+01   1.120521e+04   7.772114e+05   1.660178e+06  -7.725017e+07   1.113731e+06  -3.468249e-15   1.833133e+06   4.829293e-26   0.000000e+00   0.000000e+00
      840000   8.399990e-06   1.954317e-01   2.176835e+01   3.400200e+01   1.120723e+04   7.772114e+05   1.660178e+06  -7.323794e+07   1.056076e+06  -3.009206e-15   1.833133e+06   4.340559e-26   0.000000e+00   0.000000e+00
      848000   8.479990e-06   1.963280e-01   2.183053e+01   3.413481e+01   1.120285e+04   7.772115e+05   1.660178e+06  -6.916251e+07   9.969198e+05  -5.178358e-15   1.833133e+06   3.870810e-26   0.000000e+00   0.000000e+00
      856000   8.559990e-06   1.972240e-01   2.189270e+01   3.426762e+01   1.120195e+04   7.772115e+05   1.660178e+06   1.165918e+08  -1.680438e+06  -7.302878e-15   1.833133e+06   1.100243e-25   0.000000e+00   0.000000e+00
      864000   8.639990e-06   1.981203e-01   2.195488e+01   3.440044e+01   1.120568e+04   7.772114e+05   1.660178e+06  -6.105500e+07   8.802792e+05  -2.776472e-15   1.833133e+06   3.016284e-26   0.000000e+00   0.000000e+00
      872000   8.719990e-06   1.990164e-01   2.201706e+01   3.453325e+01   1.119842e+04   7.772115e+05   1.660178e+06  -5.695947e+07   8.206985e+05  -7.537202e-16   1.833133e+06   2.625080e-26   0.000000e+00   0.000000e+00
      880000   8.799990e-06   1.999122e-01   2.207923e+01   3.466607e+01   1.119753e+04   7.772115e+05   1.660178e+06   1.090696e+08  -1.571400e+06  -6.172343e-15   1.833133e+06   9.628305e-26   0.000000e+00   0.000000e+00
      888000   8.879990e-06   2.008080e-01   2.214141e+01   3.479888e+01   1.119727e+04   7.772115e+05   1.660178e+06  -2.634448e+07   3.795444e+05   9.724335e-16   1.833133e+06   5.617176e-27   0.000000e+00   0.000000e+00
      896000   8.959990e-06   2.017038e-01   2.220359e+01   3.493170e+01   1.119709e+04   7.772116e+05   1.660178e+06  -1.184688e+07   1.706750e+05  -4.717594e-16   1.833133e+06   1.137195e-27   0.000000e+00   0.000000e+00
      904000   9.039990e-06   2.025995e-01   2.226576e+01   3.506451e+01   1.119639e+04   7.772116e+05   1.660178e+06  -2.448838e+07   3.527757e+05  -1.388507e-15   1.833133e+06   4.853411e-27   0.000000e+00   0.000000e+00
      912000   9.119990e-06   2.034952e-01   2.232794e+01   3.519732e+01   1.119526e+04   7.772116e+05   1.660178e+06  -2.356069e+07   3.393775e+05  -4.897190e-16   1.833133e+06   4.492588e-27   0.000000e+00   0.000000e+00
      920000   9.199990e-06   2.043908e-01   2.239012e+01   3.533014e+01   1.119496e+04   7.772116e+05   1.660178e+06  -2.262803e+07   3.259344e+05  -6.149100e-17   1.833133e+06   4.143880e-27   0.000000e+00   0.000000e+00
      928000   9.279990e-06   2.052863e-01   2.245230e+01   3.546295e+01   1.119410e+04   7.772116e+05   1.660178e+06  -2.169739e+07   3.125053e+05   8.296188e-16   1.833133e+06   3.809964e-27   0.000000e+00   0.000000e+00
      936000   9.359990e-06   2.061818e-01   2.251447e+01   3.559577e+01   1.119336e+04   7.772116e+05   1.660178e+06  -2.076503e+07   2.990569e+05  -4.235608e-16   1.833133e+06   3.489496e-27   0.000000e+00   0.000000e+00
      944000   9.439990e-06   2.070773e-01   2.257665e+01   3.572858e+01   1.119299e+04   7.772116e+05   1.660178e+06  -1.983017e+07   2.855836e+05  -5.874013e-16   1.833133e+06   3.182300e-27   0.000000e+00   0.000000e+00
      952000   9.519990e-06   2.079727e-01   2.263883e+01   3.586140e+01   1.119181e+04   7.772116e+05   1.660178e+06  -1.889511e+07   2.720887e+05  -7.650982e-16   1.833133e+06   2.889198e-27   0.000000e+00   0.000000e+00
      960000   9.599990e-06   2.088680e-01   2.270100e+01   3.599421e+01   1.119157e+04   7.772116e+05   1.660178e+06  -1.795855e+07   2.585966e+05  -2.024847e-16   1.833133e+06   2.609814e-27   0.000000e+00   0.000000e+00
      968000   9.679990e-06   2.097633e-01   2.276318e+01   3.612702e+01   1.119113e+04   7.772116e+05   1.660178e+06  -1.702158e+07   2.450951e+05   3.868229e-16   1.833133e+06   2.344524e-27   0.000000e+00   0.000000e+00
      976000   9.759990e-06   2.106585e-01   2.282536e+01   3.625984e+01   1.118967e+04   7.772117e+05   1.660178e+06  -1.608257e+07   2.315438e+05  -1.475531e-15   1.833133e+06   2.092916e-27   0.000000e+00   0.000000e+00
      984000   9.839990e-06   2.115536e-01   2.288753e+01   3.639265e+01   1.118939e+04   7.772117e+05   1.660178e+06   1.731493e+07  -2.492803e+05   5.359324e-16   1.833133e+06   2.426048e-27   0.000000e+00   0.000000e+00
      992000   9.919990e-06   2.124488e-01   2.294971e+01   3.652547e+01   1.118899e+04   7.772117e+05   1.660178e+06  -1.420329e+07   2.044751e+05  -1.126269e-16   1.833133e+06   1.632246e-27   0.000000e+00   0.000000e+00
     1000000   9.999990e-06   2.133438e-01   2.301189e+01   3.665828e+01   1.118782e+04   7.772117e+05   1.660178e+06  -1.326077e+07   1.908863e+05  -5.821069e-16   1.833133e+06   1.422738e-27   0.000000e+00   0.000000e+00
     1008000   1.007999e-05   2.142388e-01   2.307406e+01   3.679109e+01   1.118747e+04   7.772117e+05   1.660178e+06   1.500410e+07  -2.159745e+05  -4.518229e-16   1.833133e+06   1.821551e-27   0.000000e+00   0.000000e+00
     1016000   1.015999e-05   2.151338e-01   2.313624e+01   3.692391e+01   1.118685e+04   7.772117e+05   1.660178e+06  -1.137631e+07   1.637457e+05  -4.495803e-16   1.833133e+06   1.046985e-27   0.000000e+00   0.000000e+00
     1024000   1.023999e-05   2.160287e-01   2.319842e+01   3.705672e+01   1.118603e+04   7.772117e+05   1.660178e+06   1.345670e+07  -1.936758e+05   6.145249e-16   1.833133e+06   1.465102e-27   0.000000e+00   0.000000e+00
     1032000   1.031999e-05   2.169235e-01   2.326060e+01   3.718954e+01   1.118566e+04   7.772117e+05   1.660178e+06   1.268565e+07  -1.825724e+05  -2.440226e-16   1.833133e+06   1.301960e-27   0.000000e+00   0.000000e+00
     1040000   1.039999e-05   2.178184e-01   2.332277e+01   3.732235e+01   1.118471e+04   7.772117e+05   1.660178e+06  -8.541737e+06   1.229225e+05   8.452493e-17   1.833133e+06   5.900820e-28   0.000000e+00   0.000000e+00
     1048000   1.047999e-05   2.187131e-01   2.338495e+01   3.745517e+01   1.118391e+04   7.772117e+05   1.660178e+06   1.113437e+07  -1.602212e+05  -2.711603e-17   1.833133e+06   1.002903e-27   0.000000e+00   0.000000e+00
     1056000   1.055999e-05   2.196078e-01   2.344713e+01   3.758798e+01   1.118398e+04   7.772117e+05   1.660178e+06   1.036049e+07  -1.490861e+05  -3.204959e-16   1.833133e+06   8.682832e-28   0.000000e+00   0.000000e+00
     1064000   1.063999e-05   2.205025e-01   2.350930e+01   3.772079e+01   1.118259e+04   7.772118e+05   1.660178e+06  -5.700601e+06   8.202073e+04   1.614205e-16   1.833133e+06   2.626797e-28   0.000000e+00   0.000000e+00
     1072000   1.071999e-05   2.213970e-01   2.357148e+01   3.785361e+01   1.118183e+04   7.772118e+05   1.660178e+06   8.805771e+06  -1.266896e+05   3.225111e-16   1.833133e+06   6.271426e-28   0.000000e+00   0.000000e+00
     1080000   1.079999e-05   2.222916e-01   2.363366e+01   3.798642e+01   1.118200e+04   7.772118e+05   1.660178e+06   8.029471e+06  -1.155226e+05  -3.446809e-16   1.833133e+06   5.213879e-28   0.000000e+00   0.000000e+00
     1088000   1.087999e-05   2.231861e-01   2.369583e+01   3.811924e+01   1.118084e+04   7.772118e+05   1.660178e+06   7.249367e+06  -1.042882e+05   1.173309e-16   1.833133e+06   4.249455e-28   0.000000e+00   0.000000e+00
     1096000   1.095999e-05   2.240806e-01   2.375801e+01   3.825205e+01   1.118020e+04   7.772118e+05   1.660178e+06   6.471815e+06  -9.309710e+04  -1.221328e-16   1.833133e+06   3.386243e-28   0.000000e+00   0.000000e+00
     1104000   1.103999e-05   2.249750e-01   2.382019e+01   3.838487e+01   1.118004e+04   7.772118e+05   1.660178e+06   5.693459e+06  -8.189928e+04  -7.576525e-17   1.833133e+06   2.620189e-28   0.000000e+00   0.000000e+00
     1112000   1.111999e-05   2.258693e-01   2.388236e+01   3.851768e+01   1.117898e+04   7.772118e+05   1.660178e+06   4.912724e+06  -7.066191e+04  -7.722546e-17   1.833133e+06   1.950349e-28   0.000000e+00   0.000000e+00
     1120000   1.119999e-05   2.267637e-01   2.394454e+01   3.865049e+01   1.117868e+04   7.772118e+05   1.660178e+06   4.133364e+06  -5.945038e+04  -2.051666e-16   1.833133e+06   1.380128e-28   0.000000e+00   0.000000e+00
     1128000   1.127999e-05   2.276579e-01   2.400672e+01   3.878331e+01   1.117809e+04   7.772118e+05   1.660178e+06   3.353369e+06  -4.822913e+04  -1.660846e-17   1.833133e+06   9.079189e-29   0.000000e+00   0.000000e+00
     1136000   1.135999e-05   2.285522e-01   2.406890e+01   3.891612e+01   1.117714e+04   7.772118e+05   1.660178e+06   2.572109e+06  -3.698968e+04   1.496295e-17   1.833133e+06   5.336992e-29   0.000000e+00   0.000000e+00
     1144000   1.143999e-05   2.294464e-01   2.413107e+01   3.904894e+01   1.117728e+04   7.772118e+05   1.660178e+06   1.791325e+06  -2.576149e+04  -5.890039e-18   1.833133e+06   2.584522e-29   0.000000e+00   0.000000e+00
     1152000   1.151999e-05   2.303405e-01   2.419325e+01   3.918175e+01   1.117648e+04   7.772118e+05   1.660178e+06  -3.323748e+07   4.779621e+05   1.438505e-15   1.833133e+06   8.941789e-27   0.000000e+00   0.000000e+00
     1160000   1.159999e-05   2.312346e-01   2.425543e+01   3.931457e+01   1.117531e+04   7.772119e+05   1.660178e+06   2.283906e+05  -3.283962e+03  -1.138696e-17   1.833133e+06   4.052960e-31   0.000000e+00   0.000000e+00
     1168000   1.167999e-05   2.321287e-01   2.431760e+01   3.944738e+01   1.117569e+04   7.772119e+05   1.660178e+06  -5.534227e+05   7.957778e+03  -6.246817e-18   1.833133e+06   2.521593e-30   0.000000e+00   0.000000e+00
     1176000   1.175999e-05   2.330227e-01   2.437978e+01   3.958019e+01   1.117498e+04   7.772119e+05   1.660178e+06  -3.039555e+07   4.370359e+05  -1.095826e-15   1.833133e+06   7.477853e-27   0.000000e+00   0.000000e+00
     1184000   1.183999e-05   2.339167e-01   2.444196e+01   3.971301e+01   1.117396e+04   7.772119e+05   1.660178e+06  -2.117521e+06   3.044355e+04   5.754203e-17   1.833133e+06   3.646293e-29   0.000000e+00   0.000000e+00
     1192000   1.191999e-05   2.348106e-01   2.450413e+01   3.984582e+01   1.117400e+04   7.772119e+05   1.660178e+06  -2.899955e+06   4.169274e+04  -9.235975e-17   1.833133e+06   6.830694e-29   0.000000e+00   0.000000e+00
     1200000   1.199999e-05   2.357045e-01   2.456631e+01   3.997864e+01   1.117337e+04   7.772119e+05   1.660178e+06  -2.754788e+07   3.960343e+05  -1.556163e-15   1.833133e+06   6.142140e-27   0.000000e+00   0.000000e+00
     1208000   1.207999e-05   2.365983e-01   2.462849e+01   4.011145e+01   1.117273e+04   7.772119e+05   1.660178e+06  -4.464736e+06   6.418234e+04  -3.829606e-17   1.833133e+06   1.617283e-28   0.000000e+00   0.000000e+00
     1216000   1.215999e-05   2.374922e-01   2.469066e+01   4.024427e+01   1.117263e+04   7.772119e+05   1.660178e+06  -2.564662e+07   3.686771e+05   1.931694e-15   1.833133e+06   5.323445e-27   0.000000e+00   0.000000e+00
     1224000   1.223999e-05   2.383860e-01   2.475284e+01   4.037708e+01   1.117176e+04   7.772119e+05   1.660178e+06  -2.469555e+07   3.549775e+05  -6.094346e-16   1.833133e+06   4.935871e-27   0.000000e+00   0.000000e+00
     1232000   1.231999e-05   2.392797e-01   2.481502e+01   4.050989e+01   1.117161e+04   7.772119e+05   1.660178e+06  -6.812351e+06   9.792047e+04  -1.305822e-16   1.833133e+06   3.762501e-28   0.000000e+00   0.000000e+00
     1240000   1.239999e-05   2.401734e-01   2.487720e+01   4.064271e+01   1.117150e+04   7.772119e+05   1.660178e+06  -2.279196e+07   3.276073e+05  -2.823169e-15   1.833133e+06   4.204127e-27   0.000000e+00   0.000000e+00
     1248000   1.247999e-05   2.410671e-01   2.493937e+01   4.077552e+01   1.117015e+04   7.772119e+05   1.660178e+06  -2.183968e+07   3.138817e+05  -8.878441e-16   1.833133e+06   3.860091e-27   0.000000e+00   0.000000e+00
     1256000   1.255999e-05   2.419607e-01   2.500155e+01   4.090834e+01   1.117046e+04   7.772119e+05   1.660178e+06  -9.159453e+06   1.316440e+05   1.319711e-16   1.833133e+06   6.799385e-28   0.000000e+00   0.000000e+00
     1264000   1.263999e-05   2.428543e-01   2.506373e+01   4.104115e+01   1.117031e+04   7.772119e+05   1.660178e+06  -1.993432e+07   2.865016e+05  -2.118574e-16   1.833133e+06   3.215808e-27   0.000000e+00   0.000000e+00
     1272000   1.271999e-05   2.437479e-01   2.512590e+01   4.117397e+01   1.116904e+04   7.772120e+05   1.660178e+06  -1.898132e+07   2.727739e+05  -3.583236e-17   1.833133e+06   2.915615e-27   0.000000e+00   0.000000e+00
     1280000   1.279999e-05   2.446414e-01   2.518808e+01   4.130678e+01   1.116925e+04   7.772120e+05   1.660178e+06  -1.802816e+07   2.590812e+05  -2.212976e-16   1.833133e+06   2.630078e-27   0.000000e+00   0.000000e+00
     1288000   1.287999e-05   2.455349e-01   2.525026e+01   4.143959e+01   1.116885e+04   7.772120e+05   1.660178e+06  -1.707484e+07   2.453724e+05  -4.333667e-16   1.833133e+06   2.359210e-27   0.000000e+00   0.000000e+00
     1296000   1.295999e-05   2.464284e-01   2.531243e+01   4.157241e+01   1.116803e+04   7.772120e+05   1.660178e+06  -1.612162e+07   2.316572e+05   5.128914e-16   1.833133e+06   2.103084e-27   0.000000e+00   0.000000e+00
     1304000   1.303999e-05   2.473218e-01   2.537461e+01   4.170522e+01   1.116818e+04   7.772120e+05   1.660178e+06  -1.516788e+07   2.179555e+05  -8.403522e-16   1.833133e+06   1.861545e-27   0.000000e+00   0.000000e+00
     1312000   1.311999e-05   2.482152e-01   2.543679e+01   4.183804e+01   1.116740e+04   7.772120e+05   1.660178e+06  -1.421459e+07   2.042430e+05   2.151220e-16   1.833133e+06   1.634839e-27   0.000000e+00   0.000000e+00
     1320000   1.319999e-05   2.491086e-01   2.549897e+01   4.197085e+01   1.116709e+04   7.772120e+05   1.660178e+06   2.259676e+07  -3.246734e+05  -1.928370e-15   1.833133e+06   4.132402e-27   0.000000e+00   0.000000e+00
     1328000   1.327999e-05   2.500019e-01   2.556114e+01   4.210367e+01   1.116722e+04   7.772120e+05   1.660178e+06  -1.230743e+07   1.768370e+05   3.085469e-17   1.833133e+06   1.225455e-27   0.000000e+00   0.000000e+00
     1336000   1.335999e-05   2.508952e-01   2.562332e+01   4.223648e+01   1.116596e+04   7.772120e+05   1.660178e+06  -1.135469e+07   1.631292e+05  -5.168879e-16   1.833133e+06   1.043002e-27   0.000000e+00   0.000000e+00
     1344000   1.343999e-05   2.517885e-01   2.568550e+01   4.236929e+01   1.116562e+04   7.772120e+05   1.660178e+06   2.024260e+07  -2.908103e+05   1.192626e-16   1.833133e+06   3.316057e-27   0.000000e+00   0.000000e+00
     1352000   1.351999e-05   2.526818e-01   2.574767e+01   4.250211e+01   1.116636e+04   7.772120e+05   1.660178e+06  -9.447950e+06   1.357406e+05  -4.789304e-16   1.833133e+06   7.220025e-28   0.000000e+00   0.000000e+00
     1360000   1.359999e-05   2.535750e-01   2.580985e+01   4.263492e+01   1.116502e+04   7.772120e+05   1.660178e+06  -8.496216e+06   1.220521e+05  -1.508903e-16   1.833133e+06   5.838040e-28   0.000000e+00   0.000000e+00
     1368000   1.367999e-05   2.544682e-01   2.587203e+01   4.276774e+01   1.116467e+04   7.772120e+05   1.660178e+06   1.788789e+07  -2.569600e+05  -8.234628e-16   1.833133e+06   2.589295e-27   0.000000e+00   0.000000e+00
     1376000   1.375999e-05   2.553614e-01   2.593420e+01   4.290055e+01   1.116506e+04   7.772120e+05   1.660178e+06  -6.590499e+06   9.467602e+04   3.917936e-16   1.833133e+06   3.511687e-28   0.000000e+00   0.000000e+00
     1384000   1.383999e-05   2.562545e-01   2.599638e+01   4.303337e+01   1.116407e+04   7.772120e+05   1.660178e+06   1.632001e+07  -2.344248e+05  -9.169316e-17   1.833133e+06   2.155175e-27   0.000000e+00   0.000000e+00
     1392000   1.391999e-05   2.571476e-01   2.605856e+01   4.316618e+01   1.116384e+04   7.772120e+05   1.660178e+06   1.553357e+07  -2.231235e+05   5.647986e-16   1.833133e+06   1.952414e-27   0.000000e+00   0.000000e+00
     1400000   1.399999e-05   2.580407e-01   2.612073e+01   4.329899e+01   1.116376e+04   7.772120e+05   1.660178e+06   1.474719e+07  -2.118265e+05  -1.693300e-16   1.833133e+06   1.759682e-27   0.000000e+00   0.000000e+00
     1408000   1.407999e-05   2.589338e-01   2.618291e+01   4.343181e+01   1.116287e+04   7.772120e+05   1.660178e+06   1.396649e+07  -2.005966e+05  -4.545295e-16   1.833133e+06   1.578246e-27   0.000000e+00   0.000000e+00
     1416000   1.415999e-05   2.598268e-01   2.624509e+01   4.356462e+01   1.116312e+04   7.772120e+05   1.660178e+06   1.318054e+07  -1.893126e+05  -4.850467e-16   1.833133e+06   1.405561e-27   0.000000e+00   0.000000e+00
     1424000   1.423999e-05   2.607199e-01   2.630727e+01   4.369744e+01   1.116246e+04   7.772120e+05   1.660178e+06   1.239480e+07  -1.780164e+05  -2.183824e-16   1.833133e+06   1.242919e-27   0.000000e+00   0.000000e+00
     1432000   1.431999e-05   2.616128e-01   2.636944e+01   4.383025e+01   1.116168e+04   7.772121e+05   1.660178e+06   1.161473e+07  -1.668012e+05  -5.337108e-16   1.833133e+06   1.091340e-27   0.000000e+00   0.000000e+00
     1440000   1.439999e-05   2.625058e-01   2.643162e+01   4.396307e+01   1.116253e+04   7.772120e+05   1.660178e+06   1.082966e+07  -1.555385e+05  -1.975757e-16   1.833133e+06   9.487396e-28   0.000000e+00   0.000000e+00
     1448000   1.447999e-05   2.633988e-01   2.649380e+01   4.409588e+01   1.116158e+04   7.772121e+05   1.660178e+06  -3.591924e+07   5.158379e+05   1.163629e-15   1.833133e+06   1.044316e-26   0.000000e+00   0.000000e+00
     1456000   1.455999e-05   2.642917e-01   2.655597e+01   4.422869e+01   1.116086e+04   7.772121e+05   1.660178e+06   9.265659e+06  -1.330560e+05   6.164052e-17   1.833133e+06   6.943957e-28   0.000000e+00   0.000000e+00
     1464000   1.463999e-05   2.651846e-01   2.661815e+01   4.436151e+01   1.116148e+04   7.772121e+05   1.660178e+06   8.481875e+06  -1.218076e+05  -1.296872e-16   1.833133e+06   5.818328e-28   0.000000e+00   0.000000e+00
     1472000   1.471999e-05   2.660775e-01   2.668033e+01   4.449432e+01   1.116067e+04   7.772121e+05   1.660178e+06  -3.303919e+07   4.744388e+05  -9.335922e-16   1.833133e+06   8.835408e-27   0.000000e+00   0.000000e+00
     1480000   1.479999e-05   2.669704e-01   2.674250e+01   4.462714e+01   1.116032e+04   7.772121e+05   1.660178e+06   6.920159e+06  -9.936952e+04  -2.431617e-16   1.833133e+06   3.872040e-28   0.000000e+00   0.000000e+00
     1488000   1.487999e-05   2.678632e-01   2.680468e+01   4.475995e+01   1.116045e+04   7.772121e+05   1.660178e+06   6.138058e+06  -8.814005e+04  -8.671078e-17   1.833133e+06   3.045761e-28   0.000000e+00   0.000000e+00
     1496000   1.495999e-05   2.687561e-01   2.686686e+01   4.489277e+01   1.115977e+04   7.772121e+05   1.660178e+06  -3.016156e+07   4.330815e+05  -1.886479e-15   1.833133e+06   7.363158e-27   0.000000e+00   0.000000e+00
     1504000   1.503999e-05   2.696489e-01   2.692904e+01   4.502558e+01   1.115990e+04   7.772121e+05   1.660178e+06   4.579128e+06  -6.575116e+04  -9.375854e-17   1.833133e+06   1.694247e-28   0.000000e+00   0.000000e+00
     1512000   1.511999e-05   2.705417e-01   2.699121e+01   4.515839e+01   1.115986e+04   7.772121e+05   1.660178e+06  -2.824701e+07   4.055941e+05   2.100261e-16   1.833133e+06   6.457916e-27   0.000000e+00   0.000000e+00
     1520000   1.519999e-05   2.714344e-01   2.705339e+01   4.529121e+01   1.115887e+04   7.772121e+05   1.660178e+06  -2.728734e+07   3.917797e+05  -8.440485e-16   1.833133e+06   6.026498e-27   0.000000e+00   0.000000e+00
     1528000   1.527999e-05   2.723272e-01   2.711557e+01   4.542402e+01   1.115959e+04   7.772121e+05   1.660178e+06   2.243416e+06  -3.221207e+04   2.367611e-17   1.833133e+06   4.058059e-29   0.000000e+00   0.000000e+00
     1536000   1.535999e-05   2.732200e-01   2.717774e+01   4.555684e+01   1.115958e+04   7.772121e+05   1.660178e+06  -2.537517e+07   3.643488e+05   9.015719e-16   1.833133e+06   5.211342e-27   0.000000e+00   0.000000e+00
     1544000   1.543999e-05   2.741127e-01   2.723992e+01   4.568965e+01   1.115816e+04   7.772121e+05   1.660178e+06  -2.441761e+07   3.505549e+05  -9.456761e-16   1.833133e+06   4.825386e-27   0.000000e+00   0.000000e+00
     1552000   1.551999e-05   2.750053e-01   2.730210e+01   4.582247e+01   1.115883e+04   7.772121e+05   1.660178e+06  -8.608763e+04   1.236004e+03  -1.302561e-18   1.833133e+06   6.660508e-32   0.000000e+00   0.000000e+00
     1560000   1.559999e-05   2.758981e-01   2.736427e+01   4.595528e+01   1.115883e+04   7.772121e+05   1.660178e+06  -2.250845e+07   3.231654e+05  -9.867470e-16   1.833133e+06   4.100180e-27   0.000000e+00   0.000000e+00
     1568000   1.567999e-05   2.767907e-01   2.742645e+01   4.608809e+01   1.115790e+04   7.772121e+05   1.660178e+06  -2.155348e+07   3.094285e+05  -5.495403e-16   1.833133e+06   3.759578e-27   0.000000e+00   0.000000e+00
     1576000   1.575999e-05   2.776834e-01   2.748863e+01   4.622091e+01   1.115844e+04   7.772121e+05   1.660178e+06  -2.060118e+07   2.957715e+05  -8.370231e-16   1.833133e+06   3.434630e-27   0.000000e+00   0.000000e+00
     1584000   1.583999e-05   2.785760e-01   2.755081e+01   4.635372e+01   1.115809e+04   7.772121e+05   1.660178e+06  -1.964793e+07   2.820766e+05   9.871038e-18   1.833133e+06   3.124063e-27   0.000000e+00   0.000000e+00
     1592000   1.591999e-05   2.794686e-01   2.761298e+01   4.648654e+01   1.115775e+04   7.772121e+05   1.660178e+06  -1.869602e+07   2.684023e+05   3.401031e-16   1.833133e+06   2.828620e-27   0.000000e+00   0.000000e+00
     1600000   1.599999e-05   2.803613e-01   2.767516e+01   4.661935e+01   1.115823e+04   7.772121e+05   1.660178e+06  -1.774456e+07   2.547539e+05   2.795465e-16   1.833133e+06   2.547976e-27   0.000000e+00   0.000000e+00
     1608000   1.607999e-05   2.812539e-01   2.773734e+01   4.675216e+01   1.115735e+04   7.772121e+05   1.660178e+06  -1.679460e+07   2.410967e+05  -7.593357e-16   1.833133e+06   2.282399e-27   0.000000e+00   0.000000e+00
     1616000   1.615999e-05   2.821465e-01   2.779951e+01   4.688498e+01   1.115768e+04   7.772121e+05   1.660178e+06   3.128482e+07  -4.491257e+05  -3.182560e-15   1.833133e+06   7.921887e-27   0.000000e+00   0.000000e+00
     1624000   1.623999e-05   2.830391e-01   2.786169e+01   4.701779e+01   1.115812e+04   7.772121e+05   1.660178e+06  -1.489575e+07   2.138523e+05   6.825881e-16   1.833133e+06   1.795342e-27   0.000000e+00   0.000000e+00
     1632000   1.631999e-05   2.839317e-01   2.792387e+01   4.715061e+01   1.115662e+04   7.772121e+05   1.660178e+06  -1.394959e+07   2.002416e+05   3.345553e-16   1.833133e+06   1.574444e-27   0.000000e+00   0.000000e+00
     1640000   1.639999e-05   2.848242e-01   2.798604e+01   4.728342e+01   1.115688e+04   7.772121e+05   1.660178e+06   2.891314e+07  -4.150480e+05  -3.726131e-16   1.833133e+06   6.766150e-27   0.000000e+00   0.000000e+00
     1648000   1.647999e-05   2.857168e-01   2.804822e+01   4.741624e+01   1.115755e+04   7.772121e+05   1.660178e+06  -1.205578e+07   1.730710e+05  -1.031381e-15   1.833133e+06   1.175847e-27   0.000000e+00   0.000000e+00
     1656000   1.655999e-05   2.866093e-01   2.811040e+01   4.754905e+01   1.115653e+04   7.772121e+05   1.660178e+06  -1.111386e+07   1.595344e+05  -4.039439e-16   1.833133e+06   9.992227e-28   0.000000e+00   0.000000e+00
     1664000   1.663999e-05   2.875018e-01   2.817257e+01   4.768186e+01   1.115673e+04   7.772121e+05   1.660178e+06   2.654678e+07  -3.810739e+05   1.121062e-15   1.833133e+06   5.703783e-27   0.000000e+00   0.000000e+00
     1672000   1.671999e-05   2.883943e-01   2.823475e+01   4.781468e+01   1.115696e+04   7.772121e+05   1.660178e+06  -9.225707e+06   1.324360e+05  -8.005467e-17   1.833133e+06   6.884296e-28   0.000000e+00   0.000000e+00
     1680000   1.679999e-05   2.892869e-01   2.829693e+01   4.794749e+01   1.115641e+04   7.772121e+05   1.660178e+06   2.498129e+07  -3.585914e+05  -1.056498e-15   1.833133e+06   5.050792e-27   0.000000e+00   0.000000e+00
     1688000   1.687999e-05   2.901794e-01   2.835911e+01   4.808031e+01   1.115670e+04   7.772121e+05   1.660178e+06   2.418661e+07  -3.471932e+05  -1.116236e-15   1.833133e+06   4.734510e-27   0.000000e+00   0.000000e+00
     1696000   1.695999e-05   2.910719e-01   2.842128e+01   4.821312e+01   1.115638e+04   7.772121e+05   1.660178e+06  -6.406481e+06   9.196094e+04   1.544775e-17   1.833133e+06   3.318271e-28   0.000000e+00   0.000000e+00
     1704000   1.703999e-05   2.919644e-01   2.848346e+01   4.834594e+01   1.115588e+04   7.772121e+05   1.660178e+06   2.262528e+07  -3.247567e+05  -1.265557e-15   1.833133e+06   4.142873e-27   0.000000e+00   0.000000e+00
     1712000   1.711999e-05   2.928569e-01   2.854564e+01   4.847875e+01   1.115679e+04   7.772121e+05   1.660178e+06   2.183341e+07  -3.134160e+05  -1.801000e-16   1.833133e+06   3.857899e-27   0.000000e+00   0.000000e+00
     1720000   1.719999e-05   2.937494e-01   2.860781e+01   4.861156e+01   1.115581e+04   7.772121e+05   1.660178e+06  -3.599123e+06   5.166046e+04   1.579702e-16   1.833133e+06   1.046135e-28   0.000000e+00   0.000000e+00
     1728000   1.727999e-05   2.946418e-01   2.866999e+01   4.874438e+01   1.115535e+04   7.772122e+05   1.660178e+06   2.027680e+07  -2.910336e+05  -8.547091e-16   1.833133e+06   3.327306e-27   0.000000e+00   0.000000e+00
     1736000   1.735999e-05   2.955343e-01   2.873217e+01   4.887719e+01   1.115661e+04   7.772121e+05   1.660178e+06   1.948811e+07  -2.797449e+05  -1.266734e-16   1.833133e+06   3.073445e-27   0.000000e+00   0.000000e+00
     1744000   1.743999e-05   2.964268e-01   2.879434e+01   4.901001e+01   1.115572e+04   7.772121e+05   1.660178e+06   1.872319e+07  -2.687435e+05   3.742816e-16   1.833133e+06   2.836858e-27   0.000000e+00   0.000000e+00
     1752000   1.751999e-05   2.973193e-01   2.885652e+01   4.914282e+01   1.115549e+04   7.772121e+05   1.660178e+06   1.793664e+07  -2.574485e+05  -1.069226e-16   1.833133e+06   2.603462e-27   0.000000e+00   0.000000e+00
     1760000   1.759999e-05   2.982117e-01   2.891870e+01   4.927564e+01   1.115623e+04   7.772121e+05   1.660178e+06   1.715146e+07  -2.461948e+05   5.125890e-16   1.833133e+06   2.380463e-27   0.000000e+00   0.000000e+00
     1768000   1.767999e-05   2.991042e-01   2.898088e+01   4.940845e+01   1.115545e+04   7.772122e+05   1.660178e+06   1.638840e+07  -2.352253e+05   1.060388e-16   1.833133e+06   2.173310e-27   0.000000e+00   0.000000e+00
     1776000   1.775999e-05   2.999967e-01   2.904305e+01   4.954126e+01   1.115575e+04   7.772121e+05   1.660178e+06   1.560560e+07  -2.239956e+05   9.707647e-17   1.833133e+06   1.970596e-27   0.000000e+00   0.000000e+00
     1784000   1.783999e-05   3.008891e-01   2.910523e+01   4.967408e+01   1.115517e+04   7.772087e+05   1.660180e+06  -3.601994e+07  -2.109225e+08   9.898480e+07   1.833133e+06   4.497195e-25   0.000000e+00   0.000000e+00
     1792000   1.791999e-05   3.017814e-01   2.916741e+01   4.980689e+01   1.115162e+04   7.771880e+05   1.660190e+06  -5.422447e+07  -3.123618e+08   1.465908e+08   1.833133e+06   9.879468e-25   0.000000e+00   0.000000e+00
     1800000   1.799999e-05   3.026734e-01   2.922958e+01   4.993971e+01   1.115020e+04   7.771799e+05   1.660193e+06   0.000000e+00   0.000000e+00   0.000000e+00   1.833133e+06   0.000000e+00   0.000000e+00   0.000000e+00
