     timestep     time              x             y              z              vx             vy             vz             ax             ay             az         v_magnitude      ELoss        Electronic      Nuclear
           0   0.000000e+00   1.000000e-01   1.074608e+01   2.077914e+01   3.164052e+05  -3.872610e+04   1.491445e+06   0.000000e+00   0.000000e+00   0.000000e+00   1.525130e+06   0.000000e+00   0.000000e+00   0.000000e+00
        8000   7.999000e-08   1.253124e-01   1.074298e+01   2.089845e+01   3.164055e+05  -3.872349e+04   1.491445e+06   5.859237e+06   4.787521e+07   6.626010e-15   1.525130e+06   1.303282e-26   0.000000e+00   0.000000e+00
       16000   1.599900e-07   1.506249e-01   1.073988e+01   2.101777e+01   3.164056e+05  -3.872284e+04   1.491445e+06   3.089958e+06   2.524815e+07  -8.181145e-16   1.525130e+06   3.624322e-27   0.000000e+00   0.000000e+00
       24000   2.399900e-07   1.759373e-01   1.073679e+01   2.113708e+01   3.164059e+05  -3.872102e+04   1.491445e+06  -9.046730e+05  -7.392466e+06  -8.275361e-16   1.525130e+06   3.103822e-28   0.000000e+00   0.000000e+00
       32000   3.199900e-07   2.012498e-01   1.073369e+01   2.125640e+01   3.164058e+05  -3.872106e+04   1.491445e+06   6.216796e+04   5.080002e+05  -1.408730e-16   1.525130e+06   1.473558e-30   0.000000e+00   0.000000e+00
       40000   3.999900e-07   2.265623e-01   1.073059e+01   2.137571e+01   3.164059e+05  -3.872088e+04   1.491445e+06   7.619580e+05   6.226305e+06  -1.295195e-15   1.525130e+06   2.204008e-28   0.000000e+00   0.000000e+00
       48000   4.799900e-07   2.518747e-01   1.072749e+01   2.149503e+01   3.164059e+05  -3.872083e+04   1.491445e+06  -5.326766e+05  -4.352748e+06  -3.412900e-16   1.525130e+06   1.076940e-28   0.000000e+00   0.000000e+00
       56000   5.599900e-07   2.771872e-01   1.072440e+01   2.161435e+01   3.164059e+05  -3.872055e+04   1.491445e+06  -1.139428e+05  -9.310866e+05  -2.444314e-16   1.525130e+06   4.919090e-30   0.000000e+00   0.000000e+00
       64000   6.399900e-07   3.024997e-01   1.072130e+01   2.173366e+01   3.164059e+05  -3.872075e+04   1.491445e+06   3.037093e-02   2.481755e-01   1.012143e-23   1.525130e+06   3.543546e-43   0.000000e+00   0.000000e+00
       72000   7.199900e-07   3.278122e-01   1.071820e+01   2.185298e+01   3.164059e+05  -3.872075e+04   1.491445e+06   1.320310e-01   1.078889e+00   2.964822e-22   1.525130e+06   6.602751e-42   0.000000e+00   0.000000e+00
       80000   7.999900e-07   3.531246e-01   1.071510e+01   2.197229e+01   3.164059e+05  -3.872075e+04   1.491445e+06  -8.343156e-01  -6.817594e+00   7.987900e-22   1.525130e+06   2.642098e-40   0.000000e+00   0.000000e+00
       88000   8.799900e-07   3.784371e-01   1.071201e+01   2.209161e+01   3.164059e+05  -3.872075e+04   1.491445e+06   8.365939e-01   6.836211e+00  -1.346426e-22   1.525130e+06   2.656614e-40   0.000000e+00   0.000000e+00
       96000   9.599900e-07   4.037496e-01   1.070891e+01   2.221092e+01   3.164059e+05  -3.872075e+04   1.491445e+06  -9.926268e-02  -8.111232e-01  -1.710189e-23   1.525130e+06   3.730864e-42   0.000000e+00   0.000000e+00
      104000   1.039990e-06   4.290620e-01   1.070581e+01   2.233024e+01   3.164059e+05  -3.872075e+04   1.491445e+06  -8.879182e-01  -7.255607e+00  -6.964714e-22   1.525130e+06   2.994029e-40   0.000000e+00   0.000000e+00
      112000   1.119990e-06   4.543745e-01   1.070271e+01   2.244955e+01   3.164059e+05  -3.872075e+04   1.491445e+06  -1.093807e+00  -8.938024e+00   7.602704e-22   1.525130e+06   4.541947e-40   0.000000e+00   0.000000e+00
      120000   1.199990e-06   4.796870e-01   1.069961e+01   2.256887e+01   3.164059e+05  -3.872075e+04   1.491445e+06  -1.705228e+00  -1.393424e+01   2.903893e-21   1.525130e+06   1.103946e-39   0.000000e+00   0.000000e+00
      128000   1.279990e-06   5.049994e-01   1.069652e+01   2.268819e+01   3.164059e+05  -3.872075e+04   1.491445e+06  -1.064601e+00  -8.699367e+00  -6.144036e-22   1.525130e+06   4.304338e-40   0.000000e+00   0.000000e+00
      136000   1.359990e-06   5.303119e-01   1.069342e+01   2.280750e+01   3.164059e+05  -3.872075e+04   1.491445e+06  -1.419285e+00  -1.159766e+01   1.577486e-21   1.525130e+06   7.649919e-40   0.000000e+00   0.000000e+00
      144000   1.439990e-06   5.556244e-01   1.069032e+01   2.292682e+01   3.164059e+05  -3.872075e+04   1.491445e+06  -2.880512e+00  -2.353805e+01  -5.576238e-21   1.525130e+06   3.150526e-39   0.000000e+00   0.000000e+00
      152000   1.519990e-06   5.809369e-01   1.068722e+01   2.304613e+01   3.164059e+05  -3.872075e+04   1.491445e+06  -1.185537e+00  -9.687594e+00  -6.893442e-22   1.525130e+06   5.337732e-40   0.000000e+00   0.000000e+00
      160000   1.599990e-06   6.062493e-01   1.068413e+01   2.316545e+01   3.164059e+05  -3.872075e+04   1.491445e+06  -4.881949e-01  -3.989276e+00   5.504408e-22   1.525130e+06   9.054277e-41   0.000000e+00   0.000000e+00
      168000   1.679990e-06   6.315618e-01   1.068103e+01   2.328476e+01   3.164059e+05  -3.872075e+04   1.491445e+06  -1.061248e+00  -8.671967e+00  -1.657130e-22   1.525130e+06   4.276185e-40   0.000000e+00   0.000000e+00
      176000   1.759990e-06   6.568743e-01   1.067793e+01   2.340408e+01   3.164059e+05  -3.872075e+04   1.491445e+06  -3.532867e-01  -2.886875e+00   4.884020e-24   1.525130e+06   4.737810e-41   0.000000e+00   0.000000e+00
      184000   1.839990e-06   6.821867e-01   1.067483e+01   2.352339e+01   3.164059e+05  -3.872075e+04   1.491445e+06  -2.514051e-01  -2.054352e+00   5.096161e-23   1.525130e+06   2.402141e-41   0.000000e+00   0.000000e+00
      192000   1.919990e-06   7.074992e-01   1.067174e+01   2.364271e+01   3.164059e+05  -3.872075e+04   1.491445e+06  -4.937632e-01  -4.034777e+00  -2.984205e-24   1.525130e+06   9.252865e-41   0.000000e+00   0.000000e+00
      200000   1.999990e-06   7.328117e-01   1.066864e+01   2.376203e+01   3.164059e+05  -3.872075e+04   1.491445e+06   5.540427e-01   4.527350e+00   5.526736e-22   1.525130e+06   1.165161e-40   0.000000e+00   0.000000e+00
      208000   2.079990e-06   7.581242e-01   1.066554e+01   2.388134e+01   3.164059e+05  -3.872075e+04   1.491445e+06  -1.072945e+00  -8.767548e+00   1.141016e-21   1.525130e+06   4.370385e-40   0.000000e+00   0.000000e+00
      216000   2.159990e-06   7.834366e-01   1.066244e+01   2.400066e+01   3.164059e+05  -3.872075e+04   1.491445e+06  -5.888568e-01  -4.811832e+00  -6.106554e-22   1.525130e+06   1.316121e-40   0.000000e+00   0.000000e+00
      224000   2.239990e-06   8.087491e-01   1.065934e+01   2.411997e+01   3.164059e+05  -3.872075e+04   1.491445e+06  -1.157185e+00  -9.455914e+00  -2.059944e-22   1.525130e+06   5.084980e-40   0.000000e+00   0.000000e+00
      232000   2.319990e-06   8.340616e-01   1.065625e+01   2.423929e+01   3.164059e+05  -3.872075e+04   1.491445e+06  -1.194944e+00  -9.764466e+00   9.896290e-22   1.525130e+06   5.421787e-40   0.000000e+00   0.000000e+00
      240000   2.399990e-06   8.593740e-01   1.065315e+01   2.435860e+01   3.164059e+05  -3.872075e+04   1.491445e+06  -1.324522e+00  -1.082330e+01  -6.287173e-22   1.525130e+06   6.661936e-40   0.000000e+00   0.000000e+00
      248000   2.479990e-06   8.846865e-01   1.065005e+01   2.447792e+01   3.164059e+05  -3.872075e+04   1.491445e+06  -1.351057e+00  -1.104014e+01  -2.766947e-21   1.525130e+06   6.931027e-40   0.000000e+00   0.000000e+00
      256000   2.559990e-06   9.099990e-01   1.064695e+01   2.459724e+01   3.164059e+05  -3.872075e+04   1.491445e+06  -4.346683e-01  -3.551884e+00  -1.803886e-22   1.525130e+06   7.177145e-41   0.000000e+00   0.000000e+00
      264000   2.639990e-06   9.353115e-01   1.064386e+01   2.471655e+01   3.164059e+05  -3.872075e+04   1.491445e+06  -8.093338e-01  -6.613456e+00  -1.720286e-22   1.525130e+06   2.487801e-40   0.000000e+00   0.000000e+00
      272000   2.719990e-06   9.606239e-01   1.064076e+01   2.483587e+01   3.164059e+05  -3.872075e+04   1.491445e+06  -6.093032e-01  -4.978910e+00  -2.633750e-23   1.525130e+06   1.409402e-40   0.000000e+00   0.000000e+00
      280000   2.799990e-06   9.859364e-01   1.063766e+01   2.495518e+01   3.164059e+05  -3.872075e+04   1.491445e+06  -5.308460e-01  -4.337798e+00  -3.129730e-22   1.525130e+06   1.070393e-40   0.000000e+00   0.000000e+00
      288000   2.879990e-06   1.011249e+00   1.063456e+01   2.507450e+01   3.164059e+05  -3.872075e+04   1.491445e+06  -1.260531e+00  -1.030040e+01   1.326693e-22   1.525130e+06   6.032654e-40   0.000000e+00   0.000000e+00
      296000   2.959990e-06   1.036561e+00   1.063147e+01   2.519381e+01   3.164059e+05  -3.872075e+04   1.491445e+06  -6.044378e-01  -4.939153e+00  -4.476216e-22   1.525130e+06   1.387648e-40   0.000000e+00   0.000000e+00
      304000   3.039990e-06   1.061874e+00   1.062837e+01   2.531313e+01   3.164059e+05  -3.872075e+04   1.491445e+06  -9.183520e-01  -7.504296e+00  -8.850834e-23   1.525130e+06   3.203015e-40   0.000000e+00   0.000000e+00
      312000   3.119990e-06   1.087186e+00   1.062527e+01   2.543244e+01   3.164059e+05  -3.872075e+04   1.491445e+06  -1.952541e+00  -1.595515e+01  -6.297864e-22   1.525130e+06   1.447528e-39   0.000000e+00   0.000000e+00
      320000   3.199990e-06   1.112499e+00   1.062217e+01   2.555176e+01   3.164059e+05  -3.872075e+04   1.491445e+06  -1.202616e+00  -9.827153e+00  -3.503399e-21   1.525130e+06   5.490936e-40   0.000000e+00   0.000000e+00
      328000   3.279990e-06   1.137811e+00   1.061908e+01   2.567108e+01   3.164059e+05  -3.872075e+04   1.491445e+06  -3.273880e-01  -2.675245e+00  -4.231199e-22   1.525130e+06   4.074520e-41   0.000000e+00   0.000000e+00
      336000   3.359990e-06   1.163124e+00   1.061598e+01   2.579039e+01   3.164059e+05  -3.872075e+04   1.491445e+06  -1.090838e+00  -8.913759e+00   4.920849e-22   1.525130e+06   4.517566e-40   0.000000e+00   0.000000e+00
      344000   3.439990e-06   1.188436e+00   1.061288e+01   2.590971e+01   3.164059e+05  -3.872075e+04   1.491445e+06  -9.178628e-02  -7.500299e-01  -4.032306e-23   1.525130e+06   3.191376e-42   0.000000e+00   0.000000e+00
      352000   3.519990e-06   1.213749e+00   1.060978e+01   2.602902e+01   3.164059e+05  -3.872075e+04   1.491445e+06  -3.170993e-01  -2.591171e+00  -3.196178e-22   1.525130e+06   3.819679e-41   0.000000e+00   0.000000e+00
      360000   3.599990e-06   1.239061e+00   1.060668e+01   2.614834e+01   3.164059e+05  -3.872075e+04   1.491445e+06  -6.951799e-01  -5.680650e+00  -4.923512e-22   1.525130e+06   1.834579e-40   0.000000e+00   0.000000e+00
      368000   3.679990e-06   1.264374e+00   1.060359e+01   2.626765e+01   3.164059e+05  -3.872075e+04   1.491445e+06  -3.078202e-01  -2.515347e+00  -2.303460e-22   1.525130e+06   3.599443e-41   0.000000e+00   0.000000e+00
      376000   3.759990e-06   1.289686e+00   1.060049e+01   2.638697e+01   3.164059e+05  -3.872075e+04   1.491445e+06  -1.421835e+00  -1.161850e+01   1.859632e-21   1.525130e+06   7.675511e-40   0.000000e+00   0.000000e+00
      384000   3.839990e-06   1.314999e+00   1.059739e+01   2.650628e+01   3.164059e+05  -3.872075e+04   1.491445e+06  -1.144956e+00  -9.355990e+00   7.382052e-22   1.525130e+06   4.977060e-40   0.000000e+00   0.000000e+00
      392000   3.919990e-06   1.340311e+00   1.059429e+01   2.662560e+01   3.164059e+05  -3.872075e+04   1.491445e+06  -2.789287e-01  -2.279261e+00   3.157568e-22   1.525130e+06   2.957117e-41   0.000000e+00   0.000000e+00
      400000   3.999990e-06   1.365623e+00   1.059120e+01   2.674492e+01   3.164059e+05  -3.872075e+04   1.491445e+06  -1.327728e+00  -1.084951e+01  -4.528836e-22   1.525130e+06   6.693051e-40   0.000000e+00   0.000000e+00
      408000   4.079990e-06   1.390936e+00   1.058810e+01   2.686423e+01   3.164059e+05  -3.872075e+04   1.491445e+06   3.703049e-01   3.025940e+00  -2.670797e-22   1.525130e+06   5.203351e-41   0.000000e+00   0.000000e+00
      416000   4.159990e-06   1.416248e+00   1.058500e+01   2.698355e+01   3.164059e+05  -3.872075e+04   1.491445e+06  -1.534541e+00  -1.253948e+01   1.075528e-21   1.525130e+06   8.941983e-40   0.000000e+00   0.000000e+00
      424000   4.239990e-06   1.441561e+00   1.058190e+01   2.710286e+01   3.164059e+05  -3.872075e+04   1.491445e+06  -1.361110e+00  -1.112228e+01  -4.215323e-22   1.525130e+06   7.034989e-40   0.000000e+00   0.000000e+00
      432000   4.319990e-06   1.466873e+00   1.057881e+01   2.722218e+01   3.164059e+05  -3.872075e+04   1.491445e+06  -8.354672e-01  -6.827004e+00  -7.252400e-22   1.525130e+06   2.650684e-40   0.000000e+00   0.000000e+00
      440000   4.399990e-06   1.492186e+00   1.057571e+01   2.734149e+01   3.164059e+05  -3.872075e+04   1.491445e+06  -1.131697e+00  -9.247641e+00   8.360828e-22   1.525130e+06   4.863382e-40   0.000000e+00   0.000000e+00
      448000   4.479990e-06   1.517498e+00   1.057261e+01   2.746081e+01   3.164059e+05  -3.872075e+04   1.491445e+06  -1.656087e+00  -1.353268e+01  -8.433121e-22   1.525130e+06   1.041370e-39   0.000000e+00   0.000000e+00
      456000   4.559990e-06   1.542811e+00   1.056951e+01   2.758012e+01   3.164059e+05  -3.872075e+04   1.491445e+06  -1.550805e+00  -1.267238e+01  -6.105022e-22   1.525130e+06   9.132028e-40   0.000000e+00   0.000000e+00
      464000   4.639990e-06   1.568123e+00   1.056642e+01   2.769944e+01   3.164059e+05  -3.872075e+04   1.491445e+06  -2.607877e+00  -2.131022e+01  -4.630674e-21   1.525130e+06   2.582412e-39   0.000000e+00   0.000000e+00
      472000   4.719990e-06   1.593436e+00   1.056332e+01   2.781876e+01   3.164059e+05  -3.872075e+04   1.491445e+06  -3.048716e+00  -2.491253e+01   1.261977e-21   1.525130e+06   3.529299e-39   0.000000e+00   0.000000e+00
      480000   4.799990e-06   1.618748e+00   1.056022e+01   2.793807e+01   3.164059e+05  -3.872075e+04   1.491445e+06  -9.935545e-01  -8.118812e+00  -1.371259e-21   1.525130e+06   3.747891e-40   0.000000e+00   0.000000e+00
      488000   4.879990e-06   1.644061e+00   1.055712e+01   2.805739e+01   3.164059e+05  -3.872075e+04   1.491445e+06  -1.530887e-01  -1.250962e+00  -1.139141e-25   1.525130e+06   8.914296e-42   0.000000e+00   0.000000e+00
      496000   4.959990e-06   1.669373e+00   1.055402e+01   2.817670e+01   3.164059e+05  -3.872075e+04   1.491445e+06  -1.096937e+00  -8.963601e+00   1.292793e-22   1.525130e+06   4.568499e-40   0.000000e+00   0.000000e+00
      504000   5.039990e-06   1.694686e+00   1.055093e+01   2.829602e+01   3.164059e+05  -3.872075e+04   1.491445e+06   7.406866e-01   6.052507e+00  -3.072604e-22   1.525130e+06   2.082529e-40   0.000000e+00   0.000000e+00
      512000   5.119990e-06   1.719998e+00   1.054783e+01   2.841533e+01   3.164059e+05  -3.872075e+04   1.491445e+06  -5.196108e-01  -4.245990e+00  -3.422652e-23   1.525130e+06   1.024851e-40   0.000000e+00   0.000000e+00
      520000   5.199990e-06   1.745311e+00   1.054473e+01   2.853465e+01   3.164059e+05  -3.872075e+04   1.491445e+06  -5.230807e-01  -4.274344e+00   3.096033e-22   1.525130e+06   1.039348e-40   0.000000e+00   0.000000e+00
      528000   5.279990e-06   1.770623e+00   1.054163e+01   2.865397e+01   3.164059e+05  -3.872075e+04   1.491445e+06  -9.913273e-01  -8.100613e+00  -1.011742e-21   1.525130e+06   3.730944e-40   0.000000e+00   0.000000e+00
      536000   5.359990e-06   1.795935e+00   1.053854e+01   2.877328e+01   3.164059e+05  -3.872075e+04   1.491445e+06  -2.038797e-01  -1.666000e+00   4.385080e-23   1.525130e+06   1.579823e-41   0.000000e+00   0.000000e+00
      544000   5.439990e-06   1.821248e+00   1.053544e+01   2.889260e+01   3.164059e+05  -3.872075e+04   1.491445e+06  -9.164100e-01  -7.488427e+00  -2.453634e-22   1.525130e+06   3.189196e-40   0.000000e+00   0.000000e+00
      552000   5.519990e-06   1.846560e+00   1.053234e+01   2.901191e+01   3.164059e+05  -3.872075e+04   1.491445e+06  -9.700449e-01  -7.926704e+00   7.325621e-22   1.525130e+06   3.573417e-40   0.000000e+00   0.000000e+00
      560000   5.599990e-06   1.871873e+00   1.052924e+01   2.913123e+01   3.164059e+05  -3.872075e+04   1.491445e+06  -8.032826e-01  -6.564009e+00  -5.117027e-22   1.525130e+06   2.450180e-40   0.000000e+00   0.000000e+00
      568000   5.679990e-06   1.897185e+00   1.052615e+01   2.925054e+01   3.164059e+05  -3.872075e+04   1.491445e+06  -7.794373e-01  -6.369157e+00  -9.734862e-22   1.525130e+06   2.307114e-40   0.000000e+00   0.000000e+00
      576000   5.759990e-06   1.922498e+00   1.052305e+01   2.936986e+01   3.164059e+05  -3.872075e+04   1.491445e+06  -1.054331e+00  -8.615443e+00  -1.036851e-22   1.525130e+06   4.220772e-40   0.000000e+00   0.000000e+00
      584000   5.839990e-06   1.947810e+00   1.051995e+01   2.948917e+01   3.164059e+05  -3.872075e+04   1.491445e+06  -9.875883e-02  -8.070060e-01  -2.535758e-23   1.525130e+06   3.709602e-42   0.000000e+00   0.000000e+00
      592000   5.919990e-06   1.973123e+00   1.051685e+01   2.960849e+01   3.164059e+05  -3.872075e+04   1.491445e+06  -2.586391e-01   1.203326e+00   8.611021e-02   1.525130e+06   8.502882e-42   0.000000e+00   0.000000e+00
      600000   5.999990e-06   1.998435e+00   1.051375e+01   2.972781e+01   3.164059e+05  -3.872075e+04   1.491445e+06  -2.775729e+00  -5.492584e+00   4.462653e-01   1.525130e+06   2.133954e-40   0.000000e+00   0.000000e+00
      608000   6.079990e-06   2.023748e+00   1.051066e+01   2.984712e+01   3.164059e+05  -3.872075e+04   1.491445e+06   6.806404e+00  -2.741783e+01  -2.155779e+00   1.525130e+06   4.498021e-39   0.000000e+00   0.000000e+00
      616000   6.159990e-06   2.049060e+00   1.050756e+01   2.996644e+01   3.164059e+05  -3.872075e+04   1.491445e+06  -1.565831e+01   2.318712e+01   3.923848e+00   1.525130e+06   4.469697e-39   0.000000e+00   0.000000e+00
      624000   6.239990e-06   2.074373e+00   1.050446e+01   3.008575e+01   3.164059e+05  -3.872075e+04   1.491445e+06  -2.538523e+00  -9.238955e+00   2.986798e-01   1.525130e+06   5.144015e-40   0.000000e+00   0.000000e+00
      632000   6.319990e-06   2.099685e+00   1.050136e+01   3.020507e+01   3.164059e+05  -3.872075e+04   1.491445e+06  -1.815791e+00  -1.483770e+01  -6.965877e-22   1.525130e+06   1.251624e-39   0.000000e+00   0.000000e+00
      640000   6.399990e-06   2.124998e+00   1.049827e+01   3.032438e+01   3.164059e+05  -3.872075e+04   1.491445e+06  -2.298764e+00  -1.878430e+01  -4.787464e-21   1.525130e+06   2.006808e-39   0.000000e+00   0.000000e+00
      648000   6.479990e-06   2.150310e+00   1.049517e+01   3.044370e+01   3.164059e+05  -3.872075e+04   1.491445e+06  -2.701848e+00  -2.207810e+01  -4.389198e-21   1.525130e+06   2.771666e-39   0.000000e+00   0.000000e+00
      656000   6.559990e-06   2.175623e+00   1.049207e+01   3.056301e+01   3.164059e+05  -3.872075e+04   1.491445e+06  -2.158301e+00  -1.763652e+01  -1.349621e-21   1.525130e+06   1.769067e-39   0.000000e+00   0.000000e+00
      664000   6.639990e-06   2.200935e+00   1.048897e+01   3.068233e+01   3.164059e+05  -3.872075e+04   1.491445e+06  -2.265947e+00  -1.851615e+01  -1.134238e-21   1.525130e+06   1.949702e-39   0.000000e+00   0.000000e+00
      672000   6.719990e-06   2.226247e+00   1.048588e+01   3.080165e+01   3.164059e+05  -3.872075e+04   1.491445e+06  -2.144714e+00  -1.752549e+01  -3.543450e-21   1.525130e+06   1.746656e-39   0.000000e+00   0.000000e+00
      680000   6.799990e-06   2.251560e+00   1.048278e+01   3.092096e+01   3.164059e+05  -3.872075e+04   1.491445e+06  -9.411736e-01  -7.690783e+00  -8.550122e-22   1.525130e+06   3.363871e-40   0.000000e+00   0.000000e+00
      688000   6.879990e-06   2.276872e+00   1.047968e+01   3.104028e+01   3.164059e+05  -3.872075e+04   1.491445e+06  -2.106375e+00  -1.721220e+01   1.035428e-21   1.525130e+06   1.684766e-39   0.000000e+00   0.000000e+00
      696000   6.959990e-06   2.302185e+00   1.047658e+01   3.115959e+01   3.164059e+05  -3.872075e+04   1.491445e+06  -8.130655e-01  -6.643949e+00  -1.079471e-21   1.525130e+06   2.509768e-40   0.000000e+00   0.000000e+00
      704000   7.039990e-06   2.327497e+00   1.047349e+01   3.127891e+01   3.164059e+05  -3.872075e+04   1.491445e+06  -9.086900e-01  -7.425343e+00   2.744901e-22   1.525130e+06   3.135723e-40   0.000000e+00   0.000000e+00
      712000   7.119990e-06   2.352810e+00   1.047039e+01   3.139822e+01   3.164059e+05  -3.872075e+04   1.491445e+06  -1.469917e+00  -1.201140e+01  -2.122662e-21   1.525130e+06   8.203676e-40   0.000000e+00   0.000000e+00
      720000   7.199990e-06   2.378122e+00   1.046729e+01   3.151754e+01   3.164059e+05  -3.872075e+04   1.491445e+06  -1.452130e+00  -1.186605e+01  -6.793221e-22   1.525130e+06   8.006324e-40   0.000000e+00   0.000000e+00
      728000   7.279990e-06   2.403435e+00   1.046419e+01   3.163686e+01   3.164059e+05  -3.872075e+04   1.491445e+06  -1.294032e+00  -1.057416e+01  -2.401278e-21   1.525130e+06   6.358569e-40   0.000000e+00   0.000000e+00
      736000   7.359990e-06   2.428747e+00   1.046109e+01   3.175617e+01   3.164059e+05  -3.872075e+04   1.491445e+06  -9.441402e-01  -7.715024e+00  -9.978560e-22   1.525130e+06   3.385135e-40   0.000000e+00   0.000000e+00
      744000   7.439990e-06   2.454060e+00   1.045800e+01   3.187549e+01   3.164059e+05  -3.872075e+04   1.491445e+06  -1.076429e+00  -8.796023e+00  -8.649402e-22   1.525130e+06   4.399870e-40   0.000000e+00   0.000000e+00
      752000   7.519990e-06   2.479372e+00   1.045490e+01   3.199480e+01   3.164059e+05  -3.872075e+04   1.491445e+06  -7.098180e-01  -5.800264e+00  -1.632528e-21   1.525130e+06   1.913405e-40   0.000000e+00   0.000000e+00
      760000   7.599990e-06   2.504685e+00   1.045180e+01   3.211412e+01   3.164059e+05  -3.872075e+04   1.491445e+06  -9.337509e-01  -7.630128e+00  -8.767225e-22   1.525130e+06   3.311231e-40   0.000000e+00   0.000000e+00
      768000   7.679990e-06   2.529997e+00   1.044870e+01   3.223343e+01   3.164059e+05  -3.872075e+04   1.491445e+06  -1.301883e+00  -1.063831e+01   1.204813e-21   1.525130e+06   6.435665e-40   0.000000e+00   0.000000e+00
      776000   7.759990e-06   2.555310e+00   1.044561e+01   3.235275e+01   3.164059e+05  -3.872075e+04   1.491445e+06  -5.617311e-01  -4.590175e+00  -3.783290e-22   1.525130e+06   1.198452e-40   0.000000e+00   0.000000e+00
      784000   7.839990e-06   2.580622e+00   1.044251e+01   3.247206e+01   3.164059e+05  -3.872075e+04   1.491445e+06  -1.280779e+00  -1.046586e+01   8.072935e-22   1.525130e+06   6.228707e-40   0.000000e+00   0.000000e+00
      792000   7.919990e-06   2.605935e+00   1.043941e+01   3.259138e+01   3.164059e+05  -3.872075e+04   1.491445e+06  -1.150152e+00  -9.398449e+00  -2.557929e-21   1.525130e+06   5.022979e-40   0.000000e+00   0.000000e+00
      800000   7.999990e-06   2.631247e+00   1.043631e+01   3.271070e+01   3.164059e+05  -3.872075e+04   1.491445e+06  -1.172853e+00  -9.583944e+00   3.264279e-22   1.525130e+06   5.223215e-40   0.000000e+00   0.000000e+00
      808000   8.079990e-06   2.656559e+00   1.043322e+01   3.283001e+01   3.164059e+05  -3.872075e+04   1.491445e+06  -1.581686e+00  -1.292471e+01   1.154822e-21   1.525130e+06   9.499644e-40   0.000000e+00   0.000000e+00
      816000   8.159990e-06   2.681872e+00   1.043012e+01   3.294933e+01   3.164059e+05  -3.872075e+04   1.491445e+06  -1.429815e+00  -1.168371e+01  -1.322998e-21   1.525130e+06   7.762732e-40   0.000000e+00   0.000000e+00
      824000   8.239990e-06   2.707184e+00   1.042702e+01   3.306864e+01   3.164059e+05  -3.872075e+04   1.491445e+06  -1.297807e+00  -1.060501e+01  -2.955036e-21   1.525130e+06   6.396625e-40   0.000000e+00   0.000000e+00
      832000   8.319990e-06   2.732497e+00   1.042392e+01   3.318796e+01   3.164059e+05  -3.872075e+04   1.491445e+06  -1.739470e+00  -1.421405e+01  -2.804747e-21   1.525130e+06   1.148871e-39   0.000000e+00   0.000000e+00
      840000   8.399990e-06   2.757809e+00   1.042083e+01   3.330727e+01   3.164059e+05  -3.872075e+04   1.491445e+06  -1.293527e+00  -1.057003e+01  -1.360452e-21   1.525130e+06   6.352961e-40   0.000000e+00   0.000000e+00
      848000   8.479990e-06   2.783122e+00   1.041773e+01   3.342659e+01   3.164059e+05  -3.872075e+04   1.491445e+06  -1.244464e+00  -1.016912e+01  -1.570004e-21   1.525130e+06   5.881634e-40   0.000000e+00   0.000000e+00
      856000   8.559990e-06   2.808434e+00   1.041463e+01   3.354590e+01   3.164059e+05  -3.872075e+04   1.491445e+06  -1.224989e+00  -1.000998e+01  -6.527661e-22   1.525130e+06   5.697769e-40   0.000000e+00   0.000000e+00
      864000   8.639990e-06   2.833747e+00   1.041153e+01   3.366522e+01   3.164059e+05  -3.872075e+04   1.491445e+06  -1.029623e+00  -8.413549e+00  -1.271095e-21   1.525130e+06   4.025846e-40   0.000000e+00   0.000000e+00
      872000   8.719990e-06   2.859059e+00   1.040843e+01   3.378454e+01   3.164059e+05  -3.872075e+04   1.491445e+06  -1.504327e+00  -1.229258e+01  -1.247153e-21   1.525130e+06   8.592719e-40   0.000000e+00   0.000000e+00
      880000   8.799990e-06   2.884372e+00   1.040534e+01   3.390385e+01   3.164059e+05  -3.872075e+04   1.491445e+06  -1.417033e+00  -1.157926e+01  -9.553456e-22   1.525130e+06   7.624375e-40   0.000000e+00   0.000000e+00
      888000   8.879990e-06   2.909684e+00   1.040224e+01   3.402317e+01   3.164059e+05  -3.872075e+04   1.491445e+06  -1.275922e+00  -1.042617e+01   1.745255e-21   1.525130e+06   6.181609e-40   0.000000e+00   0.000000e+00
      896000   8.959990e-06   2.934997e+00   1.039914e+01   3.414248e+01   3.164059e+05  -3.872075e+04   1.491445e+06  -7.596908e-01  -6.207799e+00  -6.040465e-23   1.525130e+06   2.192418e-40   0.000000e+00   0.000000e+00
      904000   9.039990e-06   2.960309e+00   1.039604e+01   3.426180e+01   3.164059e+05  -3.872075e+04   1.491445e+06  -1.635734e+00  -1.336637e+01  -1.393060e-21   1.525130e+06   1.015864e-39   0.000000e+00   0.000000e+00
      912000   9.119990e-06   2.985622e+00   1.039295e+01   3.438111e+01   3.164059e+05  -3.872075e+04   1.491445e+06   5.492991e-02   4.488587e-01  -1.412981e-23   1.525130e+06   1.139300e-42   0.000000e+00   0.000000e+00
      920000   9.199990e-06   3.010934e+00   1.038985e+01   3.450043e+01   3.164059e+05  -3.872075e+04   1.491445e+06  -2.475883e-01  -2.023163e+00   9.462347e-23   1.525130e+06   2.327259e-41   0.000000e+00   0.000000e+00
      928000   9.279990e-06   3.036247e+00   1.038675e+01   3.461975e+01   3.164059e+05  -3.872075e+04   1.491445e+06  -1.130970e+00  -9.241699e+00   9.707446e-22   1.525130e+06   4.857025e-40   0.000000e+00   0.000000e+00
      936000   9.359990e-06   3.061559e+00   1.038365e+01   3.473906e+01   3.164059e+05  -3.872075e+04   1.491445e+06  -6.083706e-01  -4.971289e+00   3.509576e-22   1.525130e+06   1.405313e-40   0.000000e+00   0.000000e+00
      944000   9.439990e-06   3.086871e+00   1.038056e+01   3.485838e+01   3.164059e+05  -3.872075e+04   1.491445e+06  -1.260634e+00  -1.030125e+01   7.047038e-22   1.525130e+06   6.034581e-40   0.000000e+00   0.000000e+00
      952000   9.519990e-06   3.112184e+00   1.037746e+01   3.497769e+01   3.164059e+05  -3.872075e+04   1.491445e+06  -1.318238e+00  -1.077196e+01   1.613981e-21   1.525130e+06   6.599341e-40   0.000000e+00   0.000000e+00
      960000   9.599990e-06   3.137496e+00   1.037436e+01   3.509701e+01   3.164059e+05  -3.872075e+04   1.491445e+06  -9.322804e-01  -7.618112e+00   2.574611e-22   1.525130e+06   3.300307e-40   0.000000e+00   0.000000e+00
      968000   9.679990e-06   3.162809e+00   1.037126e+01   3.521632e+01   3.164059e+05  -3.872075e+04   1.491445e+06  -4.469101e-01  -3.651918e+00   4.115993e-22   1.525130e+06   7.583842e-41   0.000000e+00   0.000000e+00
      976000   9.759990e-06   3.188121e+00   1.036816e+01   3.533564e+01   3.164059e+05  -3.872075e+04   1.491445e+06  -1.015880e+00  -8.301247e+00  -2.334376e-22   1.525130e+06   3.919314e-40   0.000000e+00   0.000000e+00
      984000   9.839990e-06   3.213434e+00   1.036507e+01   3.545495e+01   3.164059e+05  -3.872075e+04   1.491445e+06  -1.538675e+00  -1.257325e+01   4.336891e-22   1.525130e+06   8.988412e-40   0.000000e+00   0.000000e+00
      992000   9.919990e-06   3.238746e+00   1.036197e+01   3.557427e+01   3.164059e+05  -3.872075e+04   1.491445e+06  -3.854424e-01  -3.149635e+00  -9.396273e-23   1.525130e+06   5.644370e-41   0.000000e+00   0.000000e+00
     1000000   9.999990e-06   3.264059e+00   1.035887e+01   3.569359e+01   3.164059e+05  -3.872075e+04   1.491445e+06  -2.371962e+00  -1.938244e+01   1.038877e-21   1.525130e+06   2.136160e-39   0.000000e+00   0.000000e+00
     1008000   1.007999e-05   3.289371e+00   1.035577e+01   3.581290e+01   3.164059e+05  -3.872075e+04   1.491445e+06  -2.021538e+00  -1.651896e+01   2.941596e-21   1.525130e+06   1.551576e-39   0.000000e+00   0.000000e+00
     1016000   1.015999e-05   3.314684e+00   1.035268e+01   3.593222e+01   3.164059e+05  -3.872075e+04   1.491445e+06  -1.999142e+00  -1.633595e+01  -5.077482e-22   1.525130e+06   1.517607e-39   0.000000e+00   0.000000e+00
     1024000   1.023999e-05   3.339996e+00   1.034958e+01   3.605153e+01   3.164059e+05  -3.872075e+04   1.491445e+06  -2.071292e+00  -1.692553e+01   2.423042e-21   1.525130e+06   1.629119e-39   0.000000e+00   0.000000e+00
     1032000   1.031999e-05   3.365309e+00   1.034648e+01   3.617085e+01   3.164059e+05  -3.872075e+04   1.491445e+06  -2.033096e+00  -1.661341e+01   9.473145e-22   1.525130e+06   1.569596e-39   0.000000e+00   0.000000e+00
     1040000   1.039999e-05   3.390621e+00   1.034338e+01   3.629016e+01   3.164059e+05  -3.872075e+04   1.491445e+06  -2.162706e+00  -1.767251e+01  -8.599365e-23   1.525130e+06   1.776091e-39   0.000000e+00   0.000000e+00
     1048000   1.047999e-05   3.415934e+00   1.034029e+01   3.640948e+01   3.164059e+05  -3.872075e+04   1.491445e+06  -1.393650e+00  -1.138818e+01   1.579013e-21   1.525130e+06   7.375702e-40   0.000000e+00   0.000000e+00
     1056000   1.055999e-05   3.441246e+00   1.033719e+01   3.652879e+01   3.164059e+05  -3.872075e+04   1.491445e+06  -8.400776e-01  -6.864678e+00  -5.671099e-22   1.525130e+06   2.679922e-40   0.000000e+00   0.000000e+00
     1064000   1.063999e-05   3.466559e+00   1.033409e+01   3.664811e+01   3.164059e+05  -3.872075e+04   1.491445e+06  -1.006822e+00  -8.227225e+00   1.389378e-22   1.525130e+06   3.849551e-40   0.000000e+00   0.000000e+00
     1072000   1.071999e-05   3.491871e+00   1.033099e+01   3.676743e+01   3.164059e+05  -3.872075e+04   1.491445e+06  -4.615225e-01  -3.771323e+00  -2.004762e-22   1.525130e+06   8.088686e-41   0.000000e+00   0.000000e+00
     1080000   1.079999e-05   3.517183e+00   1.032790e+01   3.688674e+01   3.164059e+05  -3.872075e+04   1.491445e+06  -1.023962e+00  -8.367288e+00   1.154835e-21   1.525130e+06   3.981586e-40   0.000000e+00   0.000000e+00
     1088000   1.087999e-05   3.542496e+00   1.032480e+01   3.700606e+01   3.164059e+05  -3.872075e+04   1.491445e+06  -1.527557e+00  -1.248241e+01   2.365605e-21   1.525130e+06   8.860905e-40   0.000000e+00   0.000000e+00
     1096000   1.095999e-05   3.567808e+00   1.032170e+01   3.712537e+01   3.164059e+05  -3.872075e+04   1.491445e+06  -1.248962e+00  -1.020587e+01  -1.383552e-22   1.525130e+06   5.922821e-40   0.000000e+00   0.000000e+00
     1104000   1.103999e-05   3.593121e+00   1.031860e+01   3.724469e+01   3.164059e+05  -3.872075e+04   1.491445e+06  -1.883745e+00  -1.539299e+01  -1.039524e-22   1.525130e+06   1.347490e-39   0.000000e+00   0.000000e+00
     1112000   1.111999e-05   3.618433e+00   1.031550e+01   3.736400e+01   3.164059e+05  -3.872075e+04   1.491445e+06  -1.833012e+00  -1.497842e+01  -1.260810e-21   1.525130e+06   1.275706e-39   0.000000e+00   0.000000e+00
     1120000   1.119999e-05   3.643746e+00   1.031241e+01   3.748332e+01   3.164059e+05  -3.872075e+04   1.491445e+06  -7.539970e-01  -6.161272e+00  -6.082797e-22   1.525130e+06   2.159730e-40   0.000000e+00   0.000000e+00
     1128000   1.127999e-05   3.669058e+00   1.030931e+01   3.760263e+01   3.164059e+05  -3.872075e+04   1.491445e+06  -1.144567e+00  -9.352808e+00  -4.645673e-22   1.525130e+06   4.975980e-40   0.000000e+00   0.000000e+00
     1136000   1.135999e-05   3.694371e+00   1.030621e+01   3.772195e+01   3.164059e+05  -3.872075e+04   1.491445e+06  -1.118253e+00  -9.137786e+00   8.348890e-22   1.525130e+06   4.747517e-40   0.000000e+00   0.000000e+00
     1144000   1.143999e-05   3.719683e+00   1.030311e+01   3.784127e+01   3.164059e+05  -3.872075e+04   1.491445e+06  -9.632229e-01  -7.870958e+00  -2.540055e-22   1.525130e+06   3.522951e-40   0.000000e+00   0.000000e+00
     1152000   1.151999e-05   3.744996e+00   1.030002e+01   3.796058e+01   3.164059e+05  -3.872075e+04   1.491445e+06  -1.599076e+00  -1.306682e+01  -4.466272e-22   1.525130e+06   9.709231e-40   0.000000e+00   0.000000e+00
     1160000   1.159999e-05   3.770308e+00   1.029692e+01   3.807990e+01   3.164059e+05  -3.872075e+04   1.491445e+06   7.566019e-01   6.182558e+00   3.517818e-22   1.525130e+06   2.172890e-40   0.000000e+00   0.000000e+00
     1168000   1.167999e-05   3.795621e+00   1.029382e+01   3.819921e+01   3.164059e+05  -3.872075e+04   1.491445e+06   1.803392e-01   1.473639e+00   2.389432e-22   1.525130e+06   1.235618e-41   0.000000e+00   0.000000e+00
     1176000   1.175999e-05   3.820933e+00   1.029072e+01   3.831853e+01   3.164059e+05  -3.872075e+04   1.491445e+06  -3.020022e+00  -2.467805e+01   1.979045e-21   1.525130e+06   3.462800e-39   0.000000e+00   0.000000e+00
     1184000   1.183999e-05   3.846246e+00   1.028763e+01   3.843784e+01   3.164059e+05  -3.872075e+04   1.491445e+06  -1.379877e+00  -1.127564e+01  -8.602369e-22   1.525130e+06   7.231561e-40   0.000000e+00   0.000000e+00
     1192000   1.191999e-05   3.871558e+00   1.028453e+01   3.855716e+01   3.164059e+05  -3.872075e+04   1.491445e+06  -4.629268e+00  -3.782798e+01   4.902132e-21   1.525130e+06   8.136820e-39   0.000000e+00   0.000000e+00
     1200000   1.199999e-05   3.896871e+00   1.028143e+01   3.867648e+01   3.164059e+05  -3.872075e+04   1.491445e+06  -1.401093e+00  -1.144900e+01  -4.683492e-21   1.525130e+06   7.455621e-40   0.000000e+00   0.000000e+00
     1208000   1.207999e-05   3.922183e+00   1.027833e+01   3.879579e+01   3.164059e+05  -3.872075e+04   1.491445e+06  -1.101738e+00  -9.002831e+00  -1.605015e-22   1.525130e+06   4.610588e-40   0.000000e+00   0.000000e+00
     1216000   1.215999e-05   3.947495e+00   1.027524e+01   3.891511e+01   3.164059e+05  -3.872075e+04   1.491445e+06  -1.490576e+00  -1.218022e+01  -2.531446e-22   1.525130e+06   8.438689e-40   0.000000e+00   0.000000e+00
     1224000   1.223999e-05   3.972808e+00   1.027214e+01   3.903442e+01   3.164059e+05  -3.872075e+04   1.491445e+06  -1.430700e+00  -1.169094e+01  -1.130628e-21   1.525130e+06   7.771428e-40   0.000000e+00   0.000000e+00
     1232000   1.231999e-05   3.998120e+00   1.026904e+01   3.915374e+01   3.164059e+05  -3.872075e+04   1.491445e+06  -5.894524e-01  -4.816699e+00   1.017649e-22   1.525130e+06   1.320102e-40   0.000000e+00   0.000000e+00
     1240000   1.239999e-05   4.023433e+00   1.026594e+01   3.927305e+01   3.164059e+05  -3.872075e+04   1.491445e+06  -1.489537e+00  -1.217173e+01   1.545523e-21   1.525130e+06   8.424942e-40   0.000000e+00   0.000000e+00
     1248000   1.247999e-05   4.048745e+00   1.026284e+01   3.939237e+01   3.164059e+05  -3.872075e+04   1.491445e+06  -1.166913e+00  -9.535409e+00  -1.446060e-21   1.525130e+06   5.170785e-40   0.000000e+00   0.000000e+00
     1256000   1.255999e-05   4.074058e+00   1.025975e+01   3.951168e+01   3.164059e+05  -3.872075e+04   1.491445e+06  -1.214134e+00  -9.921277e+00   8.282918e-22   1.525130e+06   5.597740e-40   0.000000e+00   0.000000e+00
     1264000   1.263999e-05   4.099370e+00   1.025665e+01   3.963100e+01   3.164059e+05  -3.872075e+04   1.491445e+06  -1.594271e+00  -1.302755e+01  -2.537645e-23   1.525130e+06   9.651370e-40   0.000000e+00   0.000000e+00
     1272000   1.271999e-05   4.124683e+00   1.025355e+01   3.975032e+01   3.164059e+05  -3.872075e+04   1.491445e+06  -2.113000e+00  -1.726634e+01  -4.096384e-22   1.525130e+06   1.695344e-39   0.000000e+00   0.000000e+00
     1280000   1.279999e-05   4.149995e+00   1.025045e+01   3.986963e+01   3.164059e+05  -3.872075e+04   1.491445e+06  -1.357310e+00  -1.109123e+01  -6.843748e-22   1.525130e+06   6.996012e-40   0.000000e+00   0.000000e+00
     1288000   1.287999e-05   4.175308e+00   1.024736e+01   3.998895e+01   3.164059e+05  -3.872075e+04   1.491445e+06  -2.325424e+00  -1.900216e+01  -7.366259e-23   1.525130e+06   2.053357e-39   0.000000e+00   0.000000e+00
     1296000   1.295999e-05   4.200620e+00   1.024426e+01   4.010826e+01   3.164059e+05  -3.872075e+04   1.491445e+06  -1.562031e+00  -1.276411e+01  -1.328094e-21   1.525130e+06   9.265961e-40   0.000000e+00   0.000000e+00
     1304000   1.303999e-05   4.225933e+00   1.024116e+01   4.022758e+01   3.164059e+05  -3.872075e+04   1.491445e+06  -1.949915e+00  -1.593369e+01   2.890369e-22   1.525130e+06   1.443635e-39   0.000000e+00   0.000000e+00
     1312000   1.311999e-05   4.251245e+00   1.023806e+01   4.034689e+01   3.164059e+05  -3.872075e+04   1.491445e+06  -1.422641e+00  -1.162508e+01   1.855426e-21   1.525130e+06   7.686088e-40   0.000000e+00   0.000000e+00
     1320000   1.319999e-05   4.276558e+00   1.023497e+01   4.046621e+01   3.164059e+05  -3.872075e+04   1.491445e+06  -2.645143e+00  -2.161474e+01  -1.654996e-21   1.525130e+06   2.656665e-39   0.000000e+00   0.000000e+00
     1328000   1.327999e-05   4.301870e+00   1.023187e+01   4.058552e+01   3.164059e+05  -3.872075e+04   1.491445e+06  -2.065272e+00  -1.687633e+01   5.696077e-23   1.525130e+06   1.619536e-39   0.000000e+00   0.000000e+00
     1336000   1.335999e-05   4.327183e+00   1.022877e+01   4.070484e+01   3.164059e+05  -3.872075e+04   1.491445e+06  -1.672105e+00  -1.366358e+01   1.087993e-21   1.525130e+06   1.061585e-39   0.000000e+00   0.000000e+00
     1344000   1.343999e-05   4.352495e+00   1.022567e+01   4.082416e+01   3.164059e+05  -3.872075e+04   1.491445e+06  -1.967784e+00  -1.607971e+01  -1.692488e-22   1.525130e+06   1.470500e-39   0.000000e+00   0.000000e+00
     1352000   1.351999e-05   4.377807e+00   1.022257e+01   4.094347e+01   3.164059e+05  -3.872075e+04   1.491445e+06  -1.973321e+00  -1.612495e+01  -2.172334e-21   1.525130e+06   1.478529e-39   0.000000e+00   0.000000e+00
     1360000   1.359999e-05   4.403120e+00   1.021948e+01   4.106279e+01   3.164059e+05  -3.872075e+04   1.491445e+06  -1.710743e+00  -1.397931e+01  -2.997888e-22   1.525130e+06   1.111425e-39   0.000000e+00   0.000000e+00
     1368000   1.367999e-05   4.428432e+00   1.021638e+01   4.118210e+01   3.164059e+05  -3.872075e+04   1.491445e+06  -1.931282e+00  -1.578143e+01  -2.619067e-21   1.525130e+06   1.416290e-39   0.000000e+00   0.000000e+00
     1376000   1.375999e-05   4.453745e+00   1.021328e+01   4.130142e+01   3.164059e+05  -3.872075e+04   1.491445e+06  -1.627907e+00  -1.330241e+01   1.259681e-22   1.525130e+06   1.006277e-39   0.000000e+00   0.000000e+00
     1384000   1.383999e-05   4.479057e+00   1.021018e+01   4.142073e+01   3.164059e+05  -3.872075e+04   1.491445e+06  -9.541274e-01  -7.796634e+00   1.203623e-22   1.525130e+06   3.457427e-40   0.000000e+00   0.000000e+00
     1392000   1.391999e-05   4.504370e+00   1.020709e+01   4.154005e+01   3.164059e+05  -3.872075e+04   1.491445e+06  -1.263511e+00  -1.032476e+01  -5.045520e-22   1.525130e+06   6.062961e-40   0.000000e+00   0.000000e+00
     1400000   1.399999e-05   4.529682e+00   1.020399e+01   4.165937e+01   3.164059e+05  -3.872075e+04   1.491445e+06  -1.602596e+00  -1.309558e+01   2.778593e-23   1.525130e+06   9.751148e-40   0.000000e+00   0.000000e+00
     1408000   1.407999e-05   4.554995e+00   1.020089e+01   4.177868e+01   3.164059e+05  -3.872075e+04   1.491445e+06  -1.232076e+00  -1.006789e+01  -5.393623e-22   1.525130e+06   5.765050e-40   0.000000e+00   0.000000e+00
     1416000   1.415999e-05   4.580307e+00   1.019779e+01   4.189800e+01   3.164059e+05  -3.872075e+04   1.491445e+06  -7.287083e-01  -5.954626e+00  -5.063406e-22   1.525130e+06   2.016530e-40   0.000000e+00   0.000000e+00
     1424000   1.423999e-05   4.605620e+00   1.019470e+01   4.201731e+01   3.164059e+05  -3.872075e+04   1.491445e+06  -1.942002e+00  -1.586903e+01  -3.125719e-21   1.525130e+06   1.432080e-39   0.000000e+00   0.000000e+00
     1432000   1.431999e-05   4.630932e+00   1.019160e+01   4.213663e+01   3.164059e+05  -3.872075e+04   1.491445e+06  -1.919149e+00  -1.568229e+01  -1.840514e-21   1.525130e+06   1.398590e-39   0.000000e+00   0.000000e+00
     1440000   1.439999e-05   4.656245e+00   1.018850e+01   4.225594e+01   3.164059e+05  -3.872075e+04   1.491445e+06  -2.053886e+00  -1.678329e+01  -2.890355e-21   1.525130e+06   1.601847e-39   0.000000e+00   0.000000e+00
     1448000   1.447999e-05   4.681557e+00   1.018540e+01   4.237526e+01   3.164059e+05  -3.872075e+04   1.491445e+06  -1.963298e+00  -1.604305e+01  -1.384982e-21   1.525130e+06   1.463677e-39   0.000000e+00   0.000000e+00
     1456000   1.455999e-05   4.706870e+00   1.018231e+01   4.249457e+01   3.164059e+05  -3.872075e+04   1.491445e+06  -2.107581e+00  -1.722206e+01  -2.054763e-21   1.525130e+06   1.686720e-39   0.000000e+00   0.000000e+00
     1464000   1.463999e-05   4.732182e+00   1.017921e+01   4.261389e+01   3.164059e+05  -3.872075e+04   1.491445e+06  -2.224737e+00  -1.817940e+01   1.606154e-23   1.525130e+06   1.879453e-39   0.000000e+00   0.000000e+00
     1472000   1.471999e-05   4.757495e+00   1.017611e+01   4.273321e+01   3.164059e+05  -3.872075e+04   1.491445e+06  -1.842506e+00  -1.505600e+01  -3.496618e-21   1.525130e+06   1.289082e-39   0.000000e+00   0.000000e+00
     1480000   1.479999e-05   4.782807e+00   1.017301e+01   4.285252e+01   3.164059e+05  -3.872075e+04   1.491445e+06  -2.308143e+00  -1.886094e+01  -4.495203e-21   1.525130e+06   2.023017e-39   0.000000e+00   0.000000e+00
     1488000   1.487999e-05   4.808119e+00   1.016991e+01   4.297184e+01   3.164059e+05  -3.872075e+04   1.491445e+06  -1.799886e+00  -1.470773e+01  -8.466112e-22   1.525130e+06   1.230162e-39   0.000000e+00   0.000000e+00
     1496000   1.495999e-05   4.833432e+00   1.016682e+01   4.309115e+01   3.164059e+05  -3.872075e+04   1.491445e+06  -2.175464e+00  -1.777676e+01  -2.498437e-21   1.525130e+06   1.797127e-39   0.000000e+00   0.000000e+00
     1504000   1.503999e-05   4.858744e+00   1.016372e+01   4.321047e+01   3.164059e+05  -3.872075e+04   1.491445e+06  -2.266379e+00  -1.851967e+01  -1.840190e-21   1.525130e+06   1.950473e-39   0.000000e+00   0.000000e+00
     1512000   1.511999e-05   4.884057e+00   1.016062e+01   4.332978e+01   3.164059e+05  -3.872075e+04   1.491445e+06  -1.524642e+00  -1.245858e+01  -1.373350e-21   1.525130e+06   8.826895e-40   0.000000e+00   0.000000e+00
     1520000   1.519999e-05   4.909369e+00   1.015752e+01   4.344910e+01   3.164059e+05  -3.872075e+04   1.491445e+06  -1.362179e+00  -1.113102e+01  -9.246537e-22   1.525130e+06   7.046864e-40   0.000000e+00   0.000000e+00
     1528000   1.527999e-05   4.934682e+00   1.015443e+01   4.356841e+01   3.164059e+05  -3.872075e+04   1.491445e+06  -2.167239e+00  -1.770956e+01  -6.632440e-22   1.525130e+06   1.783384e-39   0.000000e+00   0.000000e+00
     1536000   1.535999e-05   4.959994e+00   1.015133e+01   4.368773e+01   3.164059e+05  -3.872075e+04   1.491445e+06  -1.163593e+00  -9.508275e+00   3.471053e-22   1.525130e+06   5.142079e-40   0.000000e+00   0.000000e+00
     1544000   1.543999e-05   4.985307e+00   1.014823e+01   4.380705e+01   3.164059e+05  -3.872075e+04   1.491445e+06  -1.652890e+00  -1.350656e+01  -3.863919e-21   1.525130e+06   1.037542e-39   0.000000e+00   0.000000e+00
     1552000   1.551999e-05   5.010619e+00   1.014513e+01   4.392636e+01   3.164059e+05  -3.872075e+04   1.491445e+06  -2.067473e+00  -1.689431e+01  -4.114336e-21   1.525130e+06   1.623138e-39   0.000000e+00   0.000000e+00
     1560000   1.559999e-05   5.035932e+00   1.014204e+01   4.404568e+01   3.164059e+05  -3.872075e+04   1.491445e+06  -2.007887e+00  -1.640741e+01  -2.593716e-22   1.525130e+06   1.530942e-39   0.000000e+00   0.000000e+00
     1568000   1.567999e-05   5.061244e+00   1.013894e+01   4.416499e+01   3.164059e+05  -3.872075e+04   1.491445e+06  -1.881712e+00  -1.537637e+01  -4.648467e-22   1.525130e+06   1.344567e-39   0.000000e+00   0.000000e+00
     1576000   1.575999e-05   5.086557e+00   1.013584e+01   4.428431e+01   3.164059e+05  -3.872075e+04   1.491445e+06  -1.782078e+00  -1.456222e+01  -3.030935e-21   1.525130e+06   1.205965e-39   0.000000e+00   0.000000e+00
     1584000   1.583999e-05   5.111869e+00   1.013274e+01   4.440362e+01   3.164059e+05  -3.872075e+04   1.491445e+06  -1.758792e+00  -1.437193e+01  -3.122070e-21   1.525130e+06   1.174626e-39   0.000000e+00   0.000000e+00
     1592000   1.591999e-05   5.137182e+00   1.012964e+01   4.452294e+01   3.164059e+05  -3.872075e+04   1.491445e+06  -1.637325e+00  -1.337937e+01  -2.702552e-21   1.525130e+06   1.017987e-39   0.000000e+00   0.000000e+00
     1600000   1.599999e-05   5.162494e+00   1.012655e+01   4.464226e+01   3.164059e+05  -3.872075e+04   1.491445e+06  -1.837658e+00  -1.501639e+01  -4.588154e-21   1.525130e+06   1.282331e-39   0.000000e+00   0.000000e+00
     1608000   1.607999e-05   5.187807e+00   1.012345e+01   4.476157e+01   3.164059e+05  -3.872075e+04   1.491445e+06  -1.631823e+00  -1.333441e+01  -1.698919e-21   1.525130e+06   1.011157e-39   0.000000e+00   0.000000e+00
     1616000   1.615999e-05   5.213119e+00   1.012035e+01   4.488089e+01   3.164059e+05  -3.872075e+04   1.491445e+06  -1.737178e+00  -1.419532e+01   1.588035e-22   1.525130e+06   1.145971e-39   0.000000e+00   0.000000e+00
     1624000   1.623999e-05   5.238431e+00   1.011725e+01   4.500020e+01   3.164059e+05  -3.872075e+04   1.491445e+06  -1.982996e+00  -1.620401e+01  -2.554366e-21   1.525130e+06   1.493231e-39   0.000000e+00   0.000000e+00
     1632000   1.631999e-05   5.263744e+00   1.011416e+01   4.511952e+01   3.164059e+05  -3.872075e+04   1.491445e+06  -2.153183e+00  -1.759469e+01  -8.568941e-22   1.525130e+06   1.760417e-39   0.000000e+00   0.000000e+00
     1640000   1.639999e-05   5.289056e+00   1.011106e+01   4.523883e+01   3.164059e+05  -3.872075e+04   1.491445e+06  -2.034231e+00  -1.662268e+01  -2.973225e-21   1.525130e+06   1.571388e-39   0.000000e+00   0.000000e+00
     1648000   1.647999e-05   5.314369e+00   1.010796e+01   4.535815e+01   3.164059e+05  -3.872075e+04   1.491445e+06  -2.105806e+00  -1.720755e+01  -1.048019e-23   1.525130e+06   1.683891e-39   0.000000e+00   0.000000e+00
     1656000   1.655999e-05   5.339681e+00   1.010486e+01   4.547746e+01   3.164059e+05  -3.872075e+04   1.491445e+06  -1.999790e+00  -1.634125e+01  -4.445041e-21   1.525130e+06   1.518597e-39   0.000000e+00   0.000000e+00
     1664000   1.663999e-05   5.364994e+00   1.010177e+01   4.559678e+01   3.164059e+05  -3.872075e+04   1.491445e+06  -2.011718e+00  -1.643871e+01  -2.183058e-21   1.525130e+06   1.536780e-39   0.000000e+00   0.000000e+00
     1672000   1.671999e-05   5.390306e+00   1.009867e+01   4.571610e+01   3.164059e+05  -3.872075e+04   1.491445e+06  -2.095558e+00  -1.712381e+01   5.011913e-22   1.525130e+06   1.667516e-39   0.000000e+00   0.000000e+00
     1680000   1.679999e-05   5.415619e+00   1.009557e+01   4.583541e+01   3.164059e+05  -3.872075e+04   1.491445e+06  -1.895292e+00  -1.548734e+01  -4.187637e-23   1.525130e+06   1.363989e-39   0.000000e+00   0.000000e+00
     1688000   1.687999e-05   5.440931e+00   1.009247e+01   4.595473e+01   3.164059e+05  -3.872075e+04   1.491445e+06  -1.904998e+00  -1.556666e+01  -3.896385e-21   1.525130e+06   1.378063e-39   0.000000e+00   0.000000e+00
     1696000   1.695999e-05   5.466244e+00   1.008938e+01   4.607404e+01   3.164059e+05  -3.872075e+04   1.491445e+06  -2.223441e+00  -1.816881e+01  -4.357631e-21   1.525130e+06   1.877206e-39   0.000000e+00   0.000000e+00
     1704000   1.703999e-05   5.491556e+00   1.008628e+01   4.619336e+01   3.164059e+05  -3.872075e+04   1.491445e+06  -1.816646e+00  -1.484469e+01  -3.657992e-21   1.525130e+06   1.253200e-39   0.000000e+00   0.000000e+00
     1712000   1.711999e-05   5.516869e+00   1.008318e+01   4.631267e+01   3.164059e+05  -3.872075e+04   1.491445e+06  -1.760199e+00  -1.438344e+01  -2.484982e-21   1.525130e+06   1.176373e-39   0.000000e+00   0.000000e+00
     1720000   1.719999e-05   5.542181e+00   1.008008e+01   4.643199e+01   3.164059e+05  -3.872075e+04   1.491445e+06  -1.667920e+00  -1.362938e+01   8.226071e-22   1.525130e+06   1.056507e-39   0.000000e+00   0.000000e+00
     1728000   1.727999e-05   5.567494e+00   1.007698e+01   4.655130e+01   3.164059e+05  -3.872075e+04   1.491445e+06  -2.228272e+00  -1.820829e+01  -1.941796e-21   1.525130e+06   1.885248e-39   0.000000e+00   0.000000e+00
     1736000   1.735999e-05   5.592806e+00   1.007389e+01   4.667062e+01   3.164059e+05  -3.872075e+04   1.491445e+06  -1.360988e+00  -1.112129e+01  -1.055771e-21   1.525130e+06   7.034636e-40   0.000000e+00   0.000000e+00
     1744000   1.743999e-05   5.618119e+00   1.007079e+01   4.678994e+01   3.164059e+05  -3.872075e+04   1.491445e+06  -1.542517e+00  -1.260465e+01  -3.321313e-22   1.525130e+06   9.035398e-40   0.000000e+00   0.000000e+00
     1752000   1.751999e-05   5.643431e+00   1.006769e+01   4.690925e+01   3.164059e+05  -3.872075e+04   1.491445e+06  -1.440863e+00  -1.177399e+01  -1.421097e-21   1.525130e+06   7.883765e-40   0.000000e+00   0.000000e+00
     1760000   1.759999e-05   5.668743e+00   1.006459e+01   4.702857e+01   3.164059e+05  -3.872075e+04   1.491445e+06  -1.546306e+00  -1.263561e+01  -1.085287e-21   1.525130e+06   9.079570e-40   0.000000e+00   0.000000e+00
     1768000   1.767999e-05   5.694056e+00   1.006150e+01   4.714788e+01   3.164059e+05  -3.872075e+04   1.491445e+06  -1.131795e+00  -9.248440e+00  -1.504116e-21   1.525130e+06   4.864385e-40   0.000000e+00   0.000000e+00
     1776000   1.775999e-05   5.719368e+00   1.005840e+01   4.726720e+01   3.164059e+05  -3.872075e+04   1.491445e+06  -2.010760e+00  -1.643089e+01  -1.828637e-21   1.525130e+06   1.535343e-39   0.000000e+00   0.000000e+00
     1784000   1.783999e-05   5.744681e+00   1.005530e+01   4.738651e+01   3.164059e+05  -3.872075e+04   1.491445e+06  -2.410472e+00  -1.969712e+01  -3.779977e-21   1.525130e+06   2.206283e-39   0.000000e+00   0.000000e+00
     1792000   1.791999e-05   5.769993e+00   1.005220e+01   4.750583e+01   3.164059e+05  -3.872075e+04   1.491445e+06  -2.349117e+00  -1.919577e+01  -2.039420e-21   1.525130e+06   2.095396e-39   0.000000e+00   0.000000e+00
     1800000   1.799999e-05   5.795306e+00   1.004911e+01   4.762515e+01   3.164059e+05  -3.872075e+04   1.491445e+06  -2.157051e+00  -1.762630e+01  -2.340816e-21   1.525130e+06   1.766870e-39   0.000000e+00   0.000000e+00
     1808000   1.807999e-05   5.820618e+00   1.004601e+01   4.774446e+01   3.164059e+05  -3.872075e+04   1.491445e+06  -2.358243e+00  -1.927034e+01  -2.006606e-21   1.525130e+06   2.111788e-39   0.000000e+00   0.000000e+00
     1816000   1.815999e-05   5.845931e+00   1.004291e+01   4.786378e+01   3.164059e+05  -3.872075e+04   1.491445e+06  -2.881936e+00  -2.354969e+01   3.433689e-22   1.525130e+06   3.153727e-39   0.000000e+00   0.000000e+00
     1824000   1.823999e-05   5.871243e+00   1.003981e+01   4.798309e+01   3.164059e+05  -3.872075e+04   1.491445e+06  -2.626729e+00  -2.146426e+01   1.029634e-21   1.525130e+06   2.620013e-39   0.000000e+00   0.000000e+00
     1832000   1.831999e-05   5.896556e+00   1.003672e+01   4.810241e+01   3.164059e+05  -3.872075e+04   1.491445e+06  -2.907349e+00  -2.375735e+01   5.382895e-22   1.525130e+06   3.209722e-39   0.000000e+00   0.000000e+00
     1840000   1.839999e-05   5.921868e+00   1.003362e+01   4.822172e+01   3.164059e+05  -3.872075e+04   1.491445e+06  -2.692917e+00  -2.200512e+01   8.676015e-22   1.525130e+06   2.753866e-39   0.000000e+00   0.000000e+00
     1848000   1.847999e-05   5.947181e+00   1.003052e+01   4.834104e+01   3.164059e+05  -3.872075e+04   1.491445e+06  -2.270361e+00  -1.855221e+01   3.326653e-21   1.525130e+06   1.957281e-39   0.000000e+00   0.000000e+00
     1856000   1.855999e-05   5.972493e+00   1.002742e+01   4.846035e+01   3.164059e+05  -3.872075e+04   1.491445e+06  -2.212947e+00  -1.808306e+01   1.750008e-21   1.525130e+06   1.859706e-39   0.000000e+00   0.000000e+00
     1864000   1.863999e-05   5.997806e+00   1.002432e+01   4.857967e+01   3.164059e+05  -3.872075e+04   1.491445e+06  -1.924268e+00  -1.572412e+01  -4.899690e-22   1.525130e+06   1.406025e-39   0.000000e+00   0.000000e+00
     1872000   1.871999e-05   6.023118e+00   1.002123e+01   4.869899e+01   3.164059e+05  -3.872075e+04   1.491445e+06  -1.291108e+00  -1.055026e+01   5.228239e-22   1.525130e+06   6.331076e-40   0.000000e+00   0.000000e+00
     1880000   1.879999e-05   6.048431e+00   1.001813e+01   4.881830e+01   3.164059e+05  -3.872075e+04   1.491445e+06  -1.640861e+00  -1.340827e+01   2.429199e-21   1.525130e+06   1.022538e-39   0.000000e+00   0.000000e+00
     1888000   1.887999e-05   6.073743e+00   1.001503e+01   4.893762e+01   3.164059e+05  -3.872075e+04   1.491445e+06  -2.166012e+00  -1.769952e+01  -1.340543e-21   1.525130e+06   1.781368e-39   0.000000e+00   0.000000e+00
     1896000   1.895999e-05   6.099055e+00   1.001193e+01   4.905693e+01   3.164059e+05  -3.872075e+04   1.491445e+06  -1.039036e+00  -8.490465e+00  -1.333113e-22   1.525130e+06   4.100468e-40   0.000000e+00   0.000000e+00
     1904000   1.903999e-05   6.124368e+00   1.000884e+01   4.917625e+01   3.164059e+05  -3.872075e+04   1.491445e+06  -2.034219e+00  -1.662259e+01   1.657449e-21   1.525130e+06   1.571372e-39   0.000000e+00   0.000000e+00
     1912000   1.911999e-05   6.149680e+00   1.000574e+01   4.929556e+01   3.164059e+05  -3.872075e+04   1.491445e+06  -2.196109e+00  -1.794546e+01   2.484296e-21   1.525130e+06   1.831276e-39   0.000000e+00   0.000000e+00
     1920000   1.919999e-05   6.174993e+00   1.000264e+01   4.941488e+01   3.164059e+05  -3.872075e+04   1.491445e+06  -1.999164e+00  -1.633613e+01   2.827201e-21   1.525130e+06   1.517540e-39   0.000000e+00   0.000000e+00
     1928000   1.927999e-05   6.200305e+00   9.999543e+00   4.953419e+01   3.164059e+05  -3.872079e+04   1.491445e+06   8.137129e+06  -1.014432e+07  -1.989635e+06   1.525130e+06   9.689016e-28   0.000000e+00   0.000000e+00
     1936000   1.935999e-05   6.225618e+00   9.996446e+00   4.965351e+01   3.164069e+05  -3.872206e+04   1.491445e+06   2.046126e+07  -2.550839e+07  -5.003083e+06   1.525130e+06   6.127789e-27   0.000000e+00   0.000000e+00
     1944000   1.943999e-05   6.250931e+00   9.993347e+00   4.977283e+01   3.164200e+05  -3.873834e+04   1.491442e+06   2.979131e+08  -3.721304e+08  -7.287000e+07   1.525130e+06   1.302743e-24   0.000000e+00   0.000000e+00
     1952000   1.951999e-05   6.276245e+00   9.990247e+00   4.989214e+01   3.164345e+05  -3.875656e+04   1.491438e+06   5.563967e+07  -6.989008e+07  -1.362109e+07   1.525130e+06   4.579921e-26   0.000000e+00   0.000000e+00
