     timestep     time              x             y              z              vx             vy             vz             ax             ay             az         v_magnitude      ELoss        Electronic      Nuclear
           0   0.000000e+00   1.000000e-01   9.787591e+00   2.092617e+01  -9.158133e+03  -3.185629e+05   2.608122e+06   0.000000e+00   0.000000e+00   0.000000e+00   2.627521e+06   0.000000e+00   0.000000e+00   0.000000e+00
        8000   7.999000e-08   9.926744e-02   9.762106e+00   2.113482e+01  -9.155823e+03  -3.185630e+05   2.608122e+06   3.471396e+07  -9.977143e+05  -2.238400e-15   2.627521e+06   2.006028e-26   0.000000e+00   0.000000e+00
       16000   1.599900e-07   9.853507e-02   9.736621e+00   2.134347e+01  -9.153497e+03  -3.185631e+05   2.608122e+06   3.570296e+07  -1.025878e+06  -1.310710e-15   2.627521e+06   2.121956e-26   0.000000e+00   0.000000e+00
       24000   2.399900e-07   9.780288e-02   9.711136e+00   2.155212e+01  -9.151156e+03  -3.185631e+05   2.608122e+06   3.669195e+07  -1.054026e+06  -2.274528e-15   2.627521e+06   2.241136e-26   0.000000e+00   0.000000e+00
       32000   3.199900e-07   9.707088e-02   9.685651e+00   2.176077e+01  -9.148935e+03  -3.185632e+05   2.608122e+06   2.630306e+07  -7.554074e+05  -5.819362e-16   2.627521e+06   1.151505e-26   0.000000e+00   0.000000e+00
       40000   3.999900e-07   9.633906e-02   9.660166e+00   2.196942e+01  -9.146612e+03  -3.185633e+05   2.608122e+06   2.552783e+07  -7.329570e+05  -1.422424e-15   2.627521e+06   1.084625e-26   0.000000e+00   0.000000e+00
       48000   4.799900e-07   9.560743e-02   9.634681e+00   2.217807e+01  -9.144288e+03  -3.185633e+05   2.608122e+06   2.475254e+07  -7.105162e+05   1.591722e-15   2.627521e+06   1.019741e-26   0.000000e+00   0.000000e+00
       56000   5.599900e-07   9.487599e-02   9.609196e+00   2.238672e+01  -9.141963e+03  -3.185634e+05   2.608122e+06   2.397720e+07  -6.880851e+05  -1.458571e-15   2.627521e+06   9.568543e-27   0.000000e+00   0.000000e+00
       64000   6.399900e-07   9.414474e-02   9.583711e+00   2.259537e+01  -9.139304e+03  -3.185635e+05   2.608122e+06   3.053619e+07  -8.760563e+05  -3.574498e-16   2.627521e+06   1.552249e-26   0.000000e+00   0.000000e+00
       72000   7.199900e-07   9.341369e-02   9.558225e+00   2.280402e+01  -9.136908e+03  -3.185635e+05   2.608122e+06   2.253166e+07  -6.462438e+05   5.026997e-16   2.627521e+06   8.449514e-27   0.000000e+00   0.000000e+00
       80000   7.999900e-07   9.268282e-02   9.532740e+00   2.301267e+01  -9.134524e+03  -3.185636e+05   2.608122e+06   2.175860e+07  -6.239083e+05   1.283903e-16   2.627521e+06   7.879624e-27   0.000000e+00   0.000000e+00
       88000   8.799900e-07   9.195215e-02   9.507255e+00   2.322132e+01  -9.132139e+03  -3.185637e+05   2.608122e+06   2.098549e+07  -6.015828e+05   2.447002e-15   2.627521e+06   7.329590e-27   0.000000e+00   0.000000e+00
       96000   9.599900e-07   9.122166e-02   9.481770e+00   2.342997e+01  -9.129947e+03  -3.185637e+05   2.608122e+06   3.450501e+07  -9.889039e+05  -1.286924e-15   2.627521e+06   1.981942e-26   0.000000e+00   0.000000e+00
      104000   1.039990e-06   9.049136e-02   9.456285e+00   2.363862e+01  -9.127519e+03  -3.185638e+05   2.608122e+06   3.548334e+07  -1.016672e+06  -2.115192e-15   2.627521e+06   2.095920e-26   0.000000e+00   0.000000e+00
      112000   1.119990e-06   8.976126e-02   9.430800e+00   2.384727e+01  -9.125077e+03  -3.185639e+05   2.608122e+06   3.646166e+07  -1.044423e+06  -2.530797e-15   2.627521e+06   2.213081e-26   0.000000e+00   0.000000e+00
      120000   1.199990e-06   8.903135e-02   9.405315e+00   2.405592e+01  -9.122618e+03  -3.185639e+05   2.608122e+06   3.743995e+07  -1.072156e+06  -4.203378e-15   2.627521e+06   2.333426e-26   0.000000e+00   0.000000e+00
      128000   1.279990e-06   8.830165e-02   9.379830e+00   2.426457e+01  -9.120078e+03  -3.185640e+05   2.608122e+06   2.842321e+07  -8.137199e+05  -1.150839e-15   2.627521e+06   1.344624e-26   0.000000e+00   0.000000e+00
      136000   1.359990e-06   8.757214e-02   9.354345e+00   2.447322e+01  -9.117639e+03  -3.185641e+05   2.608122e+06   2.765467e+07  -7.915058e+05  -5.436774e-16   2.627521e+06   1.272889e-26   0.000000e+00   0.000000e+00
      144000   1.439990e-06   8.684283e-02   9.328860e+00   2.468187e+01  -9.115198e+03  -3.185642e+05   2.608122e+06   2.688608e+07  -7.693017e+05  -1.773727e-15   2.627521e+06   1.203115e-26   0.000000e+00   0.000000e+00
      152000   1.519990e-06   8.611372e-02   9.303374e+00   2.489051e+01  -9.112757e+03  -3.185642e+05   2.608122e+06   2.611743e+07  -7.471077e+05  -8.438190e-16   2.627521e+06   1.135303e-26   0.000000e+00   0.000000e+00
      160000   1.599990e-06   8.538481e-02   9.277889e+00   2.509916e+01  -9.110169e+03  -3.185643e+05   2.608122e+06   3.133597e+07  -8.961331e+05   8.514171e-16   2.627521e+06   1.634611e-26   0.000000e+00   0.000000e+00
      168000   1.679990e-06   8.465609e-02   9.252404e+00   2.530781e+01  -9.107668e+03  -3.185644e+05   2.608122e+06   2.467626e+07  -7.054876e+05  -1.117430e-15   2.627521e+06   1.013460e-26   0.000000e+00   0.000000e+00
      176000   1.759990e-06   8.392757e-02   9.226919e+00   2.551646e+01  -9.105169e+03  -3.185644e+05   2.608122e+06   2.390990e+07  -6.833899e+05   1.137710e-15   2.627521e+06   9.514851e-27   0.000000e+00   0.000000e+00
      184000   1.839990e-06   8.319925e-02   9.201434e+00   2.572511e+01  -9.102668e+03  -3.185645e+05   2.608122e+06   2.314349e+07  -6.613025e+05  -4.654746e-17   2.627521e+06   8.914607e-27   0.000000e+00   0.000000e+00
      192000   1.919990e-06   8.247114e-02   9.175949e+00   2.593376e+01  -9.100190e+03  -3.185646e+05   2.608122e+06   3.525784e+07  -1.007184e+06  -3.171099e-15   2.627521e+06   2.069354e-26   0.000000e+00   0.000000e+00
      200000   1.999990e-06   8.174322e-02   9.150463e+00   2.614241e+01  -9.097650e+03  -3.185647e+05   2.608122e+06   3.622551e+07  -1.034537e+06  -1.739298e-15   2.627521e+06   2.184497e-26   0.000000e+00   0.000000e+00
      208000   2.079990e-06   8.101551e-02   9.124978e+00   2.635106e+01  -9.095093e+03  -3.185647e+05   2.608122e+06   3.719316e+07  -1.061873e+06  -1.783244e-15   2.627521e+06   2.302753e-26   0.000000e+00   0.000000e+00
      216000   2.159990e-06   8.028800e-02   9.099493e+00   2.655971e+01  -9.092533e+03  -3.185648e+05   2.608122e+06   3.124485e+07  -8.917960e+05  -2.185697e-15   2.627521e+06   1.624850e-26   0.000000e+00   0.000000e+00
      224000   2.239990e-06   7.956070e-02   9.074008e+00   2.676836e+01  -9.089982e+03  -3.185649e+05   2.608122e+06   3.048307e+07  -8.698088e+05  -3.345826e-15   2.627521e+06   1.546582e-26   0.000000e+00   0.000000e+00
      232000   2.319990e-06   7.883361e-02   9.048523e+00   2.697701e+01  -9.087429e+03  -3.185650e+05   2.608122e+06   2.972123e+07  -8.478321e+05  -2.873065e-16   2.627521e+06   1.470239e-26   0.000000e+00   0.000000e+00
      240000   2.399990e-06   7.810672e-02   9.023038e+00   2.718566e+01  -9.084875e+03  -3.185650e+05   2.608122e+06   2.895934e+07  -8.258659e+05  -2.824142e-16   2.627521e+06   1.395823e-26   0.000000e+00   0.000000e+00
      248000   2.479990e-06   7.738004e-02   8.997552e+00   2.739431e+01  -9.082291e+03  -3.185651e+05   2.608122e+06   3.114802e+07  -8.880301e+05  -3.275197e-15   2.627521e+06   1.615053e-26   0.000000e+00   0.000000e+00
      256000   2.559990e-06   7.665356e-02   8.972067e+00   2.760296e+01  -9.079676e+03  -3.185652e+05   2.608122e+06   2.752020e+07  -7.843750e+05  -1.482405e-16   2.627521e+06   1.260533e-26   0.000000e+00   0.000000e+00
      264000   2.639990e-06   7.592729e-02   8.946582e+00   2.781161e+01  -9.077066e+03  -3.185652e+05   2.608122e+06   2.676061e+07  -7.625056e+05   1.640740e-15   2.627521e+06   1.191904e-26   0.000000e+00   0.000000e+00
      272000   2.719990e-06   7.520123e-02   8.921097e+00   2.802026e+01  -9.074454e+03  -3.185653e+05   2.608122e+06   2.600095e+07  -7.406469e+05   6.806472e-16   2.627521e+06   1.125192e-26   0.000000e+00   0.000000e+00
      280000   2.799990e-06   7.447537e-02   8.895611e+00   2.822891e+01  -9.071724e+03  -3.185654e+05   2.608122e+06   3.502668e+07  -9.974479e+05  -1.478260e-15   2.627521e+06   2.042297e-26   0.000000e+00   0.000000e+00
      288000   2.879990e-06   7.374974e-02   8.870126e+00   2.843756e+01  -9.069088e+03  -3.185655e+05   2.608122e+06   3.598374e+07  -1.024404e+06  -1.939374e-15   2.627521e+06   2.155423e-26   0.000000e+00   0.000000e+00
      296000   2.959990e-06   7.302432e-02   8.844641e+00   2.864621e+01  -9.066436e+03  -3.185655e+05   2.608122e+06   3.694077e+07  -1.051341e+06  -2.037052e-15   2.627521e+06   2.271595e-26   0.000000e+00   0.000000e+00
      304000   3.039990e-06   7.229911e-02   8.819156e+00   2.885486e+01  -9.063770e+03  -3.185656e+05   2.608122e+06   3.789778e+07  -1.078261e+06  -2.405629e-15   2.627521e+06   2.390813e-26   0.000000e+00   0.000000e+00
      312000   3.119990e-06   7.157411e-02   8.793670e+00   2.906351e+01  -9.061250e+03  -3.185657e+05   2.608122e+06   3.323800e+07  -9.454183e+05   5.947869e-16   2.627521e+06   1.838765e-26   0.000000e+00   0.000000e+00
      320000   3.199990e-06   7.084931e-02   8.768185e+00   2.927216e+01  -9.058588e+03  -3.185658e+05   2.608122e+06   3.248293e+07  -9.236695e+05  -5.385363e-17   2.627521e+06   1.756168e-26   0.000000e+00   0.000000e+00
      328000   3.279990e-06   7.012474e-02   8.742700e+00   2.948081e+01  -9.055926e+03  -3.185658e+05   2.608122e+06   3.172780e+07  -9.019315e+05   1.471166e-16   2.627521e+06   1.675461e-26   0.000000e+00   0.000000e+00
      336000   3.359990e-06   6.940038e-02   8.717215e+00   2.968946e+01  -9.053263e+03  -3.185659e+05   2.608122e+06   3.097260e+07  -8.802044e+05  -1.531458e-15   2.627521e+06   1.596647e-26   0.000000e+00   0.000000e+00
      344000   3.439990e-06   6.867598e-02   8.691730e+00   2.989811e+01  -9.057518e+03  -3.185551e+05   2.608123e+06  -3.447728e+07   1.048931e+08   1.269187e+07   2.627521e+06   2.056167e-25   0.000000e+00   0.000000e+00
      352000   3.519990e-06   6.795162e-02   8.666245e+00   3.010676e+01  -9.050008e+03  -3.185638e+05   2.608122e+06   1.759041e+07   1.748533e+07   2.196748e+06   2.627521e+06   1.030860e-26   0.000000e+00   0.000000e+00
      360000   3.599990e-06   6.722768e-02   8.640760e+00   3.031541e+01  -9.048142e+03  -3.185626e+05   2.608122e+06   2.878503e+07  -8.175821e+05   7.962985e-16   2.627521e+06   1.379062e-26   0.000000e+00   0.000000e+00
      368000   3.679990e-06   6.650393e-02   8.615275e+00   3.052406e+01  -9.045423e+03  -3.185626e+05   2.608122e+06   2.803216e+07  -7.959588e+05  -9.480942e-16   2.627521e+06   1.307864e-26   0.000000e+00   0.000000e+00
      376000   3.759990e-06   6.578041e-02   8.589790e+00   3.073271e+01  -9.042638e+03  -3.185627e+05   2.608122e+06   3.573613e+07  -1.014397e+06  -2.402482e-15   2.627521e+06   2.125852e-26   0.000000e+00   0.000000e+00
      384000   3.839990e-06   6.505710e-02   8.564305e+00   3.094136e+01  -9.039895e+03  -3.185628e+05   2.608122e+06   3.668260e+07  -1.040947e+06   1.270880e-15   2.627521e+06   2.239944e-26   0.000000e+00   0.000000e+00
      392000   3.919990e-06   6.433402e-02   8.538820e+00   3.115001e+01  -9.037137e+03  -3.185629e+05   2.608122e+06   3.762904e+07  -1.067478e+06  -8.888252e-16   2.627521e+06   2.357015e-26   0.000000e+00   0.000000e+00
      400000   3.999990e-06   6.361116e-02   8.513335e+00   3.135866e+01  -9.034364e+03  -3.185629e+05   2.608122e+06   3.857546e+07  -1.093990e+06  -1.864085e-15   2.627521e+06   2.477064e-26   0.000000e+00   0.000000e+00
      408000   4.079990e-06   6.288851e-02   8.487850e+00   3.156731e+01  -9.031751e+03  -3.185630e+05   2.608122e+06   3.517204e+07  -9.971815e+05  -5.850554e-16   2.627521e+06   2.058978e-26   0.000000e+00   0.000000e+00
      416000   4.159990e-06   6.216609e-02   8.462365e+00   3.177596e+01  -9.028983e+03  -3.185631e+05   2.608122e+06   3.442377e+07  -9.756674e+05   2.239181e-15   2.627521e+06   1.972297e-26   0.000000e+00   0.000000e+00
      424000   4.239990e-06   6.144388e-02   8.436880e+00   3.198461e+01  -9.026214e+03  -3.185632e+05   2.608122e+06   3.367543e+07  -9.541644e+05  -6.402623e-16   2.627521e+06   1.887474e-26   0.000000e+00   0.000000e+00
      432000   4.319990e-06   6.072190e-02   8.411395e+00   3.219326e+01  -9.023445e+03  -3.185633e+05   2.608122e+06   3.292703e+07  -9.326726e+05   5.045708e-16   2.627521e+06   1.804508e-26   0.000000e+00   0.000000e+00
      440000   4.399990e-06   6.000015e-02   8.385910e+00   3.240191e+01  -9.020469e+03  -3.185633e+05   2.608122e+06   3.224309e+07  -9.129983e+05  -1.493221e-15   2.627521e+06   1.730319e-26   0.000000e+00   0.000000e+00
      448000   4.479990e-06   5.927862e-02   8.360425e+00   3.261056e+01  -9.017646e+03  -3.185634e+05   2.608122e+06   3.149704e+07  -8.915937e+05  -2.395059e-15   2.627521e+06   1.651168e-26   0.000000e+00   0.000000e+00
      456000   4.559990e-06   5.855732e-02   8.334940e+00   3.281920e+01  -9.014823e+03  -3.185635e+05   2.608122e+06   3.075092e+07  -8.702005e+05  -3.059164e-15   2.627521e+06   1.573864e-26   0.000000e+00   0.000000e+00
      464000   4.639990e-06   5.783625e-02   8.309454e+00   3.302785e+01  -9.011998e+03  -3.185636e+05   2.608122e+06   3.000474e+07  -8.488187e+05  -2.226355e-16   2.627521e+06   1.498406e-26   0.000000e+00   0.000000e+00
      472000   4.719990e-06   5.711540e-02   8.283969e+00   3.323650e+01  -9.009206e+03  -3.185637e+05   2.608122e+06   3.641969e+07  -1.029975e+06  -3.803633e-15   2.627521e+06   2.207938e-26   0.000000e+00   0.000000e+00
      480000   4.799990e-06   5.639477e-02   8.258484e+00   3.344515e+01  -9.006359e+03  -3.185637e+05   2.608122e+06   3.735561e+07  -1.056109e+06  -2.793088e-15   2.627521e+06   2.322871e-26   0.000000e+00   0.000000e+00
      488000   4.879990e-06   5.567438e-02   8.232999e+00   3.365380e+01  -9.003498e+03  -3.185638e+05   2.608122e+06   3.829151e+07  -1.082224e+06  -7.824952e-17   2.627521e+06   2.440717e-26   0.000000e+00   0.000000e+00
      496000   4.959990e-06   5.495421e-02   8.207514e+00   3.386245e+01  -9.000622e+03  -3.185639e+05   2.608122e+06   3.922738e+07  -1.108320e+06  -1.046889e-15   2.627521e+06   2.561475e-26   0.000000e+00   0.000000e+00
      504000   5.039990e-06   5.423427e-02   8.182029e+00   3.407110e+01  -8.997825e+03  -3.185640e+05   2.608122e+06   3.704755e+07  -1.046406e+06   6.807506e-16   2.627521e+06   2.284413e-26   0.000000e+00   0.000000e+00
      512000   5.119990e-06   5.351456e-02   8.156544e+00   3.427975e+01  -8.994954e+03  -3.185641e+05   2.608122e+06   3.630596e+07  -1.025133e+06  -3.413454e-15   2.627521e+06   2.193869e-26   0.000000e+00   0.000000e+00
      520000   5.199990e-06   5.279508e-02   8.131059e+00   3.448840e+01  -8.992083e+03  -3.185641e+05   2.608122e+06   3.556430e+07  -1.003871e+06  -3.525049e-15   2.627521e+06   2.105148e-26   0.000000e+00   0.000000e+00
      528000   5.279990e-06   5.207584e-02   8.105574e+00   3.469705e+01  -8.989211e+03  -3.185642e+05   2.608122e+06   3.482258e+07  -9.826199e+05  -1.044693e-15   2.627521e+06   2.018251e-26   0.000000e+00   0.000000e+00
      536000   5.359990e-06   5.135682e-02   8.080088e+00   3.490570e+01  -8.986192e+03  -3.185643e+05   2.608122e+06   3.413651e+07  -9.629367e+05  -8.366985e-16   2.627521e+06   1.939504e-26   0.000000e+00   0.000000e+00
      544000   5.439990e-06   5.063805e-02   8.054603e+00   3.511435e+01  -8.983267e+03  -3.185644e+05   2.608122e+06   3.339715e+07  -9.417735e+05  -2.577719e-15   2.627521e+06   1.856394e-26   0.000000e+00   0.000000e+00
      552000   5.519990e-06   4.991950e-02   8.029118e+00   3.532300e+01  -8.980342e+03  -3.185645e+05   2.608122e+06   3.265772e+07  -9.206221e+05  -3.447261e-15   2.627521e+06   1.775097e-26   0.000000e+00   0.000000e+00
      560000   5.599990e-06   4.920119e-02   8.003633e+00   3.553165e+01  -8.977417e+03  -3.185646e+05   2.608122e+06   3.191822e+07  -8.994823e+05  -3.424340e-15   2.627521e+06   1.695614e-26   0.000000e+00   0.000000e+00
      568000   5.679990e-06   4.848311e-02   7.978148e+00   3.574030e+01  -8.974517e+03  -3.185646e+05   2.608122e+06   3.707719e+07  -1.044529e+06   1.752036e-15   2.627521e+06   2.288362e-26   0.000000e+00   0.000000e+00
      576000   5.759990e-06   4.776526e-02   7.952663e+00   3.594895e+01  -8.971569e+03  -3.185647e+05   2.608122e+06   3.800262e+07  -1.070248e+06  -1.937725e-15   2.627521e+06   2.404014e-26   0.000000e+00   0.000000e+00
      584000   5.839990e-06   4.704765e-02   7.927177e+00   3.615760e+01  -8.968608e+03  -3.185648e+05   2.608122e+06   3.892802e+07  -1.095947e+06  -2.755146e-15   2.627521e+06   2.522515e-26   0.000000e+00   0.000000e+00
      592000   5.919990e-06   4.633028e-02   7.901692e+00   3.636625e+01  -8.965632e+03  -3.185649e+05   2.608122e+06   3.985339e+07  -1.121627e+06  -3.285876e-15   2.627521e+06   2.643862e-26   0.000000e+00   0.000000e+00
      600000   5.999990e-06   4.561315e-02   7.876207e+00   3.657490e+01  -8.962665e+03  -3.185650e+05   2.608122e+06   3.886442e+07  -1.093431e+06  -2.687221e-15   2.627521e+06   2.513964e-26   0.000000e+00   0.000000e+00
      608000   6.079990e-06   4.489626e-02   7.850722e+00   3.678355e+01  -8.959694e+03  -3.185651e+05   2.608122e+06   3.812951e+07  -1.072399e+06  -2.163393e-15   2.627521e+06   2.419782e-26   0.000000e+00   0.000000e+00
      616000   6.159990e-06   4.417960e-02   7.825237e+00   3.699220e+01  -8.956723e+03  -3.185651e+05   2.608122e+06   3.739453e+07  -1.051378e+06  -2.109446e-15   2.627521e+06   2.327391e-26   0.000000e+00   0.000000e+00
      624000   6.239990e-06   4.346319e-02   7.799751e+00   3.720085e+01  -8.953753e+03  -3.185652e+05   2.608122e+06   3.670401e+07  -1.031621e+06  -4.052398e-16   2.627521e+06   2.242227e-26   0.000000e+00   0.000000e+00
      632000   6.319990e-06   4.274701e-02   7.774266e+00   3.740950e+01  -8.950731e+03  -3.185653e+05   2.608122e+06   3.597139e+07  -1.010688e+06  -2.953653e-15   2.627521e+06   2.153605e-26   0.000000e+00   0.000000e+00
      640000   6.399990e-06   4.203108e-02   7.748781e+00   3.761815e+01  -8.947709e+03  -3.185654e+05   2.608122e+06   3.523870e+07  -9.897674e+05  -1.887158e-15   2.627521e+06   2.066763e-26   0.000000e+00   0.000000e+00
      648000   6.479990e-06   4.131538e-02   7.723296e+00   3.782680e+01  -8.944686e+03  -3.185655e+05   2.608122e+06   3.450595e+07  -9.688585e+05  -9.939688e-16   2.627521e+06   1.981700e-26   0.000000e+00   0.000000e+00
      656000   6.559990e-06   4.059993e-02   7.697811e+00   3.803545e+01  -8.941635e+03  -3.185656e+05   2.608122e+06   3.679400e+07  -1.032750e+06  -2.364873e-15   2.627521e+06   2.253525e-26   0.000000e+00   0.000000e+00
      664000   6.639990e-06   3.988471e-02   7.672325e+00   3.824410e+01  -8.938606e+03  -3.185656e+05   2.608122e+06   3.770901e+07  -1.058074e+06  -2.237411e-15   2.627521e+06   2.366997e-26   0.000000e+00   0.000000e+00
      672000   6.719990e-06   3.916975e-02   7.646840e+00   3.845275e+01  -8.935562e+03  -3.185657e+05   2.608122e+06   3.862399e+07  -1.083378e+06   8.534872e-16   2.627521e+06   2.483252e-26   0.000000e+00   0.000000e+00
      680000   6.799990e-06   3.845502e-02   7.621355e+00   3.866140e+01  -8.932504e+03  -3.185658e+05   2.608122e+06   3.953894e+07  -1.108662e+06  -3.799266e-16   2.627521e+06   2.602290e-26   0.000000e+00   0.000000e+00
      688000   6.879990e-06   3.774054e-02   7.595869e+00   3.887005e+01  -8.929440e+03  -3.185659e+05   2.608122e+06   4.135144e+07  -1.159086e+06  -2.482304e-15   2.627521e+06   2.846002e-26   0.000000e+00   0.000000e+00
      696000   6.959990e-06   3.702631e-02   7.570384e+00   3.907870e+01  -8.926374e+03  -3.185660e+05   2.608122e+06   4.062326e+07  -1.138284e+06  -2.648161e-15   2.627521e+06   2.746647e-26   0.000000e+00   0.000000e+00
      704000   7.039990e-06   3.631232e-02   7.544899e+00   3.928735e+01  -8.923307e+03  -3.185661e+05   2.608122e+06   3.989502e+07  -1.117494e+06   2.290903e-16   2.627521e+06   2.649049e-26   0.000000e+00   0.000000e+00
      712000   7.119990e-06   3.559858e-02   7.519414e+00   3.949600e+01  -8.920240e+03  -3.185662e+05   2.608122e+06   3.916671e+07  -1.096716e+06  -1.404948e-16   2.627521e+06   2.553208e-26   0.000000e+00   0.000000e+00
      720000   7.199990e-06   3.488509e-02   7.493928e+00   3.970465e+01  -8.917210e+03  -3.185662e+05   2.608122e+06   3.847425e+07  -1.076960e+06  -2.839047e-15   2.627521e+06   2.463722e-26   0.000000e+00   0.000000e+00
      728000   7.279990e-06   3.417184e-02   7.468443e+00   3.991330e+01  -8.914093e+03  -3.185663e+05   2.608122e+06   3.774830e+07  -1.056269e+06  -2.228522e-15   2.627521e+06   2.371621e-26   0.000000e+00   0.000000e+00
      736000   7.359990e-06   3.345884e-02   7.442958e+00   4.012195e+01  -8.910976e+03  -3.185664e+05   2.608122e+06   3.702227e+07  -1.035591e+06  -1.010777e-15   2.627521e+06   2.281266e-26   0.000000e+00   0.000000e+00
      744000   7.439990e-06   3.274609e-02   7.417472e+00   4.033060e+01  -8.907858e+03  -3.185665e+05   2.608122e+06   3.629618e+07  -1.014925e+06  -1.841345e-15   2.627521e+06   2.192657e-26   0.000000e+00   0.000000e+00
      752000   7.519990e-06   3.203358e-02   7.391987e+00   4.053925e+01  -8.904647e+03  -3.185666e+05   2.608122e+06   3.741090e+07  -1.045718e+06   1.635234e-16   2.627521e+06   2.329706e-26   0.000000e+00   0.000000e+00
      760000   7.599990e-06   3.132133e-02   7.366502e+00   4.074790e+01  -8.901523e+03  -3.185667e+05   2.608122e+06   3.831552e+07  -1.070628e+06  -2.205409e-16   2.627521e+06   2.443730e-26   0.000000e+00   0.000000e+00
      768000   7.679990e-06   3.060934e-02   7.341016e+00   4.095655e+01  -8.898386e+03  -3.185668e+05   2.608122e+06   3.922011e+07  -1.095518e+06  -1.511871e-15   2.627521e+06   2.560475e-26   0.000000e+00   0.000000e+00
      776000   7.759990e-06   2.989759e-02   7.315531e+00   4.116520e+01  -8.895234e+03  -3.185669e+05   2.608122e+06   4.012467e+07  -1.120388e+06   5.003502e-18   2.627521e+06   2.679941e-26   0.000000e+00   0.000000e+00
      784000   7.839990e-06   2.918609e-02   7.290046e+00   4.137385e+01  -8.892122e+03  -3.185669e+05   2.608122e+06   4.304625e+07  -1.201545e+06  -3.131867e-15   2.627521e+06   3.084062e-26   0.000000e+00   0.000000e+00
      792000   7.919990e-06   2.847485e-02   7.264560e+00   4.158249e+01  -8.888963e+03  -3.185670e+05   2.608122e+06   4.232473e+07  -1.180985e+06  -2.335077e-15   2.627521e+06   2.981536e-26   0.000000e+00   0.000000e+00
      800000   7.999990e-06   2.776386e-02   7.239075e+00   4.179114e+01  -8.885804e+03  -3.185671e+05   2.608122e+06   4.160314e+07  -1.160438e+06  -2.033781e-15   2.627521e+06   2.880735e-26   0.000000e+00   0.000000e+00
      808000   8.079990e-06   2.705312e-02   7.213590e+00   4.199979e+01  -8.882644e+03  -3.185672e+05   2.608122e+06   4.088148e+07  -1.139903e+06  -3.547961e-15   2.627521e+06   2.781657e-26   0.000000e+00   0.000000e+00
      816000   8.159990e-06   2.634264e-02   7.188104e+00   4.220844e+01  -8.879516e+03  -3.185673e+05   2.608122e+06   4.018718e+07  -1.120149e+06   9.747666e-17   2.627521e+06   2.687973e-26   0.000000e+00   0.000000e+00
      824000   8.239990e-06   2.563241e-02   7.162619e+00   4.241709e+01  -8.876308e+03  -3.185674e+05   2.608122e+06   3.946787e+07  -1.099701e+06   9.340832e-17   2.627521e+06   2.592606e-26   0.000000e+00   0.000000e+00
      832000   8.319990e-06   2.492244e-02   7.137133e+00   4.262574e+01  -8.873099e+03  -3.185675e+05   2.608122e+06   3.874849e+07  -1.079267e+06  -1.824816e-15   2.627521e+06   2.498953e-26   0.000000e+00   0.000000e+00
      840000   8.399990e-06   2.421272e-02   7.111648e+00   4.283439e+01  -8.869889e+03  -3.185676e+05   2.608122e+06   3.802905e+07  -1.058844e+06  -3.558356e-15   2.627521e+06   2.407013e-26   0.000000e+00   0.000000e+00
      848000   8.479990e-06   2.350326e-02   7.086163e+00   4.304304e+01  -8.866568e+03  -3.185677e+05   2.608122e+06   3.800280e+07  -1.057717e+06   9.415833e-16   2.627521e+06   2.403989e-26   0.000000e+00   0.000000e+00
      856000   8.559990e-06   2.279406e-02   7.060677e+00   4.325169e+01  -8.863354e+03  -3.185678e+05   2.608122e+06   3.889710e+07  -1.082215e+06  -2.226366e-15   2.627521e+06   2.518458e-26   0.000000e+00   0.000000e+00
      864000   8.639990e-06   2.208512e-02   7.035192e+00   4.346034e+01  -8.860126e+03  -3.185678e+05   2.608122e+06   3.979136e+07  -1.106692e+06  -1.814197e-15   2.627521e+06   2.635585e-26   0.000000e+00   0.000000e+00
      872000   8.719990e-06   2.137643e-02   7.009706e+00   4.366899e+01  -8.856885e+03  -3.185679e+05   2.608122e+06   4.068560e+07  -1.131149e+06   1.035233e-15   2.627521e+06   2.755371e-26   0.000000e+00   0.000000e+00
      880000   8.799990e-06   2.066801e-02   6.984221e+00   4.387764e+01  -8.853719e+03  -3.185680e+05   2.608122e+06   4.468436e+07  -1.241879e+06  -1.927110e-15   2.627521e+06   3.323240e-26   0.000000e+00   0.000000e+00
      888000   8.879990e-06   1.995984e-02   6.958735e+00   4.408629e+01  -8.850470e+03  -3.185681e+05   2.608122e+06   4.396947e+07  -1.221562e+06   4.023469e-16   2.627521e+06   3.217752e-26   0.000000e+00   0.000000e+00
      896000   8.959990e-06   1.925193e-02   6.933250e+00   4.429494e+01  -8.847221e+03  -3.185682e+05   2.608122e+06   4.325452e+07  -1.201257e+06  -2.886156e-15   2.627521e+06   3.113955e-26   0.000000e+00   0.000000e+00
      904000   9.039990e-06   1.854428e-02   6.907765e+00   4.450359e+01  -8.843969e+03  -3.185683e+05   2.608122e+06   4.425388e+07  -1.228559e+06  -5.292465e-15   2.627521e+06   3.259856e-26   0.000000e+00   0.000000e+00
      912000   9.119990e-06   1.783690e-02   6.882279e+00   4.471224e+01  -8.840701e+03  -3.185684e+05   2.608122e+06   4.184347e+07  -1.161213e+06  -1.023006e-15   2.627521e+06   2.914094e-26   0.000000e+00   0.000000e+00
      920000   9.199990e-06   1.712978e-02   6.856794e+00   4.492089e+01  -8.837404e+03  -3.185685e+05   2.608122e+06   4.113079e+07  -1.141009e+06  -3.180908e-15   2.627521e+06   2.815670e-26   0.000000e+00   0.000000e+00
      928000   9.279990e-06   1.642292e-02   6.831308e+00   4.512954e+01  -8.834107e+03  -3.185686e+05   2.608122e+06   4.041804e+07  -1.120818e+06  -4.555688e-15   2.627521e+06   2.718926e-26   0.000000e+00   0.000000e+00
      936000   9.359990e-06   1.571633e-02   6.805823e+00   4.533819e+01  -8.830809e+03  -3.185687e+05   2.608122e+06   3.970523e+07  -1.100640e+06  -2.895877e-15   2.627521e+06   2.623865e-26   0.000000e+00   0.000000e+00
      944000   9.439990e-06   1.501000e-02   6.780337e+00   4.554684e+01  -8.827445e+03  -3.185687e+05   2.608122e+06   3.857015e+07  -1.068767e+06  -3.310537e-15   2.627521e+06   2.476282e-26   0.000000e+00   0.000000e+00
      952000   9.519990e-06   1.430393e-02   6.754852e+00   4.575549e+01  -8.824144e+03  -3.185688e+05   2.608122e+06   3.945418e+07  -1.092854e+06  -3.224034e-15   2.627521e+06   2.591091e-26   0.000000e+00   0.000000e+00
      960000   9.599990e-06   1.359813e-02   6.729366e+00   4.596414e+01  -8.820828e+03  -3.185689e+05   2.608122e+06   4.033818e+07  -1.116921e+06  -2.807743e-15   2.627521e+06   2.708498e-26   0.000000e+00   0.000000e+00
      968000   9.679990e-06   1.289260e-02   6.703881e+00   4.617279e+01  -8.817500e+03  -3.185690e+05   2.608122e+06   4.122215e+07  -1.140966e+06  -5.231686e-16   2.627521e+06   2.828502e-26   0.000000e+00   0.000000e+00
      976000   9.759990e-06   1.218732e-02   6.678395e+00   4.638144e+01  -8.814241e+03  -3.185691e+05   2.608122e+06   4.626651e+07  -1.280112e+06  -1.708368e-15   2.627521e+06   3.562724e-26   0.000000e+00   0.000000e+00
      984000   9.839990e-06   1.148231e-02   6.652910e+00   4.659009e+01  -8.810906e+03  -3.185692e+05   2.608122e+06   4.555824e+07  -1.260038e+06  -1.545810e-15   2.627521e+06   3.454474e-26   0.000000e+00   0.000000e+00
      992000   9.919990e-06   1.077757e-02   6.627424e+00   4.679874e+01  -8.807570e+03  -3.185693e+05   2.608122e+06   4.484990e+07  -1.239977e+06  -3.317369e-15   2.627521e+06   3.347884e-26   0.000000e+00   0.000000e+00
     1000000   9.999990e-06   1.007310e-02   6.601938e+00   4.700739e+01  -8.804232e+03  -3.185694e+05   2.608122e+06   4.474561e+07  -1.236625e+06  -3.439327e-15   2.627521e+06   3.332675e-26   0.000000e+00   0.000000e+00
     1008000   1.007999e-05   9.368904e-03   6.576453e+00   4.721604e+01  -8.800851e+03  -3.185695e+05   2.608122e+06   4.344386e+07  -1.200187e+06  -3.959019e-15   2.627521e+06   3.141255e-26   0.000000e+00   0.000000e+00
     1016000   1.015999e-05   8.664975e-03   6.550967e+00   4.742469e+01  -8.797469e+03  -3.185696e+05   2.608122e+06   4.273779e+07  -1.180227e+06   2.414072e-15   2.627521e+06   3.039974e-26   0.000000e+00   0.000000e+00
     1024000   1.023999e-05   7.961315e-03   6.525482e+00   4.763334e+01  -8.794087e+03  -3.185697e+05   2.608122e+06   4.203165e+07  -1.160280e+06  -3.727905e-15   2.627521e+06   2.940342e-26   0.000000e+00   0.000000e+00
     1032000   1.031999e-05   7.257926e-03   6.499996e+00   4.784199e+01  -8.790704e+03  -3.185698e+05   2.608122e+06   3.823944e+07  -1.055190e+06  -2.489220e-15   2.627521e+06   2.842361e-26   0.000000e+00   0.000000e+00
     1040000   1.039999e-05   6.554802e-03   6.474511e+00   4.805064e+01  -8.787331e+03  -3.185699e+05   2.608122e+06   3.911331e+07  -1.078889e+06  -3.403022e-15   2.627521e+06   2.546496e-26   0.000000e+00   0.000000e+00
     1048000   1.047999e-05   5.851948e-03   6.449025e+00   4.825929e+01  -8.783946e+03  -3.185700e+05   2.608122e+06   3.998715e+07  -1.102568e+06  -3.284312e-15   2.627521e+06   2.661546e-26   0.000000e+00   0.000000e+00
     1056000   1.055999e-05   5.149367e-03   6.423539e+00   4.846794e+01  -8.780547e+03  -3.185700e+05   2.608122e+06   4.086096e+07  -1.126225e+06  -3.821419e-15   2.627521e+06   2.779134e-26   0.000000e+00   0.000000e+00
     1064000   1.063999e-05   4.447058e-03   6.398054e+00   4.867659e+01  -8.777097e+03  -3.185701e+05   2.608122e+06   4.849507e+07  -1.336114e+06  -2.837471e-15   2.627521e+06   3.914194e-26   0.000000e+00   0.000000e+00
     1072000   1.071999e-05   3.745025e-03   6.372568e+00   4.888524e+01  -8.773679e+03  -3.185702e+05   2.608122e+06   4.779346e+07  -1.316270e+06  -5.010893e-15   2.627521e+06   3.801750e-26   0.000000e+00   0.000000e+00
     1080000   1.079999e-05   3.043265e-03   6.347083e+00   4.909389e+01  -8.770261e+03  -3.185703e+05   2.608122e+06   4.709179e+07  -1.296440e+06  -3.276488e-15   2.627521e+06   3.690934e-26   0.000000e+00   0.000000e+00
     1088000   1.087999e-05   2.341779e-03   6.321597e+00   4.930254e+01  -8.766844e+03  -3.185704e+05   2.608122e+06   4.434332e+07  -1.220298e+06  -6.103452e-15   2.627521e+06   3.272997e-26   0.000000e+00   0.000000e+00
     1096000   1.095999e-05   1.640567e-03   6.296111e+00   4.951119e+01  -8.763491e+03  -3.185705e+05   2.608122e+06   4.568854e+07  -1.256837e+06   1.757871e-15   2.627521e+06   3.474237e-26   0.000000e+00   0.000000e+00
     1104000   1.103999e-05   9.397187e-04   6.270626e+00   4.971984e+01  -8.755371e+03  -3.185770e+05   2.608121e+06   1.585050e+08  -1.571846e+08  -1.866770e+07   2.627521e+06   8.344478e-25   0.000000e+00   0.000000e+00
     1112000   1.111999e-05   2.396671e-04   6.245139e+00   4.992849e+01  -8.749615e+03  -3.185830e+05   2.608121e+06   0.000000e+00   0.000000e+00   0.000000e+00   2.627521e+06   0.000000e+00   0.000000e+00   0.000000e+00
