     timestep     time              x             y              z              vx             vy             vz             ax             ay             az         v_magnitude      ELoss        Electronic      Nuclear
           0   0.000000e+00   1.000000e-01   9.006864e+00   1.971372e+01   3.896206e+05  -1.732193e+05   7.572907e+05   0.000000e+00   0.000000e+00   0.000000e+00   8.690790e+05   0.000000e+00   0.000000e+00   0.000000e+00
        8000   7.999000e-08   1.311695e-01   8.993007e+00   1.977430e+01   3.896178e+05  -1.732148e+05   7.572932e+05  -3.068406e+07   4.774225e+07   2.670659e+07   8.690790e+05   7.156990e-27   0.000000e+00   0.000000e+00
       16000   1.599900e-07   1.623388e-01   8.979150e+00   1.983488e+01   3.896143e+05  -1.732090e+05   7.572963e+05  -3.946056e+07   7.046045e+07   3.641743e+07   8.690790e+05   1.428149e-26   0.000000e+00   0.000000e+00
       24000   2.399900e-07   1.935079e-01   8.965293e+00   1.989547e+01   3.896128e+05  -1.732060e+05   7.572977e+05   2.718295e+06   3.202945e+06  -6.659381e+05   8.690790e+05   3.294867e-29   0.000000e+00   0.000000e+00
       32000   3.199900e-07   2.246768e-01   8.951437e+00   1.995605e+01   3.896114e+05  -1.732034e+05   7.572990e+05   4.806252e+06  -9.684459e+05  -2.694192e+06   8.690790e+05   5.678871e-29   0.000000e+00   0.000000e+00
       40000   3.999900e-07   2.558458e-01   8.937580e+00   2.001663e+01   3.896125e+05  -1.732046e+05   7.572982e+05  -3.020945e+05  -6.795243e+05   3.995272e+00   8.690790e+05   1.004152e-30   0.000000e+00   0.000000e+00
       48000   4.799900e-07   2.870148e-01   8.923724e+00   2.007722e+01   3.896124e+05  -1.732049e+05   7.572982e+05  -2.643551e+06  -5.946440e+06   9.887972e+00   8.690790e+05   7.702772e-29   0.000000e+00   0.000000e+00
       56000   5.599900e-07   3.181838e-01   8.909868e+00   2.013780e+01   3.896123e+05  -1.732051e+05   7.572982e+05  -4.588241e+00  -6.472716e+00   8.801391e-01   8.690790e+05   1.159130e-40   0.000000e+00   0.000000e+00
       64000   6.399900e-07   3.493527e-01   8.896011e+00   2.019839e+01   3.896123e+05  -1.732051e+05   7.572982e+05  -3.495857e+00   8.918252e+00   3.838271e+00   8.690790e+05   1.937132e-40   0.000000e+00   0.000000e+00
       72000   7.199900e-07   3.805217e-01   8.882155e+00   2.025897e+01   3.896123e+05  -1.732051e+05   7.572982e+05  -1.333591e+01  -2.999817e+01  -1.269064e-20   8.690790e+05   1.960542e-39   0.000000e+00   0.000000e+00
       80000   7.999900e-07   4.116907e-01   8.868298e+00   2.031955e+01   3.896123e+05  -1.732051e+05   7.572982e+05  -5.133336e+00  -1.154707e+01   4.392559e-21   8.690790e+05   2.905140e-40   0.000000e+00   0.000000e+00
       88000   8.799900e-07   4.428597e-01   8.854442e+00   2.038014e+01   3.896123e+05  -1.732051e+05   7.572982e+05  -5.349702e+00  -1.203377e+01  -6.797849e-23   8.690790e+05   3.155202e-40   0.000000e+00   0.000000e+00
       96000   9.599900e-07   4.740287e-01   8.840586e+00   2.044072e+01   3.896123e+05  -1.732051e+05   7.572982e+05  -4.990661e+00  -1.122613e+01  -2.076543e-21   8.690790e+05   2.746216e-40   0.000000e+00   0.000000e+00
      104000   1.039990e-06   5.051976e-01   8.826729e+00   2.050130e+01   3.896123e+05  -1.732051e+05   7.572982e+05  -2.548574e+00  -5.732833e+00   2.021849e-22   8.690790e+05   7.160574e-41   0.000000e+00   0.000000e+00
      112000   1.119990e-06   5.363666e-01   8.812873e+00   2.056189e+01   3.896123e+05  -1.732051e+05   7.572982e+05  -2.996154e+00  -6.739632e+00  -1.198046e-22   8.690790e+05   9.896563e-41   0.000000e+00   0.000000e+00
      120000   1.199990e-06   5.675356e-01   8.799016e+00   2.062247e+01   3.896123e+05  -1.732051e+05   7.572982e+05   1.031628e-01   2.320572e-01   6.587766e-23   8.690790e+05   1.166137e-43   0.000000e+00   0.000000e+00
      128000   1.279990e-06   5.987046e-01   8.785160e+00   2.068306e+01   3.896123e+05  -1.732051e+05   7.572982e+05   2.634948e+00   5.927125e+00  -4.318155e-23   8.690790e+05   7.652655e-41   0.000000e+00   0.000000e+00
      136000   1.359990e-06   6.298736e-01   8.771304e+00   2.074364e+01   3.896123e+05  -1.732051e+05   7.572982e+05  -4.879284e+00  -1.097559e+01   1.610184e-23   8.690790e+05   2.624521e-40   0.000000e+00   0.000000e+00
      144000   1.439990e-06   6.610425e-01   8.757447e+00   2.080422e+01   3.896123e+05  -1.732051e+05   7.572982e+05  -4.632347e+00  -1.042013e+01  -5.311471e-21   8.690790e+05   2.365666e-40   0.000000e+00   0.000000e+00
      152000   1.519990e-06   6.922115e-01   8.743591e+00   2.086481e+01   3.896123e+05  -1.732051e+05   7.572982e+05  -5.525178e+00  -1.242849e+01   1.435140e-21   8.690790e+05   3.365481e-40   0.000000e+00   0.000000e+00
      160000   1.599990e-06   7.233805e-01   8.729734e+00   2.092539e+01   3.896123e+05  -1.732051e+05   7.572982e+05  -3.768749e+00  -8.477527e+00   3.454794e-21   8.690790e+05   1.566127e-40   0.000000e+00   0.000000e+00
      168000   1.679990e-06   7.545495e-01   8.715878e+00   2.098598e+01   3.896123e+05  -1.732051e+05   7.572982e+05  -1.672721e+00  -3.762665e+00  -5.515728e-22   8.690790e+05   3.085712e-41   0.000000e+00   0.000000e+00
      176000   1.759990e-06   7.857185e-01   8.702022e+00   2.104656e+01   3.896123e+05  -1.732051e+05   7.572982e+05  -2.292061e+00  -5.155825e+00  -1.252072e-21   8.690790e+05   5.791999e-41   0.000000e+00   0.000000e+00
      184000   1.839990e-06   8.168875e-01   8.688165e+00   2.110714e+01   3.896123e+05  -1.732051e+05   7.572982e+05  -1.644484e+00  -3.699148e+00  -1.640523e-21   8.690790e+05   2.982413e-41   0.000000e+00   0.000000e+00
      192000   1.919990e-06   8.480564e-01   8.674309e+00   2.116773e+01   3.896123e+05  -1.732051e+05   7.572982e+05   4.168535e-01   9.376817e-01  -4.888757e-23   8.690790e+05   1.913384e-42   0.000000e+00   0.000000e+00
      200000   1.999990e-06   8.792254e-01   8.660452e+00   2.122831e+01   3.896123e+05  -1.732051e+05   7.572982e+05  -3.509343e-01  -7.894012e-01  -2.130137e-22   8.690790e+05   1.356878e-42   0.000000e+00   0.000000e+00
      208000   2.079990e-06   9.103944e-01   8.646596e+00   2.128889e+01   3.896123e+05  -1.732051e+05   7.572982e+05  -4.341842e+00  -9.766658e+00   1.141240e-22   8.690790e+05   2.078123e-40   0.000000e+00   0.000000e+00
      216000   2.159990e-06   9.415634e-01   8.632740e+00   2.134948e+01   3.896123e+05  -1.732051e+05   7.572982e+05  -4.140582e-01  -9.313939e-01  -1.033267e-22   8.690790e+05   1.891817e-42   0.000000e+00   0.000000e+00
      224000   2.239990e-06   9.727324e-01   8.618883e+00   2.141006e+01   3.896123e+05  -1.732051e+05   7.572982e+05  -5.017214e+00  -1.128586e+01  -2.082861e-21   8.690790e+05   2.774950e-40   0.000000e+00   0.000000e+00
      232000   2.319990e-06   1.003901e+00   8.605027e+00   2.147065e+01   3.896123e+05  -1.732051e+05   7.572982e+05  -1.817169e+00  -4.087589e+00   1.704399e-21   8.690790e+05   3.642723e-41   0.000000e+00   0.000000e+00
      240000   2.399990e-06   1.035070e+00   8.591170e+00   2.153123e+01   3.896123e+05  -1.732051e+05   7.572982e+05  -2.430745e-01  -5.467785e-01  -2.141395e-22   8.690790e+05   6.515950e-43   0.000000e+00   0.000000e+00
      248000   2.479990e-06   1.066239e+00   8.577314e+00   2.159181e+01   3.896123e+05  -1.732051e+05   7.572982e+05   4.043656e-02   9.095911e-02   2.521133e-23   8.690790e+05   1.799530e-44   0.000000e+00   0.000000e+00
      256000   2.559990e-06   1.097408e+00   8.563458e+00   2.165240e+01   3.896123e+05  -1.732051e+05   7.572982e+05  -7.544587e+00  -1.697100e+01  -1.490189e-21   8.690790e+05   6.275236e-40   0.000000e+00   0.000000e+00
      264000   2.639990e-06   1.128577e+00   8.549601e+00   2.171298e+01   3.896123e+05  -1.732051e+05   7.572982e+05  -1.269134e+00  -2.854826e+00   6.542218e-22   8.690790e+05   1.775180e-41   0.000000e+00   0.000000e+00
      272000   2.719990e-06   1.159746e+00   8.535745e+00   2.177357e+01   3.896123e+05  -1.732051e+05   7.572982e+05  -2.965094e+00  -6.669763e+00   1.777611e-21   8.690790e+05   9.691411e-41   0.000000e+00   0.000000e+00
      280000   2.799990e-06   1.190915e+00   8.521888e+00   2.183415e+01   3.896123e+05  -1.732051e+05   7.572982e+05   1.764826e+00   3.969848e+00   8.127684e-22   8.690790e+05   3.432404e-41   0.000000e+00   0.000000e+00
      288000   2.879990e-06   1.222084e+00   8.508032e+00   2.189473e+01   3.896123e+05  -1.732051e+05   7.572982e+05  -2.987259e+00  -6.719623e+00  -1.483829e-21   8.690790e+05   9.836947e-41   0.000000e+00   0.000000e+00
      296000   2.959990e-06   1.253253e+00   8.494175e+00   2.195532e+01   3.896123e+05  -1.732051e+05   7.572982e+05  -3.195144e+00  -7.187245e+00   2.912189e-21   8.690790e+05   1.125407e-40   0.000000e+00   0.000000e+00
      304000   3.039990e-06   1.284422e+00   8.480319e+00   2.201590e+01   3.896123e+05  -1.732051e+05   7.572982e+05   2.394270e+00   5.385738e+00  -2.965437e-21   8.690790e+05   6.319489e-41   0.000000e+00   0.000000e+00
      312000   3.119990e-06   1.315591e+00   8.466463e+00   2.207648e+01   3.896123e+05  -1.732051e+05   7.572982e+05  -6.026775e+00  -1.355679e+01   8.357645e-22   8.690790e+05   4.003978e-40   0.000000e+00   0.000000e+00
      320000   3.199990e-06   1.346760e+00   8.452606e+00   2.213707e+01   3.896123e+05  -1.732051e+05   7.572982e+05   8.256754e-01   1.857297e+00  -1.198490e-22   8.690790e+05   7.510280e-42   0.000000e+00   0.000000e+00
      328000   3.279990e-06   1.377929e+00   8.438750e+00   2.219765e+01   3.896123e+05  -1.732051e+05   7.572982e+05   3.371374e+00   7.583660e+00   7.473025e-23   8.690790e+05   1.252864e-40   0.000000e+00   0.000000e+00
      336000   3.359990e-06   1.409098e+00   8.424893e+00   2.225824e+01   3.896123e+05  -1.732051e+05   7.572982e+05  -3.591558e+00  -8.078950e+00   7.924187e-22   8.690790e+05   1.422239e-40   0.000000e+00   0.000000e+00
      344000   3.439990e-06   1.440267e+00   8.411037e+00   2.231882e+01   3.896123e+05  -1.732051e+05   7.572982e+05  -4.117702e+00  -9.262472e+00   7.629358e-22   8.690790e+05   1.869263e-40   0.000000e+00   0.000000e+00
      352000   3.519990e-06   1.471436e+00   8.397181e+00   2.237940e+01   3.896123e+05  -1.732051e+05   7.572982e+05  -8.939753e-01  -2.010933e+00  -1.127778e-22   8.690790e+05   8.811356e-42   0.000000e+00   0.000000e+00
      360000   3.599990e-06   1.502605e+00   8.383324e+00   2.243999e+01   3.896123e+05  -1.732051e+05   7.572982e+05  -2.681753e+00  -6.032408e+00   3.277023e-21   8.690790e+05   7.928176e-41   0.000000e+00   0.000000e+00
      368000   3.679990e-06   1.533774e+00   8.369468e+00   2.250057e+01   3.896123e+05  -1.732051e+05   7.572982e+05  -4.365305e+00  -9.819437e+00   2.432984e-22   8.690790e+05   2.100987e-40   0.000000e+00   0.000000e+00
      376000   3.759990e-06   1.564943e+00   8.355611e+00   2.256116e+01   3.896123e+05  -1.732051e+05   7.572982e+05  -3.482425e+00  -7.833463e+00  -4.781051e-21   8.690790e+05   1.337099e-40   0.000000e+00   0.000000e+00
      384000   3.839990e-06   1.596112e+00   8.341755e+00   2.262174e+01   3.896123e+05  -1.732051e+05   7.572982e+05  -3.227873e+00  -7.260866e+00  -1.469055e-21   8.690790e+05   1.148616e-40   0.000000e+00   0.000000e+00
      392000   3.919990e-06   1.627281e+00   8.327899e+00   2.268232e+01   3.896123e+05  -1.732051e+05   7.572982e+05  -4.733353e+00  -1.064733e+01   1.083068e-21   8.690790e+05   2.469974e-40   0.000000e+00   0.000000e+00
      400000   3.999990e-06   1.658450e+00   8.314042e+00   2.274291e+01   3.896123e+05  -1.732051e+05   7.572982e+05  -4.423945e+00  -9.951342e+00   1.807858e-21   8.690790e+05   2.157673e-40   0.000000e+00   0.000000e+00
      408000   4.079990e-06   1.689619e+00   8.300186e+00   2.280349e+01   3.896123e+05  -1.732051e+05   7.572982e+05  -5.798304e+00  -1.304286e+01   1.845166e-22   8.690790e+05   3.706464e-40   0.000000e+00   0.000000e+00
      416000   4.159990e-06   1.720788e+00   8.286329e+00   2.286407e+01   3.896123e+05  -1.732051e+05   7.572982e+05  -4.494571e+00  -1.011021e+01   4.261900e-21   8.690790e+05   2.227347e-40   0.000000e+00   0.000000e+00
      424000   4.239990e-06   1.751957e+00   8.272473e+00   2.292466e+01   3.896123e+05  -1.732051e+05   7.572982e+05  -4.857846e+00  -1.092737e+01   7.890620e-21   8.690790e+05   2.601589e-40   0.000000e+00   0.000000e+00
      432000   4.319990e-06   1.783126e+00   8.258617e+00   2.298524e+01   3.896123e+05  -1.732051e+05   7.572982e+05  -5.801946e+00  -1.305106e+01   1.333170e-21   8.690790e+05   3.711094e-40   0.000000e+00   0.000000e+00
      440000   4.399990e-06   1.814295e+00   8.244760e+00   2.304583e+01   3.896123e+05  -1.732051e+05   7.572982e+05  -2.213522e+00  -4.979158e+00   4.725454e-22   8.690790e+05   5.402421e-41   0.000000e+00   0.000000e+00
      448000   4.479990e-06   1.845464e+00   8.230904e+00   2.310641e+01   3.896123e+05  -1.732051e+05   7.572982e+05  -2.718308e+00  -6.114637e+00  -1.172861e-21   8.690790e+05   8.145435e-41   0.000000e+00   0.000000e+00
      456000   4.559990e-06   1.876633e+00   8.217047e+00   2.316699e+01   3.896123e+05  -1.732051e+05   7.572982e+05  -4.104442e+00  -9.232643e+00  -7.254042e-22   8.690790e+05   1.857136e-40   0.000000e+00   0.000000e+00
      464000   4.639990e-06   1.907802e+00   8.203191e+00   2.322758e+01   3.896123e+05  -1.732051e+05   7.572982e+05  -4.714543e+00  -1.060502e+01   5.593904e-22   8.690790e+05   2.450707e-40   0.000000e+00   0.000000e+00
      472000   4.719990e-06   1.938971e+00   8.189335e+00   2.328816e+01   3.896123e+05  -1.732051e+05   7.572982e+05  -1.916264e+00  -4.310496e+00   1.674246e-22   8.690790e+05   4.049681e-41   0.000000e+00   0.000000e+00
      480000   4.799990e-06   1.970140e+00   8.175478e+00   2.334875e+01   3.896123e+05  -1.732051e+05   7.572982e+05  -1.661821e+00  -3.738146e+00   3.908596e-22   8.690790e+05   3.044381e-41   0.000000e+00   0.000000e+00
      488000   4.879990e-06   2.001309e+00   8.161622e+00   2.340933e+01   3.896123e+05  -1.732051e+05   7.572982e+05  -5.175313e+00  -1.164149e+01   4.038484e-21   8.690790e+05   2.952953e-40   0.000000e+00   0.000000e+00
      496000   4.959990e-06   2.032478e+00   8.147765e+00   2.346991e+01   3.896123e+05  -1.732051e+05   7.572982e+05  -4.653928e+00  -1.046867e+01  -3.401844e-21   8.690790e+05   2.387941e-40   0.000000e+00   0.000000e+00
      504000   5.039990e-06   2.063647e+00   8.133909e+00   2.353050e+01   3.896123e+05  -1.732051e+05   7.572982e+05  -7.989254e+00  -1.797125e+01   6.934817e-21   8.690790e+05   7.036659e-40   0.000000e+00   0.000000e+00
      512000   5.119990e-06   2.094816e+00   8.120052e+00   2.359108e+01   3.896123e+05  -1.732051e+05   7.572982e+05  -9.325446e+00  -2.097691e+01   2.339588e-21   8.690790e+05   9.587290e-40   0.000000e+00   0.000000e+00
      520000   5.199990e-06   2.125985e+00   8.106196e+00   2.365166e+01   3.896123e+05  -1.732051e+05   7.572982e+05  -6.732327e+00  -1.514388e+01   3.214629e-21   8.690790e+05   4.996737e-40   0.000000e+00   0.000000e+00
      528000   5.279990e-06   2.157154e+00   8.092340e+00   2.371225e+01   3.896123e+05  -1.732051e+05   7.572982e+05  -6.868122e+00  -1.544934e+01   1.428839e-22   8.690790e+05   5.200693e-40   0.000000e+00   0.000000e+00
      536000   5.359990e-06   2.188323e+00   8.078483e+00   2.377283e+01   3.896123e+05  -1.732051e+05   7.572982e+05  -6.053999e+00  -1.361803e+01  -4.864842e-21   8.690790e+05   4.040838e-40   0.000000e+00   0.000000e+00
      544000   5.439990e-06   2.219492e+00   8.064627e+00   2.383342e+01   3.896123e+05  -1.732051e+05   7.572982e+05  -4.963412e+00  -1.116484e+01   4.043313e-21   8.690790e+05   2.716550e-40   0.000000e+00   0.000000e+00
      552000   5.519990e-06   2.250661e+00   8.050770e+00   2.389400e+01   3.896123e+05  -1.732051e+05   7.572982e+05  -1.084480e+00  -2.439460e+00  -2.475287e-22   8.690790e+05   1.297788e-41   0.000000e+00   0.000000e+00
      560000   5.599990e-06   2.281830e+00   8.036914e+00   2.395458e+01   3.896123e+05  -1.732051e+05   7.572982e+05  -5.767253e+00  -1.297302e+01   4.827196e-21   8.690790e+05   3.666665e-40   0.000000e+00   0.000000e+00
      568000   5.679990e-06   2.312999e+00   8.023058e+00   2.401517e+01   3.896123e+05  -1.732051e+05   7.572982e+05  -2.814064e+00  -6.330032e+00   5.657764e-22   8.690790e+05   8.728841e-41   0.000000e+00   0.000000e+00
      576000   5.759990e-06   2.344168e+00   8.009201e+00   2.407575e+01   3.896123e+05  -1.732051e+05   7.572982e+05  -4.977442e+00  -1.119639e+01   7.993786e-21   8.690790e+05   2.731099e-40   0.000000e+00   0.000000e+00
      584000   5.839990e-06   2.375336e+00   7.995345e+00   2.413634e+01   3.896123e+05  -1.732051e+05   7.572982e+05  -9.019287e+00  -2.028823e+01  -9.417347e-21   8.690790e+05   8.967257e-40   0.000000e+00   0.000000e+00
      592000   5.919990e-06   2.406505e+00   7.981488e+00   2.419692e+01   3.896123e+05  -1.732051e+05   7.572982e+05  -7.200693e+00  -1.619744e+01  -7.110453e-21   8.690790e+05   5.716714e-40   0.000000e+00   0.000000e+00
      600000   5.999990e-06   2.437674e+00   7.967632e+00   2.425750e+01   3.896123e+05  -1.732051e+05   7.572982e+05  -4.708017e+00  -1.059034e+01  -2.441077e-21   8.690790e+05   2.443704e-40   0.000000e+00   0.000000e+00
      608000   6.079990e-06   2.468843e+00   7.953776e+00   2.431809e+01   3.896123e+05  -1.732051e+05   7.572982e+05  -5.765303e+00  -1.296863e+01   2.515486e-22   8.690790e+05   3.664785e-40   0.000000e+00   0.000000e+00
      616000   6.159990e-06   2.500012e+00   7.939919e+00   2.437867e+01   3.896123e+05  -1.732051e+05   7.572982e+05  -5.750504e+00  -1.293534e+01  -1.560674e-21   8.690790e+05   3.645650e-40   0.000000e+00   0.000000e+00
      624000   6.239990e-06   2.531181e+00   7.926063e+00   2.443925e+01   3.896123e+05  -1.732051e+05   7.572982e+05  -7.177489e+00  -1.614524e+01  -2.577783e-21   8.690790e+05   5.679147e-40   0.000000e+00   0.000000e+00
      632000   6.319990e-06   2.562350e+00   7.912206e+00   2.449984e+01   3.896123e+05  -1.732051e+05   7.572982e+05  -9.440565e+00  -2.123586e+01   4.053117e-22   8.690790e+05   9.825217e-40   0.000000e+00   0.000000e+00
      640000   6.399990e-06   2.593519e+00   7.898350e+00   2.456042e+01   3.896123e+05  -1.732051e+05   7.572982e+05  -5.244838e+00  -1.179788e+01  -1.272456e-21   8.690790e+05   3.032877e-40   0.000000e+00   0.000000e+00
      648000   6.479990e-06   2.624688e+00   7.884494e+00   2.462101e+01   3.896123e+05  -1.732051e+05   7.572982e+05  -1.116866e+01  -2.512308e+01   4.562227e-21   8.690790e+05   1.375193e-39   0.000000e+00   0.000000e+00
      656000   6.559990e-06   2.655857e+00   7.870637e+00   2.468159e+01   3.896123e+05  -1.732051e+05   7.572982e+05  -1.225523e+01  -2.756724e+01  -1.113106e-20   8.690790e+05   1.655790e-39   0.000000e+00   0.000000e+00
      664000   6.639990e-06   2.687026e+00   7.856781e+00   2.474217e+01   3.896123e+05  -1.732051e+05   7.572982e+05  -8.061647e+00  -1.813409e+01   1.712417e-21   8.690790e+05   7.165377e-40   0.000000e+00   0.000000e+00
      672000   6.719990e-06   2.718195e+00   7.842924e+00   2.480276e+01   3.896123e+05  -1.732051e+05   7.572982e+05  -5.609566e+00  -1.261831e+01   1.646874e-21   8.690790e+05   3.469245e-40   0.000000e+00   0.000000e+00
      680000   6.799990e-06   2.749364e+00   7.829068e+00   2.486334e+01   3.896123e+05  -1.732051e+05   7.572982e+05  -5.391395e+00  -1.212755e+01   3.956525e-21   8.690790e+05   3.204638e-40   0.000000e+00   0.000000e+00
      688000   6.879990e-06   2.780533e+00   7.815212e+00   2.492393e+01   3.896123e+05  -1.732051e+05   7.572982e+05  -1.279951e+00  -2.879158e+00  -2.360482e-22   8.690790e+05   1.806896e-41   0.000000e+00   0.000000e+00
      696000   6.959990e-06   2.811702e+00   7.801355e+00   2.498451e+01   3.896123e+05  -1.732051e+05   7.572982e+05  -4.473615e+00  -1.006307e+01   3.945575e-21   8.690790e+05   2.206046e-40   0.000000e+00   0.000000e+00
      704000   7.039990e-06   2.842871e+00   7.787499e+00   2.504509e+01   3.896123e+05  -1.732051e+05   7.572982e+05  -5.935503e+00  -1.335148e+01   4.084095e-21   8.690790e+05   3.883726e-40   0.000000e+00   0.000000e+00
      712000   7.119990e-06   2.874040e+00   7.773642e+00   2.510568e+01   3.896123e+05  -1.732051e+05   7.572982e+05  -3.576170e+00  -8.044335e+00  -1.062137e-21   8.690790e+05   1.410017e-40   0.000000e+00   0.000000e+00
      720000   7.199990e-06   2.905209e+00   7.759786e+00   2.516626e+01   3.896123e+05  -1.732051e+05   7.572982e+05  -3.963574e+00  -8.915772e+00  -1.977417e-21   8.690790e+05   1.732444e-40   0.000000e+00   0.000000e+00
      728000   7.279990e-06   2.936378e+00   7.745930e+00   2.522685e+01   3.896123e+05  -1.732051e+05   7.572982e+05  -8.152201e+00  -1.833779e+01  -2.983585e-21   8.690790e+05   7.326134e-40   0.000000e+00   0.000000e+00
      736000   7.359990e-06   2.967547e+00   7.732073e+00   2.528743e+01   3.896123e+05  -1.732051e+05   7.572982e+05  -1.169458e+01  -2.630610e+01   7.338490e-21   8.690790e+05   1.507677e-39   0.000000e+00   0.000000e+00
      744000   7.439990e-06   2.998716e+00   7.718217e+00   2.534801e+01   3.896123e+05  -1.732051e+05   7.572982e+05  -1.360770e+00  -3.060953e+00   3.857146e-22   8.690790e+05   2.043012e-41   0.000000e+00   0.000000e+00
      752000   7.519990e-06   3.029885e+00   7.704360e+00   2.540860e+01   3.896123e+05  -1.732051e+05   7.572982e+05  -5.923849e+00  -1.332527e+01  -3.255201e-21   8.690790e+05   3.869306e-40   0.000000e+00   0.000000e+00
      760000   7.599990e-06   3.061054e+00   7.690504e+00   2.546918e+01   3.896123e+05  -1.732051e+05   7.572982e+05  -1.004927e+01  -2.260510e+01  -4.586913e-21   8.690790e+05   1.113336e-39   0.000000e+00   0.000000e+00
      768000   7.679990e-06   3.092223e+00   7.676647e+00   2.552976e+01   3.896123e+05  -1.732051e+05   7.572982e+05  -3.736347e+00  -8.404642e+00  -6.933626e-22   8.690790e+05   1.539222e-40   0.000000e+00   0.000000e+00
      776000   7.759990e-06   3.123392e+00   7.662791e+00   2.559035e+01   3.896123e+05  -1.732051e+05   7.572982e+05  -7.523322e+00  -1.692317e+01   1.322554e-21   8.690790e+05   6.239783e-40   0.000000e+00   0.000000e+00
      784000   7.839990e-06   3.154561e+00   7.648935e+00   2.565093e+01   3.896123e+05  -1.732051e+05   7.572982e+05  -3.697958e+00  -8.318289e+00   1.265402e-21   8.690790e+05   1.507661e-40   0.000000e+00   0.000000e+00
      792000   7.919990e-06   3.185730e+00   7.635078e+00   2.571152e+01   3.896123e+05  -1.732051e+05   7.572982e+05  -9.978966e+00  -2.244696e+01   5.857667e-22   8.690790e+05   1.097809e-39   0.000000e+00   0.000000e+00
      800000   7.999990e-06   3.216899e+00   7.621222e+00   2.577210e+01   3.896123e+05  -1.732051e+05   7.572982e+05  -3.964298e+00  -8.917400e+00  -5.911473e-22   8.690790e+05   1.733068e-40   0.000000e+00   0.000000e+00
      808000   8.079990e-06   3.248068e+00   7.607365e+00   2.583268e+01   3.896123e+05  -1.732051e+05   7.572982e+05  -8.769779e+00  -1.972698e+01   8.858175e-21   8.690790e+05   8.477989e-40   0.000000e+00   0.000000e+00
      816000   8.159990e-06   3.279237e+00   7.593509e+00   2.589327e+01   3.896123e+05  -1.732051e+05   7.572982e+05  -8.090429e+00  -1.819883e+01   3.975312e-21   8.690790e+05   7.215884e-40   0.000000e+00   0.000000e+00
      824000   8.239990e-06   3.310406e+00   7.579653e+00   2.595385e+01   3.896123e+05  -1.732051e+05   7.572982e+05  -6.055566e+00  -1.362156e+01  -1.198248e-21   8.690790e+05   4.042757e-40   0.000000e+00   0.000000e+00
      832000   8.319990e-06   3.341575e+00   7.565796e+00   2.601444e+01   3.896123e+05  -1.732051e+05   7.572982e+05  -8.383344e+00  -1.885772e+01  -6.034829e-21   8.690790e+05   7.748382e-40   0.000000e+00   0.000000e+00
      840000   8.399990e-06   3.372744e+00   7.551940e+00   2.607502e+01   3.896123e+05  -1.732051e+05   7.572982e+05  -8.057736e+00  -1.812529e+01   7.597233e-21   8.690790e+05   7.158182e-40   0.000000e+00   0.000000e+00
      848000   8.479990e-06   3.403913e+00   7.538083e+00   2.613560e+01   3.896123e+05  -1.732051e+05   7.572982e+05  -6.378635e+00  -1.434828e+01   4.618511e-21   8.690790e+05   4.485744e-40   0.000000e+00   0.000000e+00
      856000   8.559990e-06   3.435082e+00   7.524227e+00   2.619619e+01   3.896123e+05  -1.732051e+05   7.572982e+05  -5.981619e+00  -1.345522e+01   1.528093e-21   8.690790e+05   3.944727e-40   0.000000e+00   0.000000e+00
      864000   8.639990e-06   3.466251e+00   7.510371e+00   2.625677e+01   3.896123e+05  -1.732051e+05   7.572982e+05  -7.533621e+00  -1.694633e+01  -1.115206e-21   8.690790e+05   6.257184e-40   0.000000e+00   0.000000e+00
      872000   8.719990e-06   3.497420e+00   7.496514e+00   2.631735e+01   3.896123e+05  -1.732051e+05   7.572982e+05  -6.196221e+00  -1.393795e+01   1.208886e-21   8.690790e+05   4.232644e-40   0.000000e+00   0.000000e+00
      880000   8.799990e-06   3.528589e+00   7.482658e+00   2.637794e+01   3.896123e+05  -1.732051e+05   7.572982e+05  -4.152608e+00  -9.340991e+00  -1.935101e-21   8.690790e+05   1.901167e-40   0.000000e+00   0.000000e+00
      888000   8.879990e-06   3.559758e+00   7.468801e+00   2.643852e+01   3.896123e+05  -1.732051e+05   7.572982e+05  -9.522578e+00  -2.142035e+01   1.194310e-20   8.690790e+05   9.996747e-40   0.000000e+00   0.000000e+00
      896000   8.959990e-06   3.590927e+00   7.454945e+00   2.649911e+01   3.896123e+05  -1.732051e+05   7.572982e+05  -1.150592e+01  -2.588174e+01   5.469506e-21   8.690790e+05   1.459474e-39   0.000000e+00   0.000000e+00
      904000   9.039990e-06   3.622096e+00   7.441089e+00   2.655969e+01   3.896123e+05  -1.732051e+05   7.572982e+05  -4.884975e+00  -1.098840e+01   4.264086e-22   8.690790e+05   2.631205e-40   0.000000e+00   0.000000e+00
      912000   9.119990e-06   3.653265e+00   7.427232e+00   2.662027e+01   3.896123e+05  -1.732051e+05   7.572982e+05  -8.977155e+00  -2.019346e+01  -6.045635e-22   8.690790e+05   8.884449e-40   0.000000e+00   0.000000e+00
      920000   9.199990e-06   3.684434e+00   7.413376e+00   2.668086e+01   3.896123e+05  -1.732051e+05   7.572982e+05  -1.056063e+01  -2.375538e+01   1.487393e-21   8.690790e+05   1.229521e-39   0.000000e+00   0.000000e+00
      928000   9.279990e-06   3.715603e+00   7.399519e+00   2.674144e+01   3.896123e+05  -1.732051e+05   7.572982e+05  -4.702882e+00  -1.057879e+01   3.663672e-21   8.690790e+05   2.438224e-40   0.000000e+00   0.000000e+00
      936000   9.359990e-06   3.746772e+00   7.385663e+00   2.680203e+01   3.896123e+05  -1.732051e+05   7.572982e+05  -6.065453e+00  -1.364380e+01   8.172396e-22   8.690790e+05   4.056426e-40   0.000000e+00   0.000000e+00
      944000   9.439990e-06   3.777941e+00   7.371807e+00   2.686261e+01   3.896123e+05  -1.732051e+05   7.572982e+05  -3.564759e+00  -8.018667e+00   1.741630e-23   8.690790e+05   1.401228e-40   0.000000e+00   0.000000e+00
      952000   9.519990e-06   3.809110e+00   7.357950e+00   2.692319e+01   3.896123e+05  -1.732051e+05   7.572982e+05  -7.612552e+00  -1.712388e+01   1.301374e-21   8.690790e+05   6.389540e-40   0.000000e+00   0.000000e+00
      960000   9.599990e-06   3.840279e+00   7.344094e+00   2.698378e+01   3.896123e+05  -1.732051e+05   7.572982e+05  -5.033242e+00  -1.132191e+01  -1.531743e-21   8.690790e+05   2.793339e-40   0.000000e+00   0.000000e+00
      968000   9.679990e-06   3.871448e+00   7.330237e+00   2.704436e+01   3.896123e+05  -1.732051e+05   7.572982e+05  -1.197835e+01  -2.694444e+01  -7.193683e-21   8.690790e+05   1.581747e-39   0.000000e+00   0.000000e+00
      976000   9.759990e-06   3.902617e+00   7.316381e+00   2.710494e+01   3.896123e+05  -1.732051e+05   7.572982e+05  -6.467244e+00  -1.454760e+01  -2.110605e-21   8.690790e+05   4.610783e-40   0.000000e+00   0.000000e+00
      984000   9.839990e-06   3.933786e+00   7.302524e+00   2.716553e+01   3.896123e+05  -1.732051e+05   7.572982e+05  -8.613191e+00  -1.937475e+01  -8.705911e-21   8.690790e+05   8.178493e-40   0.000000e+00   0.000000e+00
      992000   9.919990e-06   3.964955e+00   7.288668e+00   2.722611e+01   3.896123e+05  -1.732051e+05   7.572982e+05  -9.228261e+00  -2.075830e+01   8.301615e-21   8.690790e+05   9.388787e-40   0.000000e+00   0.000000e+00
     1000000   9.999990e-06   3.996123e+00   7.274812e+00   2.728670e+01   3.896123e+05  -1.732051e+05   7.572982e+05  -9.444275e+00  -2.124421e+01  -1.580579e-21   8.690790e+05   9.833476e-40   0.000000e+00   0.000000e+00
     1008000   1.007999e-05   4.027292e+00   7.260955e+00   2.734728e+01   3.896123e+05  -1.732051e+05   7.572982e+05  -7.245924e+00  -1.629918e+01  -2.724167e-21   8.690790e+05   5.787985e-40   0.000000e+00   0.000000e+00
     1016000   1.015999e-05   4.058461e+00   7.247099e+00   2.740786e+01   3.896123e+05  -1.732051e+05   7.572982e+05  -8.437302e+00  -1.897910e+01  -5.634617e-21   8.690790e+05   7.848351e-40   0.000000e+00   0.000000e+00
     1024000   1.023999e-05   4.089630e+00   7.233242e+00   2.746845e+01   3.896123e+05  -1.732051e+05   7.572982e+05  -8.515538e+00  -1.915508e+01   3.795120e-21   8.690790e+05   7.994575e-40   0.000000e+00   0.000000e+00
     1032000   1.031999e-05   4.120799e+00   7.219386e+00   2.752903e+01   3.896123e+05  -1.732051e+05   7.572982e+05  -8.637918e+00  -1.943037e+01   6.634432e-21   8.690790e+05   8.225347e-40   0.000000e+00   0.000000e+00
     1040000   1.039999e-05   4.151968e+00   7.205530e+00   2.758962e+01   3.896123e+05  -1.732051e+05   7.572982e+05  -1.151766e+01  -2.590814e+01   2.208521e-21   8.690790e+05   1.462425e-39   0.000000e+00   0.000000e+00
     1048000   1.047999e-05   4.183137e+00   7.191673e+00   2.765020e+01   3.896123e+05  -1.732051e+05   7.572982e+05  -1.577560e+01  -3.548607e+01  -3.441291e-21   8.690790e+05   2.743663e-39   0.000000e+00   0.000000e+00
     1056000   1.055999e-05   4.214306e+00   7.177817e+00   2.771078e+01   3.896123e+05  -1.732051e+05   7.572982e+05  -7.354008e+00  -1.654231e+01   4.697895e-21   8.690790e+05   5.961901e-40   0.000000e+00   0.000000e+00
     1064000   1.063999e-05   4.245475e+00   7.163960e+00   2.777137e+01   3.896123e+05  -1.732051e+05   7.572982e+05  -9.773339e+00  -2.198442e+01   1.604992e-21   8.690790e+05   1.053007e-39   0.000000e+00   0.000000e+00
     1072000   1.071999e-05   4.276644e+00   7.150104e+00   2.783195e+01   3.896123e+05  -1.732051e+05   7.572982e+05  -4.150274e+00  -9.335741e+00   2.296190e-21   8.690790e+05   1.899417e-40   0.000000e+00   0.000000e+00
     1080000   1.079999e-05   4.307813e+00   7.136248e+00   2.789253e+01   3.896123e+05  -1.732051e+05   7.572982e+05  -2.961982e+00  -6.662764e+00   3.158795e-22   8.690790e+05   9.672836e-41   0.000000e+00   0.000000e+00
     1088000   1.087999e-05   4.338982e+00   7.122391e+00   2.795312e+01   3.896123e+05  -1.732051e+05   7.572982e+05  -6.001918e+00  -1.350088e+01   7.996305e-22   8.690790e+05   3.971255e-40   0.000000e+00   0.000000e+00
     1096000   1.095999e-05   4.370151e+00   7.108535e+00   2.801370e+01   3.896123e+05  -1.732051e+05   7.572982e+05  -5.793831e+00  -1.303280e+01   1.644933e-22   8.690790e+05   3.700944e-40   0.000000e+00   0.000000e+00
     1104000   1.103999e-05   4.401320e+00   7.094678e+00   2.807429e+01   3.896123e+05  -1.732051e+05   7.572982e+05  -6.256564e+00  -1.407369e+01  -4.987598e-22   8.690790e+05   4.315626e-40   0.000000e+00   0.000000e+00
     1112000   1.111999e-05   4.432489e+00   7.080822e+00   2.813487e+01   3.896123e+05  -1.732051e+05   7.572982e+05  -5.981262e+00  -1.345441e+01  -4.941084e-21   8.690790e+05   3.944100e-40   0.000000e+00   0.000000e+00
     1120000   1.119999e-05   4.463658e+00   7.066966e+00   2.819545e+01   3.896123e+05  -1.732051e+05   7.572982e+05  -6.531163e+00  -1.469138e+01  -1.547126e-21   8.690790e+05   4.702666e-40   0.000000e+00   0.000000e+00
     1128000   1.127999e-05   4.494827e+00   7.053109e+00   2.825604e+01   3.896123e+05  -1.732051e+05   7.572982e+05  -6.840688e+00  -1.538763e+01  -8.165081e-22   8.690790e+05   5.159072e-40   0.000000e+00   0.000000e+00
     1136000   1.135999e-05   4.525996e+00   7.039253e+00   2.831662e+01   3.896123e+05  -1.732051e+05   7.572982e+05  -7.634642e+00  -1.717357e+01  -2.787734e-21   8.690790e+05   6.426250e-40   0.000000e+00   0.000000e+00
     1144000   1.143999e-05   4.557165e+00   7.025396e+00   2.837721e+01   3.896123e+05  -1.732051e+05   7.572982e+05  -7.074988e+00  -1.591467e+01   3.612115e-21   8.690790e+05   5.518643e-40   0.000000e+00   0.000000e+00
     1152000   1.151999e-05   4.588334e+00   7.011540e+00   2.843779e+01   3.896123e+05  -1.732051e+05   7.572982e+05  -7.284197e+00  -1.638527e+01   3.983111e-21   8.690790e+05   5.849733e-40   0.000000e+00   0.000000e+00
     1160000   1.159999e-05   4.619503e+00   6.997684e+00   2.849837e+01   3.896123e+05  -1.732051e+05   7.572982e+05  -6.543613e+00  -1.471938e+01   4.820049e-22   8.690790e+05   4.720766e-40   0.000000e+00   0.000000e+00
     1168000   1.167999e-05   4.650672e+00   6.983827e+00   2.855896e+01   3.896123e+05  -1.732051e+05   7.572982e+05  -9.344153e+00  -2.101899e+01   4.894745e-21   8.690790e+05   9.625602e-40   0.000000e+00   0.000000e+00
     1176000   1.175999e-05   4.681841e+00   6.969971e+00   2.861954e+01   3.896123e+05  -1.732051e+05   7.572982e+05  -7.140660e+00  -1.606240e+01   3.929324e-21   8.690790e+05   5.621519e-40   0.000000e+00   0.000000e+00
     1184000   1.183999e-05   4.713010e+00   6.956114e+00   2.868012e+01   3.896123e+05  -1.732051e+05   7.572982e+05  -1.006700e+01  -2.264499e+01  -1.279125e-21   8.690790e+05   1.117250e-39   0.000000e+00   0.000000e+00
     1192000   1.191999e-05   4.744179e+00   6.942258e+00   2.874071e+01   3.896123e+05  -1.732051e+05   7.572982e+05  -5.738837e+00  -1.290910e+01  -5.264901e-22   8.690790e+05   3.631576e-40   0.000000e+00   0.000000e+00
     1200000   1.199999e-05   4.775348e+00   6.928402e+00   2.880129e+01   3.896123e+05  -1.732051e+05   7.572982e+05  -4.983477e+00  -1.120997e+01  -1.474762e-21   8.690790e+05   2.737741e-40   0.000000e+00   0.000000e+00
     1208000   1.207999e-05   4.806517e+00   6.914545e+00   2.886188e+01   3.896123e+05  -1.732051e+05   7.572982e+05  -6.068062e+00  -1.364966e+01  -3.909275e-21   8.690790e+05   4.059183e-40   0.000000e+00   0.000000e+00
     1216000   1.215999e-05   4.837686e+00   6.900689e+00   2.892246e+01   3.896123e+05  -1.732051e+05   7.572982e+05  -6.386315e+00  -1.436555e+01  -1.617751e-21   8.690790e+05   4.496528e-40   0.000000e+00   0.000000e+00
     1224000   1.223999e-05   4.868855e+00   6.886832e+00   2.898304e+01   3.896123e+05  -1.732051e+05   7.572982e+05  -2.956370e-01  -6.650141e-01   6.482871e-23   8.690790e+05   9.661202e-43   0.000000e+00   0.000000e+00
     1232000   1.231999e-05   4.900024e+00   6.872976e+00   2.904363e+01   3.896123e+05  -1.732051e+05   7.572982e+05  -8.204477e+00  -1.845538e+01   6.208668e-21   8.690790e+05   7.420547e-40   0.000000e+00   0.000000e+00
     1240000   1.239999e-05   4.931193e+00   6.859119e+00   2.910421e+01   3.896123e+05  -1.732051e+05   7.572982e+05  -6.370052e+00  -1.432897e+01  -1.823479e-22   8.690790e+05   4.474191e-40   0.000000e+00   0.000000e+00
     1248000   1.247999e-05   4.962362e+00   6.845263e+00   2.916480e+01   3.896123e+05  -1.732051e+05   7.572982e+05  -3.065344e+00  -6.895270e+00  -2.534500e-21   8.690790e+05   1.036210e-40   0.000000e+00   0.000000e+00
     1256000   1.255999e-05   4.993531e+00   6.831407e+00   2.922538e+01   3.896123e+05  -1.732051e+05   7.572982e+05  -8.251737e+00  -1.856168e+01  -2.134291e-21   8.690790e+05   7.506285e-40   0.000000e+00   0.000000e+00
     1264000   1.263999e-05   5.024700e+00   6.817550e+00   2.928596e+01   3.896123e+05  -1.732051e+05   7.572982e+05  -8.287518e+00  -1.864217e+01  -1.723274e-21   8.690790e+05   7.572082e-40   0.000000e+00   0.000000e+00
     1272000   1.271999e-05   5.055869e+00   6.803694e+00   2.934655e+01   3.896123e+05  -1.732051e+05   7.572982e+05  -1.021278e+01  -2.297290e+01  -6.323874e-21   8.690790e+05   1.149857e-39   0.000000e+00   0.000000e+00
     1280000   1.279999e-05   5.087038e+00   6.789837e+00   2.940713e+01   3.896123e+05  -1.732051e+05   7.572982e+05  -6.375135e+00  -1.434040e+01   1.560195e-22   8.690790e+05   4.480294e-40   0.000000e+00   0.000000e+00
     1288000   1.287999e-05   5.118207e+00   6.775981e+00   2.946772e+01   3.896123e+05  -1.732051e+05   7.572982e+05  -1.451758e+01  -3.265625e+01  -5.187918e-21   8.690790e+05   2.323486e-39   0.000000e+00   0.000000e+00
     1296000   1.295999e-05   5.149376e+00   6.762125e+00   2.952830e+01   3.896123e+05  -1.732051e+05   7.572982e+05  -1.050185e+01  -2.362316e+01   1.776244e-22   8.690790e+05   1.216003e-39   0.000000e+00   0.000000e+00
     1304000   1.303999e-05   5.180545e+00   6.748268e+00   2.958888e+01   3.896123e+05  -1.732051e+05   7.572982e+05  -7.562801e+00  -1.701197e+01   1.625804e-21   8.690790e+05   6.306374e-40   0.000000e+00   0.000000e+00
     1312000   1.311999e-05   5.211714e+00   6.734412e+00   2.964947e+01   3.896123e+05  -1.732051e+05   7.572982e+05  -7.948715e+00  -1.788006e+01   1.361155e-21   8.690790e+05   6.965831e-40   0.000000e+00   0.000000e+00
     1320000   1.319999e-05   5.242883e+00   6.720555e+00   2.971005e+01   3.896123e+05  -1.732051e+05   7.572982e+05  -6.425787e+00  -1.138339e+01   7.023708e-01   8.690790e+05   3.118231e-40   0.000000e+00   0.000000e+00
     1328000   1.327999e-05   5.274052e+00   6.706699e+00   2.977063e+01   3.896123e+05  -1.732051e+05   7.572982e+05  -1.037213e+01   2.162796e+00   5.830883e+00   8.690790e+05   2.660421e-40   0.000000e+00   0.000000e+00
     1336000   1.335999e-05   5.305221e+00   6.692843e+00   2.983122e+01   3.896123e+05  -1.732051e+05   7.572982e+05   7.766799e+00  -3.334658e+01  -1.162268e+01   8.690790e+05   2.378097e-39   0.000000e+00   0.000000e+00
     1344000   1.343999e-05   5.336390e+00   6.678986e+00   2.989180e+01   3.896123e+05  -1.732051e+05   7.572982e+05   2.192123e+01  -5.653601e+01  -2.420857e+01   8.690790e+05   7.754660e-39   0.000000e+00   0.000000e+00
     1352000   1.351999e-05   5.367559e+00   6.665130e+00   2.995239e+01   3.896123e+05  -1.732051e+05   7.572982e+05  -3.953932e+00  -4.415915e+01  -8.065632e+00   8.690790e+05   3.694172e-39   0.000000e+00   0.000000e+00
     1360000   1.359999e-05   5.398728e+00   6.651273e+00   3.001297e+01   3.896123e+05  -1.732051e+05   7.572982e+05  -2.660978e+01   2.139181e+01   1.858273e+01   8.690790e+05   2.748502e-39   0.000000e+00   0.000000e+00
     1368000   1.367999e-05   5.429897e+00   6.637417e+00   3.007355e+01   3.896123e+05  -1.732051e+05   7.572982e+05  -1.002135e+01  -6.690507e+00   3.625535e+00   8.690790e+05   2.880428e-40   0.000000e+00   0.000000e+00
     1376000   1.375999e-05   5.461066e+00   6.623561e+00   3.013414e+01   3.896123e+05  -1.732051e+05   7.572982e+05  -7.062402e+00  -1.729137e+01  -3.213459e-01   8.690790e+05   6.348559e-40   0.000000e+00   0.000000e+00
     1384000   1.383999e-05   5.492235e+00   6.609704e+00   3.019472e+01   3.896123e+05  -1.732051e+05   7.572982e+05  -6.310050e+00  -2.143488e+01  -1.656094e+00   8.690790e+05   9.132755e-40   0.000000e+00   0.000000e+00
     1392000   1.391999e-05   5.523404e+00   6.595848e+00   3.025531e+01   3.896123e+05  -1.732051e+05   7.572982e+05  -1.038400e+01  -2.335806e+01   5.345519e-21   8.690790e+05   1.188781e-39   0.000000e+00   0.000000e+00
     1400000   1.399999e-05   5.554573e+00   6.581991e+00   3.031589e+01   3.896123e+05  -1.732051e+05   7.572982e+05  -8.563587e+00  -1.926317e+01   7.876350e-21   8.690790e+05   8.084682e-40   0.000000e+00   0.000000e+00
     1408000   1.407999e-05   5.585742e+00   6.568135e+00   3.037647e+01   3.896123e+05  -1.732051e+05   7.572982e+05  -1.020180e+01  -2.294820e+01   2.929027e-21   8.690790e+05   1.147382e-39   0.000000e+00   0.000000e+00
     1416000   1.415999e-05   5.616910e+00   6.554279e+00   3.043706e+01   3.896123e+05  -1.732051e+05   7.572982e+05  -7.124098e+00  -1.602514e+01  -3.356299e-21   8.690790e+05   5.596180e-40   0.000000e+00   0.000000e+00
     1424000   1.423999e-05   5.648079e+00   6.540422e+00   3.049764e+01   3.896123e+05  -1.732051e+05   7.572982e+05  -3.211331e+00  -7.223655e+00   1.471487e-21   8.690790e+05   1.137299e-40   0.000000e+00   0.000000e+00
     1432000   1.431999e-05   5.679248e+00   6.526566e+00   3.055822e+01   3.896123e+05  -1.732051e+05   7.572982e+05  -1.436568e+01  -3.231455e+01   1.065837e-20   8.690790e+05   2.275106e-39   0.000000e+00   0.000000e+00
     1440000   1.439999e-05   5.710417e+00   6.512709e+00   3.061881e+01   3.896123e+05  -1.732051e+05   7.572982e+05  -7.384807e+00  -1.661159e+01  -6.922312e-21   8.690790e+05   6.012432e-40   0.000000e+00   0.000000e+00
     1448000   1.447999e-05   5.741586e+00   6.498853e+00   3.067939e+01   3.896123e+05  -1.732051e+05   7.572982e+05  -3.584917e+00  -8.064010e+00  -8.188872e-22   8.690790e+05   1.417172e-40   0.000000e+00   0.000000e+00
     1456000   1.455999e-05   5.772755e+00   6.484997e+00   3.073998e+01   3.896123e+05  -1.732051e+05   7.572982e+05  -1.213803e+01  -2.730361e+01  -5.843447e-21   8.690790e+05   1.624204e-39   0.000000e+00   0.000000e+00
     1464000   1.463999e-05   5.803924e+00   6.471140e+00   3.080056e+01   3.896123e+05  -1.732051e+05   7.572982e+05  -5.937289e+00  -1.335550e+01   7.736323e-21   8.690790e+05   3.886082e-40   0.000000e+00   0.000000e+00
     1472000   1.471999e-05   5.835093e+00   6.457284e+00   3.086114e+01   3.896123e+05  -1.732051e+05   7.572982e+05  -7.947166e+00  -1.787657e+01   4.413231e-21   8.690790e+05   6.962566e-40   0.000000e+00   0.000000e+00
     1480000   1.479999e-05   5.866262e+00   6.443427e+00   3.092173e+01   3.896123e+05  -1.732051e+05   7.572982e+05  -1.135297e+01  -2.553769e+01  -1.825731e-21   8.690790e+05   1.420947e-39   0.000000e+00   0.000000e+00
     1488000   1.487999e-05   5.897431e+00   6.429571e+00   3.098231e+01   3.896123e+05  -1.732051e+05   7.572982e+05  -1.276861e+01  -2.872206e+01   1.180542e-21   8.690790e+05   1.797412e-39   0.000000e+00   0.000000e+00
     1496000   1.495999e-05   5.928600e+00   6.415714e+00   3.104290e+01   3.896123e+05  -1.732051e+05   7.572982e+05  -9.885255e+00  -2.223616e+01  -2.053970e-21   8.690790e+05   1.077391e-39   0.000000e+00   0.000000e+00
     1504000   1.503999e-05   5.959769e+00   6.401858e+00   3.110348e+01   3.896123e+05  -1.732051e+05   7.572982e+05  -4.443402e+00  -9.995110e+00   1.267194e-21   8.690790e+05   2.177104e-40   0.000000e+00   0.000000e+00
     1512000   1.511999e-05   5.990938e+00   6.388002e+00   3.116406e+01   3.896123e+05  -1.732051e+05   7.572982e+05  -9.183587e+00  -2.065781e+01  -2.111718e-21   8.690790e+05   9.298715e-40   0.000000e+00   0.000000e+00
     1520000   1.519999e-05   6.022107e+00   6.374145e+00   3.122465e+01   3.896123e+05  -1.732051e+05   7.572982e+05  -4.617557e+00  -1.038686e+01   1.146870e-21   8.690790e+05   2.350697e-40   0.000000e+00   0.000000e+00
     1528000   1.527999e-05   6.053276e+00   6.360289e+00   3.128523e+01   3.896123e+05  -1.732051e+05   7.572982e+05  -4.618191e+00  -1.038828e+01   3.475361e-21   8.690790e+05   2.351343e-40   0.000000e+00   0.000000e+00
     1536000   1.535999e-05   6.084445e+00   6.346432e+00   3.134581e+01   3.896123e+05  -1.732051e+05   7.572982e+05   1.111504e+00   2.500249e+00   2.919885e-22   8.690790e+05   1.361730e-41   0.000000e+00   0.000000e+00
     1544000   1.543999e-05   6.115614e+00   6.332576e+00   3.140640e+01   3.896123e+05  -1.732051e+05   7.572982e+05  -7.014509e+00  -1.577863e+01   4.356977e-21   8.690790e+05   5.424533e-40   0.000000e+00   0.000000e+00
     1552000   1.551999e-05   6.146783e+00   6.318720e+00   3.146698e+01   3.896123e+05  -1.732051e+05   7.572982e+05  -7.299339e+00  -1.641933e+01  -3.799975e-21   8.690790e+05   5.874016e-40   0.000000e+00   0.000000e+00
     1560000   1.559999e-05   6.177952e+00   6.304863e+00   3.152757e+01   3.896123e+05  -1.732051e+05   7.572982e+05  -6.051751e+00  -1.361297e+01  -3.451280e-21   8.690790e+05   4.037586e-40   0.000000e+00   0.000000e+00
     1568000   1.567999e-05   6.209121e+00   6.291007e+00   3.158815e+01   3.896123e+05  -1.732051e+05   7.572982e+05  -4.082607e+00  -9.183528e+00   3.317519e-21   8.690790e+05   1.837771e-40   0.000000e+00   0.000000e+00
     1576000   1.575999e-05   6.240290e+00   6.277150e+00   3.164873e+01   3.896123e+05  -1.732051e+05   7.572982e+05  -1.168702e+01  -2.628911e+01  -6.028529e-21   8.690790e+05   1.505774e-39   0.000000e+00   0.000000e+00
     1584000   1.583999e-05   6.271459e+00   6.263294e+00   3.170932e+01   3.896123e+05  -1.732051e+05   7.572982e+05  -5.412646e+00  -1.217535e+01  -3.120064e-21   8.690790e+05   3.230165e-40   0.000000e+00   0.000000e+00
     1592000   1.591999e-05   6.302628e+00   6.249438e+00   3.176990e+01   3.896123e+05  -1.732051e+05   7.572982e+05  -1.050401e+01  -2.362801e+01  -1.368901e-21   8.690790e+05   1.216293e-39   0.000000e+00   0.000000e+00
     1600000   1.599999e-05   6.333797e+00   6.235581e+00   3.183049e+01   3.896123e+05  -1.732051e+05   7.572982e+05  -7.518692e+00  -1.691275e+01   3.193089e-21   8.690790e+05   6.232846e-40   0.000000e+00   0.000000e+00
     1608000   1.607999e-05   6.364966e+00   6.221725e+00   3.189107e+01   3.896123e+05  -1.732051e+05   7.572982e+05  -5.465341e+00  -1.229389e+01  -1.180038e-21   8.690790e+05   3.293424e-40   0.000000e+00   0.000000e+00
     1616000   1.615999e-05   6.396135e+00   6.207868e+00   3.195165e+01   3.896123e+05  -1.732051e+05   7.572982e+05  -1.610592e+01  -3.622910e+01  -2.562018e-20   8.690790e+05   2.859660e-39   0.000000e+00   0.000000e+00
     1624000   1.623999e-05   6.427304e+00   6.194012e+00   3.201224e+01   3.896123e+05  -1.732051e+05   7.572982e+05  -8.952492e+00  -2.013798e+01  -7.634520e-21   8.690790e+05   8.836260e-40   0.000000e+00   0.000000e+00
     1632000   1.631999e-05   6.458473e+00   6.180156e+00   3.207282e+01   3.896123e+05  -1.732051e+05   7.572982e+05  -8.265114e+00  -1.859177e+01   4.679081e-21   8.690790e+05   7.531457e-40   0.000000e+00   0.000000e+00
     1640000   1.639999e-05   6.489642e+00   6.166299e+00   3.213340e+01   3.896123e+05  -1.732051e+05   7.572982e+05  -1.707601e+01  -3.841125e+01  -4.110639e-21   8.690790e+05   3.214666e-39   0.000000e+00   0.000000e+00
     1648000   1.647999e-05   6.520811e+00   6.152443e+00   3.219399e+01   3.896123e+05  -1.732051e+05   7.572982e+05  -4.538803e+00  -1.020971e+01   1.103275e-21   8.690790e+05   2.271678e-40   0.000000e+00   0.000000e+00
     1656000   1.655999e-05   6.551980e+00   6.138586e+00   3.225457e+01   3.896123e+05  -1.732051e+05   7.572982e+05  -7.376391e+00  -1.659265e+01   6.516965e-21   8.690790e+05   5.998389e-40   0.000000e+00   0.000000e+00
     1664000   1.663999e-05   6.583149e+00   6.124730e+00   3.231516e+01   3.896123e+05  -1.732051e+05   7.572982e+05  -3.993975e+00  -8.984157e+00  -1.773534e-21   8.690790e+05   1.759087e-40   0.000000e+00   0.000000e+00
     1672000   1.671999e-05   6.614318e+00   6.110874e+00   3.237574e+01   3.896123e+05  -1.732051e+05   7.572982e+05  -5.586175e+00  -1.256570e+01   1.794578e-21   8.690790e+05   3.440319e-40   0.000000e+00   0.000000e+00
     1680000   1.679999e-05   6.645487e+00   6.097017e+00   3.243632e+01   3.896123e+05  -1.732051e+05   7.572982e+05  -8.305512e+00  -1.868265e+01  -5.317899e-21   8.690790e+05   7.604428e-40   0.000000e+00   0.000000e+00
     1688000   1.687999e-05   6.676656e+00   6.083161e+00   3.249691e+01   3.896123e+05  -1.732051e+05   7.572982e+05  -1.124654e+01  -2.529827e+01  -3.951749e-21   8.690790e+05   1.394381e-39   0.000000e+00   0.000000e+00
     1696000   1.695999e-05   6.707825e+00   6.069304e+00   3.255749e+01   3.896123e+05  -1.732051e+05   7.572982e+05  -5.662969e+00  -1.273844e+01   3.639320e-21   8.690790e+05   3.535832e-40   0.000000e+00   0.000000e+00
     1704000   1.703999e-05   6.738994e+00   6.055448e+00   3.261808e+01   3.896123e+05  -1.732051e+05   7.572982e+05  -2.943672e+00  -6.621577e+00  -3.810337e-21   8.690790e+05   9.554947e-41   0.000000e+00   0.000000e+00
     1712000   1.711999e-05   6.770163e+00   6.041591e+00   3.267866e+01   3.896123e+05  -1.732051e+05   7.572982e+05  -8.526103e-01  -1.917885e+00   3.359828e-22   8.690790e+05   8.019359e-42   0.000000e+00   0.000000e+00
     1720000   1.719999e-05   6.801332e+00   6.027735e+00   3.273924e+01   3.896123e+05  -1.732051e+05   7.572982e+05  -3.375153e+00  -7.592162e+00  -2.071250e-22   8.690790e+05   1.255424e-40   0.000000e+00   0.000000e+00
     1728000   1.727999e-05   6.832501e+00   6.013879e+00   3.279983e+01   3.896123e+05  -1.732051e+05   7.572982e+05  -8.628317e+00  -1.940877e+01  -8.020623e-21   8.690790e+05   8.206506e-40   0.000000e+00   0.000000e+00
     1736000   1.735999e-05   6.863670e+00   6.000022e+00   3.286041e+01   3.896123e+05  -1.732051e+05   7.572982e+05  -3.971190e+00  -8.932903e+00   2.506019e-21   8.690790e+05   1.738815e-40   0.000000e+00   0.000000e+00
     1744000   1.743999e-05   6.894839e+00   5.986166e+00   3.292099e+01   3.896123e+05  -1.732051e+05   7.572982e+05  -9.637126e-01  -2.167802e+00  -8.007490e-22   8.690790e+05   1.023520e-41   0.000000e+00   0.000000e+00
     1752000   1.751999e-05   6.926008e+00   5.972309e+00   3.298158e+01   3.896123e+05  -1.732051e+05   7.572982e+05  -1.093662e+01  -2.460114e+01   2.433413e-21   8.690790e+05   1.318676e-39   0.000000e+00   0.000000e+00
     1760000   1.759999e-05   6.957177e+00   5.958453e+00   3.304216e+01   3.896123e+05  -1.732051e+05   7.572982e+05  -7.621326e+00  -1.714362e+01  -2.023650e-21   8.690790e+05   6.403925e-40   0.000000e+00   0.000000e+00
     1768000   1.767999e-05   6.988346e+00   5.944597e+00   3.310275e+01   3.896123e+05  -1.732051e+05   7.572982e+05  -9.922800e+00  -2.232062e+01  -4.559267e-22   8.690790e+05   1.085525e-39   0.000000e+00   0.000000e+00
     1776000   1.775999e-05   7.019515e+00   5.930740e+00   3.316333e+01   3.896123e+05  -1.732051e+05   7.572982e+05  -7.445976e+00  -1.674918e+01   5.765588e-21   8.690790e+05   6.112577e-40   0.000000e+00   0.000000e+00
     1784000   1.783999e-05   7.050684e+00   5.916884e+00   3.322391e+01   3.896123e+05  -1.732051e+05   7.572982e+05  -1.095004e+01  -2.463132e+01   1.052008e-20   8.690790e+05   1.321864e-39   0.000000e+00   0.000000e+00
     1792000   1.791999e-05   7.081853e+00   5.903027e+00   3.328450e+01   3.896123e+05  -1.732051e+05   7.572982e+05  -1.264003e+01  -2.843284e+01  -8.925952e-23   8.690790e+05   1.761384e-39   0.000000e+00   0.000000e+00
     1800000   1.799999e-05   7.113022e+00   5.889171e+00   3.334508e+01   3.896123e+05  -1.732051e+05   7.572982e+05  -9.021666e+00  -2.029358e+01   2.344575e-21   8.690790e+05   8.973181e-40   0.000000e+00   0.000000e+00
     1808000   1.807999e-05   7.144191e+00   5.875315e+00   3.340567e+01   3.896123e+05  -1.732051e+05   7.572982e+05  -1.113090e+01  -2.503816e+01   3.369049e-21   8.690790e+05   1.365941e-39   0.000000e+00   0.000000e+00
     1816000   1.815999e-05   7.175360e+00   5.861458e+00   3.346625e+01   3.896123e+05  -1.732051e+05   7.572982e+05  -1.124656e+01  -2.529832e+01  -2.087322e-21   8.690790e+05   1.394475e-39   0.000000e+00   0.000000e+00
     1824000   1.823999e-05   7.206529e+00   5.847602e+00   3.352683e+01   3.896123e+05  -1.732051e+05   7.572982e+05  -7.975508e+00  -1.794033e+01  -1.078311e-20   8.690790e+05   7.013380e-40   0.000000e+00   0.000000e+00
     1832000   1.831999e-05   7.237698e+00   5.833745e+00   3.358742e+01   3.896123e+05  -1.732051e+05   7.572982e+05  -5.149970e+00  -1.158448e+01   5.370476e-21   8.690790e+05   2.924429e-40   0.000000e+00   0.000000e+00
     1840000   1.839999e-05   7.268866e+00   5.819889e+00   3.364800e+01   3.896123e+05  -1.732051e+05   7.572982e+05  -6.665759e+00  -1.499414e+01   7.189069e-21   8.690790e+05   4.898521e-40   0.000000e+00   0.000000e+00
     1848000   1.847999e-05   7.300035e+00   5.806033e+00   3.370858e+01   3.896123e+05  -1.732051e+05   7.572982e+05  -5.522654e+00  -1.242281e+01   2.168913e-21   8.690790e+05   3.362696e-40   0.000000e+00   0.000000e+00
     1856000   1.855999e-05   7.331204e+00   5.792176e+00   3.376917e+01   3.896123e+05  -1.732051e+05   7.572982e+05   1.489067e-03   3.349548e-03  -1.578804e-25   8.690790e+05   9.214198e-48   0.000000e+00   0.000000e+00
     1864000   1.863999e-05   7.362373e+00   5.778320e+00   3.382975e+01   3.896123e+05  -1.732051e+05   7.572982e+05  -1.067495e+01  -2.401253e+01  -6.460839e-21   8.690790e+05   1.256142e-39   0.000000e+00   0.000000e+00
     1872000   1.871999e-05   7.393542e+00   5.764463e+00   3.389034e+01   3.896123e+05  -1.732051e+05   7.572982e+05  -1.709506e+01  -3.845409e+01  -9.293054e-21   8.690790e+05   3.221608e-39   0.000000e+00   0.000000e+00
     1880000   1.879999e-05   7.424711e+00   5.750607e+00   3.395092e+01   3.896123e+05  -1.732051e+05   7.572982e+05  -9.632660e+00  -2.166797e+01   2.202808e-21   8.690790e+05   1.022874e-39   0.000000e+00   0.000000e+00
     1888000   1.887999e-05   7.455880e+00   5.736751e+00   3.401150e+01   3.896123e+05  -1.732051e+05   7.572982e+05  -9.885932e+00  -2.223769e+01   3.118850e-21   8.690790e+05   1.077578e-39   0.000000e+00   0.000000e+00
     1896000   1.895999e-05   7.487049e+00   5.722894e+00   3.407209e+01   3.896123e+05  -1.732051e+05   7.572982e+05  -6.148221e+00  -1.382998e+01  -2.434228e-21   8.690790e+05   4.168091e-40   0.000000e+00   0.000000e+00
     1904000   1.903999e-05   7.518218e+00   5.709038e+00   3.413267e+01   3.896123e+05  -1.732051e+05   7.572982e+05  -8.595228e+00  -1.933434e+01  -3.401245e-22   8.690790e+05   8.145201e-40   0.000000e+00   0.000000e+00
     1912000   1.911999e-05   7.549387e+00   5.695181e+00   3.419326e+01   3.896123e+05  -1.732051e+05   7.572982e+05  -1.360915e+01  -3.061279e+01  -7.406307e-21   8.690790e+05   2.041817e-39   0.000000e+00   0.000000e+00
     1920000   1.919999e-05   7.580556e+00   5.681325e+00   3.425384e+01   3.896123e+05  -1.732051e+05   7.572982e+05  -6.471876e+00  -1.455801e+01  -1.584158e-21   8.690790e+05   4.618137e-40   0.000000e+00   0.000000e+00
     1928000   1.927999e-05   7.611725e+00   5.667469e+00   3.431442e+01   3.896123e+05  -1.732051e+05   7.572982e+05  -6.372516e+00  -1.433451e+01  -2.307451e-21   8.690790e+05   4.477467e-40   0.000000e+00   0.000000e+00
     1936000   1.935999e-05   7.642894e+00   5.653612e+00   3.437501e+01   3.896123e+05  -1.732051e+05   7.572982e+05  -4.130125e+00  -9.290416e+00  -2.903794e-21   8.690790e+05   1.880865e-40   0.000000e+00   0.000000e+00
     1944000   1.943999e-05   7.674063e+00   5.639756e+00   3.443559e+01   3.896123e+05  -1.732051e+05   7.572982e+05  -1.420985e+01  -3.196402e+01  -3.846796e-21   8.690790e+05   2.225991e-39   0.000000e+00   0.000000e+00
     1952000   1.951999e-05   7.705232e+00   5.625899e+00   3.449618e+01   3.896123e+05  -1.732051e+05   7.572982e+05  -6.569239e+00  -1.477703e+01   4.472915e-21   8.690790e+05   4.758686e-40   0.000000e+00   0.000000e+00
     1960000   1.959999e-05   7.736401e+00   5.612043e+00   3.455676e+01   3.896123e+05  -1.732051e+05   7.572982e+05  -1.026399e+01  -2.308810e+01  -4.670432e-21   8.690790e+05   1.161394e-39   0.000000e+00   0.000000e+00
     1968000   1.967999e-05   7.767570e+00   5.598186e+00   3.461734e+01   3.896123e+05  -1.732051e+05   7.572982e+05  -1.310060e+01  -2.946886e+01   9.899325e-21   8.690790e+05   1.892162e-39   0.000000e+00   0.000000e+00
     1976000   1.975999e-05   7.798739e+00   5.584330e+00   3.467793e+01   3.896123e+05  -1.732051e+05   7.572982e+05  -1.270787e+01  -2.858542e+01  -8.963167e-22   8.690790e+05   1.780413e-39   0.000000e+00   0.000000e+00
     1984000   1.983999e-05   7.829908e+00   5.570474e+00   3.473851e+01   3.896123e+05  -1.732051e+05   7.572982e+05  -3.293933e+00  -7.409464e+00  -3.332105e-22   8.690790e+05   1.196474e-40   0.000000e+00   0.000000e+00
     1992000   1.991999e-05   7.861077e+00   5.556617e+00   3.479909e+01   3.896123e+05  -1.732051e+05   7.572982e+05  -2.198909e-01  -4.946285e-01  -7.723812e-23   8.690790e+05   5.349376e-43   0.000000e+00   0.000000e+00
     2000000   1.999999e-05   7.892246e+00   5.542761e+00   3.485968e+01   3.896123e+05  -1.732051e+05   7.572982e+05  -9.101596e+00  -2.047338e+01  -3.386645e-21   8.690790e+05   9.132423e-40   0.000000e+00   0.000000e+00
     2008000   2.007999e-05   7.923415e+00   5.528904e+00   3.492026e+01   3.896123e+05  -1.732051e+05   7.572982e+05  -7.741917e+00  -1.741488e+01   9.636156e-22   8.690790e+05   6.607445e-40   0.000000e+00   0.000000e+00
     2016000   2.015999e-05   7.954584e+00   5.515048e+00   3.498085e+01   3.896123e+05  -1.732051e+05   7.572982e+05  -1.028688e+01  -2.313959e+01  -1.027857e-21   8.690790e+05   1.166575e-39   0.000000e+00   0.000000e+00
     2024000   2.023999e-05   7.985753e+00   5.501192e+00   3.504143e+01   3.896123e+05  -1.732051e+05   7.572982e+05  -6.610514e+00  -1.486987e+01   3.874704e-22   8.690790e+05   4.818121e-40   0.000000e+00   0.000000e+00
     2032000   2.031999e-05   8.016922e+00   5.487335e+00   3.510201e+01   3.896123e+05  -1.732051e+05   7.572982e+05  -9.053700e+00  -2.036564e+01  -3.459649e-21   8.690790e+05   9.037082e-40   0.000000e+00   0.000000e+00
     2040000   2.039999e-05   8.048091e+00   5.473479e+00   3.516260e+01   3.896123e+05  -1.732051e+05   7.572982e+05  -8.736907e+00  -1.965304e+01   2.855795e-21   8.690790e+05   8.415725e-40   0.000000e+00   0.000000e+00
     2048000   2.047999e-05   8.079260e+00   5.459622e+00   3.522318e+01   3.896123e+05  -1.732051e+05   7.572982e+05  -1.291173e+01  -2.904400e+01  -6.986650e-21   8.690790e+05   1.837893e-39   0.000000e+00   0.000000e+00
     2056000   2.055999e-05   8.110429e+00   5.445766e+00   3.528377e+01   3.896123e+05  -1.732051e+05   7.572982e+05  -7.004772e+00  -1.575673e+01   4.013383e-21   8.690790e+05   5.410236e-40   0.000000e+00   0.000000e+00
     2064000   2.063999e-05   8.141598e+00   5.431910e+00   3.534435e+01   3.896123e+05  -1.732051e+05   7.572982e+05  -1.002087e+01  -2.254122e+01  -2.521595e-21   8.690790e+05   1.107071e-39   0.000000e+00   0.000000e+00
     2072000   2.071999e-05   8.172767e+00   5.418053e+00   3.540493e+01   3.896123e+05  -1.732051e+05   7.572982e+05  -7.556078e+00  -1.699685e+01  -1.736384e-21   8.690790e+05   6.295307e-40   0.000000e+00   0.000000e+00
     2080000   2.079999e-05   8.203936e+00   5.404197e+00   3.546552e+01   3.896123e+05  -1.732051e+05   7.572982e+05  -5.819267e+00  -1.309002e+01   1.369230e-21   8.690790e+05   3.733477e-40   0.000000e+00   0.000000e+00
     2088000   2.087999e-05   8.235105e+00   5.390340e+00   3.552610e+01   3.896123e+05  -1.732051e+05   7.572982e+05  -2.343374e+00  -5.271250e+00  -8.895865e-22   8.690790e+05   6.055809e-41   0.000000e+00   0.000000e+00
     2096000   2.095999e-05   8.266274e+00   5.376484e+00   3.558668e+01   3.896123e+05  -1.732051e+05   7.572982e+05   1.757396e-01   3.953134e-01   2.005098e-22   8.690790e+05   3.392764e-43   0.000000e+00   0.000000e+00
     2104000   2.103999e-05   8.297443e+00   5.362628e+00   3.564727e+01   3.896123e+05  -1.732051e+05   7.572982e+05  -5.841235e+00  -1.313943e+01  -2.245300e-21   8.690790e+05   3.761686e-40   0.000000e+00   0.000000e+00
     2112000   2.111999e-05   8.328612e+00   5.348771e+00   3.570785e+01   3.896123e+05  -1.732051e+05   7.572982e+05  -9.117852e+00  -2.050995e+01   1.412199e-21   8.690790e+05   9.164152e-40   0.000000e+00   0.000000e+00
     2120000   2.119999e-05   8.359781e+00   5.334915e+00   3.576844e+01   3.896123e+05  -1.732051e+05   7.572982e+05  -1.458013e+01  -3.279694e+01   1.944146e-20   8.690790e+05   2.343442e-39   0.000000e+00   0.000000e+00
     2128000   2.127999e-05   8.390950e+00   5.321058e+00   3.582902e+01   3.896123e+05  -1.732051e+05   7.572982e+05  -1.069865e+01  -2.406583e+01  -2.210011e-21   8.690790e+05   1.261977e-39   0.000000e+00   0.000000e+00
     2136000   2.135999e-05   8.422119e+00   5.307202e+00   3.588960e+01   3.896123e+05  -1.732051e+05   7.572982e+05  -1.014721e+01  -2.282542e+01   1.678311e-21   8.690790e+05   1.135240e-39   0.000000e+00   0.000000e+00
     2144000   2.143999e-05   8.453288e+00   5.293346e+00   3.595019e+01   3.896123e+05  -1.732051e+05   7.572982e+05  -6.451286e+00  -1.451170e+01   3.218616e-21   8.690790e+05   4.589202e-40   0.000000e+00   0.000000e+00
     2152000   2.151999e-05   8.484457e+00   5.279489e+00   3.601077e+01   3.896123e+05  -1.732051e+05   7.572982e+05  -1.569993e+01  -3.531584e+01   8.210988e-21   8.690790e+05   2.717317e-39   0.000000e+00   0.000000e+00
     2160000   2.159999e-05   8.515626e+00   5.265633e+00   3.607136e+01   3.896123e+05  -1.732051e+05   7.572982e+05  -5.501265e+00  -1.237470e+01   6.493769e-22   8.690790e+05   3.337050e-40   0.000000e+00   0.000000e+00
     2168000   2.167999e-05   8.546795e+00   5.251776e+00   3.613194e+01   3.896123e+05  -1.732051e+05   7.572982e+05  -6.991792e+00  -1.572753e+01   4.506915e-21   8.690790e+05   5.389209e-40   0.000000e+00   0.000000e+00
     2176000   2.175999e-05   8.577964e+00   5.237920e+00   3.619252e+01   3.896123e+05  -1.732051e+05   7.572982e+05  -8.554408e+00  -1.924252e+01   1.028638e-20   8.690790e+05   8.067377e-40   0.000000e+00   0.000000e+00
     2184000   2.183999e-05   8.609133e+00   5.224063e+00   3.625311e+01   3.896123e+05  -1.732051e+05   7.572982e+05  -5.855351e+00  -1.317119e+01  -1.999916e-21   8.690790e+05   3.779724e-40   0.000000e+00   0.000000e+00
     2192000   2.191999e-05   8.640302e+00   5.210207e+00   3.631369e+01   3.896123e+05  -1.732051e+05   7.572982e+05  -6.525290e+00  -1.467817e+01   9.807252e-22   8.690790e+05   4.694252e-40   0.000000e+00   0.000000e+00
     2200000   2.199999e-05   8.671471e+00   5.196351e+00   3.637427e+01   3.896123e+05  -1.732051e+05   7.572982e+05  -9.808797e+00  -2.206418e+01   6.339604e-21   8.690790e+05   1.060657e-39   0.000000e+00   0.000000e+00
     2208000   2.207999e-05   8.702640e+00   5.182494e+00   3.643486e+01   3.896123e+05  -1.732051e+05   7.572982e+05  -8.856194e+00  -1.992136e+01   3.685950e-22   8.690790e+05   8.647095e-40   0.000000e+00   0.000000e+00
     2216000   2.215999e-05   8.733809e+00   5.168638e+00   3.649544e+01   3.896123e+05  -1.732051e+05   7.572982e+05  -8.545839e+00  -1.922324e+01   5.143735e-21   8.690790e+05   8.051663e-40   0.000000e+00   0.000000e+00
     2224000   2.223999e-05   8.764978e+00   5.154781e+00   3.655603e+01   3.896123e+05  -1.732051e+05   7.572982e+05  -6.447140e+00  -1.450237e+01   4.411172e-21   8.690790e+05   4.582610e-40   0.000000e+00   0.000000e+00
     2232000   2.231999e-05   8.796147e+00   5.140925e+00   3.661661e+01   3.896123e+05  -1.732051e+05   7.572982e+05  -8.496980e+00  -1.911334e+01   1.079619e-21   8.690790e+05   7.959859e-40   0.000000e+00   0.000000e+00
     2240000   2.239999e-05   8.827316e+00   5.127069e+00   3.667719e+01   3.896123e+05  -1.732051e+05   7.572982e+05  -7.326743e+00  -1.648098e+01  -1.515120e-21   8.690790e+05   5.918423e-40   0.000000e+00   0.000000e+00
     2248000   2.247999e-05   8.858485e+00   5.113212e+00   3.673778e+01   3.896123e+05  -1.732051e+05   7.572982e+05  -9.881237e+00  -2.222712e+01   7.877892e-21   8.690790e+05   1.076381e-39   0.000000e+00   0.000000e+00
     2256000   2.255999e-05   8.889653e+00   5.099356e+00   3.679836e+01   3.896123e+05  -1.732051e+05   7.572982e+05  -6.784633e+00  -1.526154e+01  -5.586281e-21   8.690790e+05   5.074634e-40   0.000000e+00   0.000000e+00
     2264000   2.263999e-05   8.920822e+00   5.085499e+00   3.685895e+01   3.896123e+05  -1.732051e+05   7.572982e+05  -9.583397e+00  -2.155716e+01   7.974985e-21   8.690790e+05   1.012562e-39   0.000000e+00   0.000000e+00
     2272000   2.271999e-05   8.951991e+00   5.071643e+00   3.691953e+01   3.896123e+05  -1.732051e+05   7.572982e+05  -1.091194e+01  -2.454563e+01  -4.870937e-21   8.690790e+05   1.312710e-39   0.000000e+00   0.000000e+00
     2280000   2.279999e-05   8.983160e+00   5.057787e+00   3.698011e+01   3.896123e+05  -1.732051e+05   7.572982e+05  -1.169736e+01  -2.631237e+01  -2.156934e-21   8.690790e+05   1.508485e-39   0.000000e+00   0.000000e+00
     2288000   2.287999e-05   9.014329e+00   5.043930e+00   3.704070e+01   3.896123e+05  -1.732051e+05   7.572982e+05  -7.843355e+00  -1.764306e+01   7.801636e-22   8.690790e+05   6.782331e-40   0.000000e+00   0.000000e+00
     2296000   2.295999e-05   9.045498e+00   5.030074e+00   3.710128e+01   3.896123e+05  -1.732051e+05   7.572982e+05  -9.038758e+00  -2.033203e+01  -5.616531e-21   8.690790e+05   9.007198e-40   0.000000e+00   0.000000e+00
     2304000   2.303999e-05   9.076667e+00   5.016217e+00   3.716186e+01   3.896123e+05  -1.732051e+05   7.572982e+05  -9.041986e+00  -2.033929e+01  -8.091279e-21   8.690790e+05   9.013634e-40   0.000000e+00   0.000000e+00
     2312000   2.311999e-05   9.107836e+00   5.002361e+00   3.722245e+01   3.896123e+05  -1.732051e+05   7.572982e+05  -7.380492e+00  -1.660188e+01  -6.259029e-21   8.690790e+05   6.005159e-40   0.000000e+00   0.000000e+00
     2320000   2.319999e-05   9.139005e+00   4.988505e+00   3.728303e+01   3.896123e+05  -1.732051e+05   7.572982e+05  -9.447485e+00  -2.125143e+01   8.454011e-21   8.690790e+05   9.839741e-40   0.000000e+00   0.000000e+00
     2328000   2.327999e-05   9.170174e+00   4.974648e+00   3.734362e+01   3.896123e+05  -1.732051e+05   7.572982e+05  -8.041657e+00  -1.808912e+01  -4.960976e-21   8.690790e+05   7.129870e-40   0.000000e+00   0.000000e+00
     2336000   2.335999e-05   9.201343e+00   4.960792e+00   3.740420e+01   3.896123e+05  -1.732051e+05   7.572982e+05  -7.080534e+00  -1.592715e+01  -3.032579e-21   8.690790e+05   5.527196e-40   0.000000e+00   0.000000e+00
     2344000   2.343999e-05   9.232512e+00   4.946935e+00   3.746478e+01   3.896123e+05  -1.732051e+05   7.572982e+05  -7.040908e+00  -1.583801e+01   3.140187e-23   8.690790e+05   5.465503e-40   0.000000e+00   0.000000e+00
     2352000   2.351999e-05   9.263681e+00   4.933079e+00   3.752537e+01   3.896123e+05  -1.732051e+05   7.572982e+05  -5.955331e+00  -1.339608e+01   4.928802e-21   8.690790e+05   3.910056e-40   0.000000e+00   0.000000e+00
     2360000   2.359999e-05   9.294850e+00   4.919223e+00   3.758595e+01   3.896123e+05  -1.732051e+05   7.572982e+05  -6.012068e+00  -1.352371e+01  -1.421229e-21   8.690790e+05   3.984915e-40   0.000000e+00   0.000000e+00
     2368000   2.367999e-05   9.326019e+00   4.905366e+00   3.764654e+01   3.896123e+05  -1.732051e+05   7.572982e+05  -7.024480e+00  -1.580106e+01   9.055130e-22   8.690790e+05   5.440366e-40   0.000000e+00   0.000000e+00
     2376000   2.375999e-05   9.357188e+00   4.891510e+00   3.770712e+01   3.896123e+05  -1.732051e+05   7.572982e+05  -6.366240e+00  -1.432039e+01   4.263148e-21   8.690790e+05   4.468291e-40   0.000000e+00   0.000000e+00
     2384000   2.383999e-05   9.388357e+00   4.877653e+00   3.776770e+01   3.896123e+05  -1.732051e+05   7.572982e+05  -6.174233e+00  -1.388849e+01   4.603154e-21   8.690790e+05   4.202828e-40   0.000000e+00   0.000000e+00
     2392000   2.391999e-05   9.419526e+00   4.863797e+00   3.782829e+01   3.896123e+05  -1.732051e+05   7.572982e+05  -6.345311e+00  -1.427332e+01   1.970533e-21   8.690790e+05   4.439399e-40   0.000000e+00   0.000000e+00
     2400000   2.399999e-05   9.450695e+00   4.849941e+00   3.788887e+01   3.896123e+05  -1.732051e+05   7.572982e+05  -3.651282e+00  -8.213294e+00  -2.254268e-21   8.690790e+05   1.470087e-40   0.000000e+00   0.000000e+00
     2408000   2.407999e-05   9.481864e+00   4.836084e+00   3.794945e+01   3.896123e+05  -1.732051e+05   7.572982e+05  -8.290436e+00  -1.864873e+01   9.049477e-22   8.690790e+05   7.577195e-40   0.000000e+00   0.000000e+00
     2416000   2.415999e-05   9.513033e+00   4.822228e+00   3.801004e+01   3.896123e+05  -1.732051e+05   7.572982e+05  -7.456299e+00  -1.677240e+01  -8.840036e-21   8.690790e+05   6.129359e-40   0.000000e+00   0.000000e+00
     2424000   2.423999e-05   9.544202e+00   4.808371e+00   3.807062e+01   3.896123e+05  -1.732051e+05   7.572982e+05  -7.713619e+00  -1.735123e+01   2.813689e-21   8.690790e+05   6.559715e-40   0.000000e+00   0.000000e+00
     2432000   2.431999e-05   9.575371e+00   4.794515e+00   3.813121e+01   3.896123e+05  -1.732051e+05   7.572982e+05  -2.840314e+00  -6.389080e+00  -1.568834e-21   8.690790e+05   8.895231e-41   0.000000e+00   0.000000e+00
     2440000   2.439999e-05   9.606540e+00   4.780658e+00   3.819179e+01   3.896123e+05  -1.732051e+05   7.572982e+05  -1.081810e+01  -2.433453e+01   5.903455e-21   8.690790e+05   1.290184e-39   0.000000e+00   0.000000e+00
     2448000   2.447999e-05   9.637709e+00   4.766802e+00   3.825237e+01   3.896123e+05  -1.732051e+05   7.572982e+05  -6.884566e+00  -1.548633e+01  -6.642197e-21   8.690790e+05   5.225842e-40   0.000000e+00   0.000000e+00
     2456000   2.455999e-05   9.668878e+00   4.752946e+00   3.831296e+01   3.896123e+05  -1.732051e+05   7.572982e+05  -1.035149e+01  -2.328492e+01  -3.761979e-21   8.690790e+05   1.181284e-39   0.000000e+00   0.000000e+00
     2464000   2.463999e-05   9.700047e+00   4.739089e+00   3.837354e+01   3.896123e+05  -1.732051e+05   7.572982e+05  -6.750625e+00  -1.518504e+01   2.187341e-21   8.690790e+05   5.024460e-40   0.000000e+00   0.000000e+00
     2472000   2.471999e-05   9.731216e+00   4.725233e+00   3.843413e+01   3.896123e+05  -1.732051e+05   7.572982e+05  -8.770724e+00  -1.972911e+01  -3.687355e-22   8.690790e+05   8.480394e-40   0.000000e+00   0.000000e+00
     2480000   2.479999e-05   9.762385e+00   4.711376e+00   3.849471e+01   3.896123e+05  -1.732051e+05   7.572982e+05  -1.095907e+01  -2.465164e+01  -3.078295e-21   8.690790e+05   1.324031e-39   0.000000e+00   0.000000e+00
     2488000   2.487999e-05   9.793554e+00   4.697520e+00   3.855529e+01   3.896123e+05  -1.732051e+05   7.572982e+05  -1.088731e+01  -2.449020e+01   9.905205e-21   8.690790e+05   1.306805e-39   0.000000e+00   0.000000e+00
     2496000   2.495999e-05   9.824723e+00   4.683664e+00   3.861588e+01   3.896123e+05  -1.732051e+05   7.572982e+05  -1.041151e+01  -2.341994e+01   3.625242e-21   8.690790e+05   1.195022e-39   0.000000e+00   0.000000e+00
     2504000   2.503999e-05   9.855892e+00   4.669807e+00   3.867646e+01   3.896123e+05  -1.732051e+05   7.572982e+05  -1.268754e+01  -2.853971e+01   4.836656e-21   8.690790e+05   1.774630e-39   0.000000e+00   0.000000e+00
     2512000   2.511999e-05   9.887061e+00   4.655951e+00   3.873705e+01   3.896123e+05  -1.732051e+05   7.572982e+05  -7.966993e+00  -1.792117e+01  -2.752752e-21   8.690790e+05   6.997965e-40   0.000000e+00   0.000000e+00
     2520000   2.519999e-05   9.918230e+00   4.642094e+00   3.879763e+01   3.896123e+05  -1.732051e+05   7.572982e+05  -9.676050e+00  -2.176557e+01  -1.452937e-20   8.690790e+05   1.032171e-39   0.000000e+00   0.000000e+00
     2528000   2.527999e-05   9.949399e+00   4.628238e+00   3.885821e+01   3.896123e+05  -1.732051e+05   7.572982e+05  -5.674289e+00  -1.276390e+01   3.512927e-22   8.690790e+05   3.550036e-40   0.000000e+00   0.000000e+00
     2536000   2.535999e-05   9.980568e+00   4.614382e+00   3.891880e+01   3.896123e+05  -1.732051e+05   7.572982e+05  -9.303097e+00  -2.092664e+01  -7.554313e-21   8.690790e+05   9.541354e-40   0.000000e+00   0.000000e+00
     2544000   2.543999e-05   1.001174e+01   4.600525e+00   3.897938e+01   3.896123e+05  -1.732051e+05   7.572982e+05  -5.883932e+00  -1.323548e+01  -5.035233e-21   8.690790e+05   3.817342e-40   0.000000e+00   0.000000e+00
     2552000   2.551999e-05   1.004291e+01   4.586669e+00   3.903996e+01   3.896123e+05  -1.732051e+05   7.572982e+05  -3.053243e+00  -6.868049e+00  -1.386499e-21   8.690790e+05   1.027951e-40   0.000000e+00   0.000000e+00
     2560000   2.559999e-05   1.007407e+01   4.572812e+00   3.910055e+01   3.896123e+05  -1.732051e+05   7.572982e+05  -6.740122e+00  -1.516142e+01   4.044960e-21   8.690790e+05   5.008450e-40   0.000000e+00   0.000000e+00
     2568000   2.567999e-05   1.010524e+01   4.558956e+00   3.916113e+01   3.896123e+05  -1.732051e+05   7.572982e+05  -6.756857e+00  -1.519906e+01  -9.191351e-22   8.690790e+05   5.033299e-40   0.000000e+00   0.000000e+00
     2576000   2.575999e-05   1.013641e+01   4.545100e+00   3.922172e+01   3.896123e+05  -1.732051e+05   7.572982e+05  -5.369296e+00  -1.207784e+01   1.245572e-21   8.690790e+05   3.178576e-40   0.000000e+00   0.000000e+00
     2584000   2.583999e-05   1.016758e+01   4.531243e+00   3.928230e+01   3.896123e+05  -1.732051e+05   7.572982e+05  -4.096631e+00  -9.215074e+00   4.373040e-21   8.690790e+05   1.850375e-40   0.000000e+00   0.000000e+00
     2592000   2.591999e-05   1.019875e+01   4.517387e+00   3.934288e+01   3.896123e+05  -1.732051e+05   7.572982e+05  -6.995317e+00  -1.573546e+01   4.160578e-21   8.690790e+05   5.394838e-40   0.000000e+00   0.000000e+00
     2600000   2.599999e-05   1.022992e+01   4.503530e+00   3.940347e+01   3.896123e+05  -1.732051e+05   7.572982e+05  -6.242086e+00  -1.404112e+01  -2.186470e-21   8.690790e+05   4.295119e-40   0.000000e+00   0.000000e+00
     2608000   2.607999e-05   1.026109e+01   4.489674e+00   3.946405e+01   3.896123e+05  -1.732051e+05   7.572982e+05  -8.258711e-01  -1.857737e+00  -1.245667e-22   8.690790e+05   7.522704e-42   0.000000e+00   0.000000e+00
     2616000   2.615999e-05   1.029226e+01   4.475818e+00   3.952464e+01   3.896123e+05  -1.732051e+05   7.572982e+05  -6.677243e+00  -1.501997e+01  -3.738731e-21   8.690790e+05   4.915349e-40   0.000000e+00   0.000000e+00
     2624000   2.623999e-05   1.032343e+01   4.461961e+00   3.958522e+01   3.896123e+05  -1.732051e+05   7.572982e+05  -5.941889e+00  -1.336585e+01   1.041409e-21   8.690790e+05   3.892676e-40   0.000000e+00   0.000000e+00
     2632000   2.631999e-05   1.035460e+01   4.448105e+00   3.964580e+01   3.896123e+05  -1.732051e+05   7.572982e+05  -1.263519e+01  -2.842195e+01   4.691340e-21   8.690790e+05   1.759995e-39   0.000000e+00   0.000000e+00
     2640000   2.639999e-05   1.038576e+01   4.434248e+00   3.970639e+01   3.896123e+05  -1.732051e+05   7.572982e+05  -8.667865e+00  -1.949773e+01   7.603691e-21   8.690790e+05   8.283523e-40   0.000000e+00   0.000000e+00
     2648000   2.647999e-05   1.041693e+01   4.420392e+00   3.976697e+01   3.896123e+05  -1.732051e+05   7.572982e+05  -1.035939e+01  -2.330270e+01  -8.693443e-22   8.690790e+05   1.183105e-39   0.000000e+00   0.000000e+00
     2656000   2.655999e-05   1.044810e+01   4.406535e+00   3.982755e+01   3.896123e+05  -1.732051e+05   7.572982e+05  -9.335650e+00  -2.099987e+01  -1.047170e-21   8.690790e+05   9.609061e-40   0.000000e+00   0.000000e+00
     2664000   2.663999e-05   1.047927e+01   4.392679e+00   3.988814e+01   3.896123e+05  -1.732051e+05   7.572982e+05  -1.546974e+01  -3.479806e+01   7.544901e-21   8.690790e+05   2.638314e-39   0.000000e+00   0.000000e+00
     2672000   2.671999e-05   1.051044e+01   4.378823e+00   3.994872e+01   3.896123e+05  -1.732051e+05   7.572982e+05  -8.661074e+00  -1.948246e+01   1.090520e-21   8.690790e+05   8.270450e-40   0.000000e+00   0.000000e+00
     2680000   2.679999e-05   1.054161e+01   4.364966e+00   4.000931e+01   3.896123e+05  -1.732051e+05   7.572982e+05  -8.339171e+00  -1.875836e+01   2.831214e-22   8.690790e+05   7.666913e-40   0.000000e+00   0.000000e+00
     2688000   2.687999e-05   1.057278e+01   4.351110e+00   4.006989e+01   3.896123e+05  -1.732051e+05   7.572982e+05  -8.146229e+00  -1.832435e+01  -5.338554e-22   8.690790e+05   7.316242e-40   0.000000e+00   0.000000e+00
     2696000   2.695999e-05   1.060395e+01   4.337253e+00   4.013047e+01   3.896123e+05  -1.732051e+05   7.572982e+05  -7.099429e+00  -1.596965e+01  -2.886983e-21   8.690790e+05   5.556802e-40   0.000000e+00   0.000000e+00
     2704000   2.703999e-05   1.063512e+01   4.323397e+00   4.019106e+01   3.896123e+05  -1.732051e+05   7.572982e+05  -6.715227e+00  -1.510542e+01   3.633405e-21   8.690790e+05   4.971642e-40   0.000000e+00   0.000000e+00
     2712000   2.711999e-05   1.066629e+01   4.309541e+00   4.025164e+01   3.896123e+05  -1.732051e+05   7.572982e+05  -6.535336e+00  -1.470076e+01   2.864190e-21   8.690790e+05   4.708766e-40   0.000000e+00   0.000000e+00
     2720000   2.719999e-05   1.069745e+01   4.295684e+00   4.031223e+01   3.896123e+05  -1.732051e+05   7.572982e+05  -8.816949e+00  -1.983309e+01  -6.264742e-21   8.690790e+05   8.570550e-40   0.000000e+00   0.000000e+00
     2728000   2.727999e-05   1.072862e+01   4.281828e+00   4.037281e+01   3.896123e+05  -1.732051e+05   7.572982e+05  -9.240411e+00  -2.078563e+01   3.135657e-21   8.690790e+05   9.413225e-40   0.000000e+00   0.000000e+00
     2736000   2.735999e-05   1.075979e+01   4.267971e+00   4.043339e+01   3.896123e+05  -1.732051e+05   7.572982e+05  -3.365917e+00  -7.571386e+00  -3.122905e-21   8.690790e+05   1.249236e-40   0.000000e+00   0.000000e+00
     2744000   2.743999e-05   1.079096e+01   4.254115e+00   4.049398e+01   3.896123e+05  -1.732051e+05   7.572982e+05  -1.333961e+00  -3.000649e+00  -1.156433e-21   8.690790e+05   1.962565e-41   0.000000e+00   0.000000e+00
     2752000   2.751999e-05   1.082213e+01   4.240259e+00   4.055456e+01   3.896123e+05  -1.732051e+05   7.572982e+05  -6.203733e+00  -1.395485e+01  -4.297780e-22   8.690790e+05   4.243562e-40   0.000000e+00   0.000000e+00
     2760000   2.759999e-05   1.085330e+01   4.226402e+00   4.061514e+01   3.896123e+05  -1.732051e+05   7.572982e+05  -8.006779e+00  -1.801067e+01   4.977678e-21   8.690790e+05   7.067186e-40   0.000000e+00   0.000000e+00
     2768000   2.767999e-05   1.088447e+01   4.212546e+00   4.067573e+01   3.896123e+05  -1.732051e+05   7.572982e+05  -1.105702e+01  -2.487196e+01  -2.217232e-21   8.690790e+05   1.347778e-39   0.000000e+00   0.000000e+00
     2776000   2.775999e-05   1.091564e+01   4.198689e+00   4.073631e+01   3.896123e+05  -1.732051e+05   7.572982e+05  -8.142202e+00  -1.831529e+01   6.838057e-21   8.690790e+05   7.308833e-40   0.000000e+00   0.000000e+00
     2784000   2.783999e-05   1.094681e+01   4.184833e+00   4.079690e+01   3.896123e+05  -1.732051e+05   7.572982e+05  -8.736801e+00  -1.965280e+01  -7.067733e-21   8.690790e+05   8.415303e-40   0.000000e+00   0.000000e+00
     2792000   2.791999e-05   1.097798e+01   4.170977e+00   4.085748e+01   3.896123e+05  -1.732051e+05   7.572982e+05  -1.051312e+01  -2.364849e+01   6.526026e-21   8.690790e+05   1.218501e-39   0.000000e+00   0.000000e+00
     2800000   2.799999e-05   1.100914e+01   4.157120e+00   4.091806e+01   3.896123e+05  -1.732051e+05   7.572982e+05  -8.775804e+00  -1.974053e+01   2.799003e-21   8.690790e+05   8.490448e-40   0.000000e+00   0.000000e+00
     2808000   2.807999e-05   1.104031e+01   4.143264e+00   4.097865e+01   3.896123e+05  -1.732051e+05   7.572982e+05  -1.002126e+01  -2.254210e+01   2.049553e-21   8.690790e+05   1.107143e-39   0.000000e+00   0.000000e+00
     2816000   2.815999e-05   1.107148e+01   4.129407e+00   4.103923e+01   3.896123e+05  -1.732051e+05   7.572982e+05  -5.310486e+00  -1.194555e+01  -3.036005e-21   8.690790e+05   3.109447e-40   0.000000e+00   0.000000e+00
     2824000   2.823999e-05   1.110265e+01   4.115551e+00   4.109982e+01   3.896123e+05  -1.732051e+05   7.572982e+05  -7.560430e+00  -1.700664e+01  -6.231539e-21   8.690790e+05   6.301584e-40   0.000000e+00   0.000000e+00
     2832000   2.831999e-05   1.113382e+01   4.101695e+00   4.116040e+01   3.896123e+05  -1.732051e+05   7.572982e+05  -5.904413e+00  -1.328155e+01  -2.933448e-21   8.690790e+05   3.843694e-40   0.000000e+00   0.000000e+00
     2840000   2.839999e-05   1.116499e+01   4.087838e+00   4.122098e+01   3.896123e+05  -1.732051e+05   7.572982e+05  -5.435583e+00  -1.222695e+01   2.989347e-21   8.690790e+05   3.257334e-40   0.000000e+00   0.000000e+00
     2848000   2.847999e-05   1.119616e+01   4.073982e+00   4.128157e+01   3.896123e+05  -1.732051e+05   7.572982e+05  -5.545496e+00  -1.247419e+01   2.606061e-21   8.690790e+05   3.390399e-40   0.000000e+00   0.000000e+00
     2856000   2.855999e-05   1.122733e+01   4.060125e+00   4.134215e+01   3.896123e+05  -1.732051e+05   7.572982e+05  -6.757210e+00  -1.519985e+01   3.592797e-21   8.690790e+05   5.033476e-40   0.000000e+00   0.000000e+00
     2864000   2.863999e-05   1.125850e+01   4.046269e+00   4.140273e+01   3.896123e+05  -1.732051e+05   7.572982e+05  -6.666489e+00  -1.499578e+01  -4.728566e-22   8.690790e+05   4.899846e-40   0.000000e+00   0.000000e+00
     2872000   2.871999e-05   1.128967e+01   4.032413e+00   4.146332e+01   3.896123e+05  -1.732051e+05   7.572982e+05  -5.695897e+00  -1.281251e+01   3.373422e-21   8.690790e+05   3.576967e-40   0.000000e+00   0.000000e+00
     2880000   2.879999e-05   1.132083e+01   4.018556e+00   4.152390e+01   3.896123e+05  -1.732051e+05   7.572982e+05  -7.089886e+00  -1.594818e+01  -3.310197e-21   8.690790e+05   5.542271e-40   0.000000e+00   0.000000e+00
     2888000   2.887999e-05   1.135200e+01   4.004700e+00   4.158449e+01   3.896123e+05  -1.732051e+05   7.572982e+05  -4.668110e+00  -1.050058e+01  -1.090797e-21   8.690790e+05   2.402762e-40   0.000000e+00   0.000000e+00
     2896000   2.895999e-05   1.138317e+01   3.990843e+00   4.164507e+01   3.896123e+05  -1.732051e+05   7.572982e+05  -8.469319e+00  -1.905112e+01   5.566082e-21   8.690790e+05   7.907713e-40   0.000000e+00   0.000000e+00
     2904000   2.903999e-05   1.141434e+01   3.976987e+00   4.170565e+01   3.896123e+05  -1.732051e+05   7.572982e+05  -4.209392e+00  -9.468723e+00  -1.307631e-21   8.690790e+05   1.953572e-40   0.000000e+00   0.000000e+00
     2912000   2.911999e-05   1.144551e+01   3.963130e+00   4.176624e+01   3.896123e+05  -1.732051e+05   7.572982e+05  -3.497123e+00  -7.866524e+00   3.686523e-21   8.690790e+05   1.348392e-40   0.000000e+00   0.000000e+00
     2920000   2.919999e-05   1.147668e+01   3.949274e+00   4.182682e+01   3.896123e+05  -1.732051e+05   7.572982e+05  -7.318829e+00  -1.646317e+01  -1.079602e-21   8.690790e+05   5.905378e-40   0.000000e+00   0.000000e+00
     2928000   2.927999e-05   1.150785e+01   3.935418e+00   4.188741e+01   3.896123e+05  -1.732051e+05   7.572982e+05  -5.315216e+00  -1.195619e+01  -4.578964e-21   8.690790e+05   3.114683e-40   0.000000e+00   0.000000e+00
     2936000   2.935999e-05   1.153902e+01   3.921561e+00   4.194799e+01   3.896123e+05  -1.732051e+05   7.572982e+05  -7.987001e+00  -1.796618e+01  -4.420987e-22   8.690790e+05   7.032643e-40   0.000000e+00   0.000000e+00
     2944000   2.943999e-05   1.157019e+01   3.907705e+00   4.200857e+01   3.896123e+05  -1.732051e+05   7.572982e+05  -7.910787e+00  -1.779474e+01  -2.056362e-21   8.690790e+05   6.899403e-40   0.000000e+00   0.000000e+00
     2952000   2.951999e-05   1.160135e+01   3.893848e+00   4.206916e+01   3.896123e+05  -1.732051e+05   7.572982e+05  -8.271112e+00  -1.860527e+01   9.161802e-21   8.690790e+05   7.542321e-40   0.000000e+00   0.000000e+00
     2960000   2.959999e-05   1.163252e+01   3.879992e+00   4.212974e+01   3.896123e+05  -1.732051e+05   7.572982e+05  -9.344647e+00  -2.102010e+01   1.065211e-20   8.690790e+05   9.626987e-40   0.000000e+00   0.000000e+00
     2968000   2.967999e-05   1.166369e+01   3.866136e+00   4.219032e+01   3.896123e+05  -1.732051e+05   7.572982e+05  -1.000170e+01  -2.249810e+01   5.115710e-22   8.690790e+05   1.102841e-39   0.000000e+00   0.000000e+00
     2976000   2.975999e-05   1.169486e+01   3.852279e+00   4.225091e+01   3.896123e+05  -1.732051e+05   7.572982e+05  -7.634931e+00  -1.717422e+01  -4.470164e-21   8.690790e+05   6.426697e-40   0.000000e+00   0.000000e+00
     2984000   2.983999e-05   1.172603e+01   3.838423e+00   4.231149e+01   3.896123e+05  -1.732051e+05   7.572982e+05  -6.494314e+00  -1.460849e+01  -5.646504e-21   8.690790e+05   4.650292e-40   0.000000e+00   0.000000e+00
     2992000   2.991999e-05   1.175720e+01   3.824566e+00   4.237208e+01   3.896123e+05  -1.732051e+05   7.572982e+05  -4.019239e+00  -9.040985e+00  -2.639574e-21   8.690790e+05   1.781257e-40   0.000000e+00   0.000000e+00
     3000000   2.999999e-05   1.178837e+01   3.810710e+00   4.243266e+01   3.896123e+05  -1.732051e+05   7.572982e+05  -6.844319e+00  -1.539580e+01  -4.825755e-23   8.690790e+05   5.164339e-40   0.000000e+00   0.000000e+00
     3008000   3.007999e-05   1.181954e+01   3.796854e+00   4.249324e+01   3.896123e+05  -1.732051e+05   7.572982e+05  -5.486990e+00  -1.234258e+01  -2.147387e-21   8.690790e+05   3.319345e-40   0.000000e+00   0.000000e+00
     3016000   3.015999e-05   1.185071e+01   3.782997e+00   4.255383e+01   3.896123e+05  -1.732051e+05   7.572982e+05  -2.293587e+00  -5.159257e+00   1.063274e-21   8.690790e+05   5.800432e-41   0.000000e+00   0.000000e+00
     3024000   3.023999e-05   1.188188e+01   3.769141e+00   4.261441e+01   3.896123e+05  -1.732051e+05   7.572982e+05  -3.971676e+00  -8.933997e+00  -2.426710e-21   8.690790e+05   1.739147e-40   0.000000e+00   0.000000e+00
     3032000   3.031999e-05   1.191304e+01   3.755284e+00   4.267500e+01   3.896123e+05  -1.732051e+05   7.572982e+05  -3.546825e+00  -7.978326e+00  -1.108217e-21   8.690790e+05   1.387035e-40   0.000000e+00   0.000000e+00
     3040000   3.039999e-05   1.194421e+01   3.741428e+00   4.273558e+01   3.896123e+05  -1.732051e+05   7.572982e+05  -7.041355e+00  -1.583902e+01   5.599161e-22   8.690790e+05   5.465900e-40   0.000000e+00   0.000000e+00
     3048000   3.047999e-05   1.197538e+01   3.727572e+00   4.279616e+01   3.896123e+05  -1.732051e+05   7.572982e+05  -8.536845e+00  -1.920301e+01   2.573934e-22   8.690790e+05   8.034300e-40   0.000000e+00   0.000000e+00
     3056000   3.055999e-05   1.200655e+01   3.713715e+00   4.285675e+01   3.896123e+05  -1.732051e+05   7.572982e+05  -5.827216e+00  -1.310790e+01   2.044379e-21   8.690790e+05   3.743555e-40   0.000000e+00   0.000000e+00
     3064000   3.063999e-05   1.203772e+01   3.699859e+00   4.291733e+01   3.896123e+05  -1.732051e+05   7.572982e+05  -5.755609e+00  -1.294682e+01  -7.431930e-22   8.690790e+05   3.652203e-40   0.000000e+00   0.000000e+00
     3072000   3.071999e-05   1.206889e+01   3.686002e+00   4.297791e+01   3.896123e+05  -1.732051e+05   7.572982e+05  -5.750317e+00  -1.293492e+01   5.296245e-21   8.690790e+05   3.645490e-40   0.000000e+00   0.000000e+00
     3080000   3.079999e-05   1.210006e+01   3.672146e+00   4.303850e+01   3.896123e+05  -1.732051e+05   7.572982e+05  -4.946506e+00  -1.112681e+01  -2.199662e-21   8.690790e+05   2.697551e-40   0.000000e+00   0.000000e+00
     3088000   3.087999e-05   1.213123e+01   3.658290e+00   4.309908e+01   3.896123e+05  -1.732051e+05   7.572982e+05  -4.931854e+00  -1.109385e+01   6.923197e-22   8.690790e+05   2.681593e-40   0.000000e+00   0.000000e+00
     3096000   3.095999e-05   1.216240e+01   3.644433e+00   4.315967e+01   3.896123e+05  -1.732051e+05   7.572982e+05  -7.404531e+00  -1.665595e+01   6.689437e-21   8.690790e+05   6.044536e-40   0.000000e+00   0.000000e+00
     3104000   3.103999e-05   1.219357e+01   3.630577e+00   4.322025e+01   3.896123e+05  -1.732051e+05   7.572982e+05  -5.420303e+00  -1.219258e+01   1.841495e-21   8.690790e+05   3.239065e-40   0.000000e+00   0.000000e+00
     3112000   3.111999e-05   1.222473e+01   3.616720e+00   4.328083e+01   3.896123e+05  -1.732051e+05   7.572982e+05  -6.940806e+00  -1.561284e+01  -5.743501e-21   8.690790e+05   5.311011e-40   0.000000e+00   0.000000e+00
     3120000   3.119999e-05   1.225590e+01   3.602864e+00   4.334142e+01   3.896123e+05  -1.732051e+05   7.572982e+05  -4.998367e+00  -1.124346e+01   4.102055e-21   8.690790e+05   2.754533e-40   0.000000e+00   0.000000e+00
     3128000   3.127999e-05   1.228707e+01   3.589008e+00   4.340200e+01   3.896123e+05  -1.732051e+05   7.572982e+05  -8.545342e+00  -1.922213e+01  -2.620187e-21   8.690790e+05   8.050322e-40   0.000000e+00   0.000000e+00
     3136000   3.135999e-05   1.231824e+01   3.575151e+00   4.346259e+01   3.896123e+05  -1.732051e+05   7.572982e+05  -6.504296e+00  -1.463094e+01  -1.524040e-21   8.690790e+05   4.664296e-40   0.000000e+00   0.000000e+00
     3144000   3.143999e-05   1.234941e+01   3.561295e+00   4.352317e+01   3.896123e+05  -1.732051e+05   7.572982e+05  -5.411756e+00  -1.217335e+01  -3.280360e-22   8.690790e+05   3.228785e-40   0.000000e+00   0.000000e+00
     3152000   3.151999e-05   1.238058e+01   3.547438e+00   4.358375e+01   3.896123e+05  -1.732051e+05   7.572982e+05  -5.886122e+00  -1.324040e+01   6.142801e-21   8.690790e+05   3.819637e-40   0.000000e+00   0.000000e+00
     3160000   3.159999e-05   1.241175e+01   3.533582e+00   4.364434e+01   3.896123e+05  -1.732051e+05   7.572982e+05  -4.619262e+00  -1.039069e+01  -3.439003e-21   8.690790e+05   2.352449e-40   0.000000e+00   0.000000e+00
     3168000   3.167999e-05   1.244292e+01   3.519725e+00   4.370492e+01   3.896123e+05  -1.732051e+05   7.572982e+05  -4.595460e+00  -1.033715e+01  -3.422144e-22   8.690790e+05   2.328371e-40   0.000000e+00   0.000000e+00
     3176000   3.175999e-05   1.247409e+01   3.505869e+00   4.376551e+01   3.896123e+05  -1.732051e+05   7.572982e+05  -3.663895e+00  -8.241665e+00  -4.497101e-21   8.690790e+05   1.480082e-40   0.000000e+00   0.000000e+00
     3184000   3.183999e-05   1.250526e+01   3.492013e+00   4.382609e+01   3.896123e+05  -1.732051e+05   7.572982e+05  -3.841652e+00  -8.641517e+00  -2.649227e-21   8.690790e+05   1.627041e-40   0.000000e+00   0.000000e+00
     3192000   3.191999e-05   1.253642e+01   3.478156e+00   4.388667e+01   3.896123e+05  -1.732051e+05   7.572982e+05  -4.188255e+00  -9.421176e+00   1.558702e-21   8.690790e+05   1.933880e-40   0.000000e+00   0.000000e+00
     3200000   3.199999e-05   1.256759e+01   3.464300e+00   4.394726e+01   3.896123e+05  -1.732051e+05   7.572982e+05  -4.529371e+00  -1.018849e+01   3.183603e-21   8.690790e+05   2.261677e-40   0.000000e+00   0.000000e+00
     3208000   3.207999e-05   1.259876e+01   3.450443e+00   4.400784e+01   3.896123e+05  -1.732051e+05   7.572982e+05  -5.537047e+00  -1.245519e+01   1.897524e-22   8.690790e+05   3.380041e-40   0.000000e+00   0.000000e+00
     3216000   3.215999e-05   1.262993e+01   3.436587e+00   4.406842e+01   3.896123e+05  -1.732051e+05   7.572982e+05  -5.081436e+00  -1.143032e+01  -1.621164e-21   8.690790e+05   2.846849e-40   0.000000e+00   0.000000e+00
     3224000   3.223999e-05   1.266110e+01   3.422731e+00   4.412901e+01   3.896123e+05  -1.732051e+05   7.572982e+05  -6.470156e+00  -1.455415e+01   4.087855e-21   8.690790e+05   4.615261e-40   0.000000e+00   0.000000e+00
     3232000   3.231999e-05   1.269227e+01   3.408874e+00   4.418959e+01   3.896123e+05  -1.732051e+05   7.572982e+05  -6.797670e+00  -1.529087e+01  -3.913307e-22   8.690790e+05   5.094331e-40   0.000000e+00   0.000000e+00
     3240000   3.239999e-05   1.272344e+01   3.395018e+00   4.425018e+01   3.896123e+05  -1.732051e+05   7.572982e+05  -3.594168e+00  -8.084820e+00  -5.056124e-22   8.690790e+05   1.424255e-40   0.000000e+00   0.000000e+00
     3248000   3.247999e-05   1.275461e+01   3.381161e+00   4.431076e+01   3.896123e+05  -1.732051e+05   7.572982e+05  -6.661905e+00  -1.498547e+01   7.869286e-22   8.690790e+05   4.892823e-40   0.000000e+00   0.000000e+00
     3256000   3.255999e-05   1.278578e+01   3.367305e+00   4.437134e+01   3.896123e+05  -1.732051e+05   7.572982e+05  -7.252342e+00  -1.631362e+01  -1.062190e-21   8.690790e+05   5.798557e-40   0.000000e+00   0.000000e+00
     3264000   3.263999e-05   1.281695e+01   3.353449e+00   4.443193e+01   3.896123e+05  -1.732051e+05   7.572982e+05  -4.188147e+00  -9.420933e+00   2.125607e-21   8.690790e+05   1.933788e-40   0.000000e+00   0.000000e+00
     3272000   3.271999e-05   1.284811e+01   3.339592e+00   4.449251e+01   3.896123e+05  -1.732051e+05   7.572982e+05  -4.466953e+00  -1.004809e+01  -4.752501e-21   8.690790e+05   2.199826e-40   0.000000e+00   0.000000e+00
     3280000   3.279999e-05   1.287928e+01   3.325736e+00   4.455310e+01   3.896123e+05  -1.732051e+05   7.572982e+05  -7.075174e-01  -1.591509e+00   3.015177e-22   8.690790e+05   5.521819e-42   0.000000e+00   0.000000e+00
     3288000   3.287999e-05   1.291045e+01   3.311879e+00   4.461368e+01   3.896123e+05  -1.732051e+05   7.572982e+05  -3.164261e+00  -7.117776e+00  -1.767639e-21   8.690790e+05   1.103895e-40   0.000000e+00   0.000000e+00
     3296000   3.295999e-05   1.294162e+01   3.298023e+00   4.467426e+01   3.896123e+05  -1.732051e+05   7.572982e+05  -2.506944e+00  -5.639188e+00  -2.028827e-21   8.690790e+05   6.928839e-41   0.000000e+00   0.000000e+00
     3304000   3.303999e-05   1.297279e+01   3.284167e+00   4.473485e+01   3.896123e+05  -1.732051e+05   7.572982e+05  -5.164033e+00  -1.161612e+01  -3.852842e-22   8.690790e+05   2.939764e-40   0.000000e+00   0.000000e+00
     3312000   3.311999e-05   1.300396e+01   3.270310e+00   4.479543e+01   3.896123e+05  -1.732051e+05   7.572982e+05  -2.698298e+00  -6.069625e+00  -6.313276e-22   8.690790e+05   8.029690e-41   0.000000e+00   0.000000e+00
     3320000   3.319999e-05   1.303513e+01   3.256454e+00   4.485601e+01   3.896123e+05  -1.732051e+05   7.572982e+05  -6.009383e+00  -1.351767e+01  -4.189540e-21   8.690790e+05   3.981120e-40   0.000000e+00   0.000000e+00
     3328000   3.327999e-05   1.306630e+01   3.242597e+00   4.491660e+01   3.896123e+05  -1.732051e+05   7.572982e+05  -2.401040e+00  -5.400965e+00  -7.065661e-22   8.690790e+05   6.358227e-41   0.000000e+00   0.000000e+00
     3336000   3.335999e-05   1.309747e+01   3.228741e+00   4.497718e+01   3.896123e+05  -1.732051e+05   7.572982e+05   1.248921e+00   2.809356e+00   2.626524e-22   8.690790e+05   1.718401e-41   0.000000e+00   0.000000e+00
     3344000   3.343999e-05   1.312863e+01   3.214885e+00   4.503777e+01   3.896123e+05  -1.732051e+05   7.572982e+05  -2.785711e+00  -6.266254e+00  -4.028740e-21   8.690790e+05   8.555247e-41   0.000000e+00   0.000000e+00
     3352000   3.351999e-05   1.315980e+01   3.201028e+00   4.509835e+01   3.896123e+05  -1.732051e+05   7.572982e+05  -3.086808e+00  -6.943551e+00  -3.476824e-22   8.690790e+05   1.050463e-40   0.000000e+00   0.000000e+00
     3360000   3.359999e-05   1.319097e+01   3.187172e+00   4.515893e+01   3.896123e+05  -1.732051e+05   7.572982e+05  -2.422511e+00  -5.449263e+00  -4.973905e-22   8.690790e+05   6.469484e-41   0.000000e+00   0.000000e+00
     3368000   3.367999e-05   1.322214e+01   3.173315e+00   4.521952e+01   3.896123e+05  -1.732051e+05   7.572982e+05  -4.446498e+00  -1.000208e+01   3.976973e-21   8.690790e+05   2.179661e-40   0.000000e+00   0.000000e+00
     3376000   3.375999e-05   1.325331e+01   3.159459e+00   4.528010e+01   3.896123e+05  -1.732051e+05   7.572982e+05  -5.251790e+00  -1.181352e+01   1.877107e-21   8.690790e+05   3.040677e-40   0.000000e+00   0.000000e+00
     3384000   3.383999e-05   1.328448e+01   3.145602e+00   4.534069e+01   3.896123e+05  -1.732051e+05   7.572982e+05  -8.602761e+00  -1.935129e+01  -1.923114e-22   8.690790e+05   8.159029e-40   0.000000e+00   0.000000e+00
     3392000   3.391999e-05   1.331565e+01   3.131746e+00   4.540127e+01   3.896123e+05  -1.732051e+05   7.572982e+05  -4.918676e+00  -1.106421e+01  -2.361684e-21   8.690790e+05   2.667002e-40   0.000000e+00   0.000000e+00
     3400000   3.399999e-05   1.334682e+01   3.117890e+00   4.546185e+01   3.896123e+05  -1.732051e+05   7.572982e+05  -6.977712e+00  -1.569586e+01   3.552685e-21   8.690790e+05   5.367429e-40   0.000000e+00   0.000000e+00
     3408000   3.407999e-05   1.337799e+01   3.104033e+00   4.552244e+01   3.896123e+05  -1.732051e+05   7.572982e+05  -3.280205e+00  -7.378582e+00   7.183630e-23   8.690790e+05   1.186426e-40   0.000000e+00   0.000000e+00
     3416000   3.415999e-05   1.340916e+01   3.090177e+00   4.558302e+01   3.896123e+05  -1.732051e+05   7.572982e+05  -5.587336e+00  -1.256831e+01  -2.192258e-21   8.690790e+05   3.441398e-40   0.000000e+00   0.000000e+00
     3424000   3.423999e-05   1.344032e+01   3.076320e+00   4.564360e+01   3.896123e+05  -1.732051e+05   7.572982e+05  -4.860110e+00  -1.093246e+01  -2.077722e-21   8.690790e+05   2.604398e-40   0.000000e+00   0.000000e+00
     3432000   3.431999e-05   1.347149e+01   3.062464e+00   4.570419e+01   3.896123e+05  -1.732051e+05   7.572982e+05  -4.650636e+00  -1.046127e+01   2.122973e-21   8.690790e+05   2.384189e-40   0.000000e+00   0.000000e+00
     3440000   3.439999e-05   1.350266e+01   3.048608e+00   4.576477e+01   3.896123e+05  -1.732051e+05   7.572982e+05  -4.060543e+00  -9.133896e+00   2.413583e-21   8.690790e+05   1.817910e-40   0.000000e+00   0.000000e+00
     3448000   3.447999e-05   1.353383e+01   3.034751e+00   4.582536e+01   3.896123e+05  -1.732051e+05   7.572982e+05  -2.839209e+00  -6.386595e+00  -1.413432e-21   8.690790e+05   8.887944e-41   0.000000e+00   0.000000e+00
     3456000   3.455999e-05   1.356500e+01   3.020895e+00   4.588594e+01   3.896123e+05  -1.732051e+05   7.572982e+05  -1.941793e+00  -4.367923e+00   2.489700e-21   8.690790e+05   4.157463e-41   0.000000e+00   0.000000e+00
     3464000   3.463999e-05   1.359617e+01   3.007038e+00   4.594652e+01   3.896123e+05  -1.732051e+05   7.572982e+05   3.184460e-01   7.163212e-01  -1.630998e-22   8.690790e+05   1.116954e-42   0.000000e+00   0.000000e+00
     3472000   3.471999e-05   1.362734e+01   2.993182e+00   4.600711e+01   3.896123e+05  -1.732051e+05   7.572982e+05  -7.503527e-01  -1.687864e+00  -1.359618e-22   8.690790e+05   6.209416e-42   0.000000e+00   0.000000e+00
     3480000   3.479999e-05   1.365851e+01   2.979326e+00   4.606769e+01   3.896123e+05  -1.732051e+05   7.572982e+05   2.700194e-01   6.073890e-01  -2.070793e-22   8.690790e+05   8.030669e-43   0.000000e+00   0.000000e+00
     3488000   3.487999e-05   1.368968e+01   2.965469e+00   4.612828e+01   3.896123e+05  -1.732051e+05   7.572982e+05   4.551489e+00   1.023824e+01  -4.136195e-21   8.690790e+05   2.283785e-40   0.000000e+00   0.000000e+00
     3496000   3.495999e-05   1.372085e+01   2.951613e+00   4.618886e+01   3.896123e+05  -1.732051e+05   7.572982e+05  -4.364616e+00  -9.817887e+00  -9.752003e-22   8.690790e+05   2.099829e-40   0.000000e+00   0.000000e+00
     3504000   3.503999e-05   1.375201e+01   2.937756e+00   4.624944e+01   3.896123e+05  -1.732051e+05   7.572982e+05  -2.641241e+00  -5.941279e+00   1.292302e-21   8.690790e+05   7.691757e-41   0.000000e+00   0.000000e+00
     3512000   3.511999e-05   1.378318e+01   2.923900e+00   4.631003e+01   3.896123e+05  -1.732051e+05   7.572982e+05  -4.658037e+00  -1.047792e+01   1.626785e-21   8.690790e+05   2.391678e-40   0.000000e+00   0.000000e+00
     3520000   3.519999e-05   1.381435e+01   2.910044e+00   4.637061e+01   3.896123e+05  -1.732051e+05   7.572982e+05  -5.147365e+00  -1.157862e+01  -4.369447e-21   8.690790e+05   2.921138e-40   0.000000e+00   0.000000e+00
     3528000   3.527999e-05   1.384552e+01   2.896187e+00   4.643119e+01   3.896123e+05  -1.732051e+05   7.572982e+05  -3.092708e+00  -6.956821e+00  -1.883410e-21   8.690790e+05   1.054675e-40   0.000000e+00   0.000000e+00
     3536000   3.535999e-05   1.387669e+01   2.882331e+00   4.649178e+01   3.896123e+05  -1.732051e+05   7.572982e+05  -1.130859e+00  -2.543786e+00  -1.113823e-21   8.690790e+05   1.410515e-41   0.000000e+00   0.000000e+00
     3544000   3.543999e-05   1.390786e+01   2.868474e+00   4.655236e+01   3.896123e+05  -1.732051e+05   7.572982e+05  -6.791254e-01  -1.527643e+00  -3.532885e-22   8.690790e+05   5.091620e-42   0.000000e+00   0.000000e+00
     3552000   3.551999e-05   1.393903e+01   2.854618e+00   4.661295e+01   3.896123e+05  -1.732051e+05   7.572982e+05  -3.247687e+00  -7.305436e+00   7.980313e-22   8.690790e+05   1.162638e-40   0.000000e+00   0.000000e+00
     3560000   3.559999e-05   1.397020e+01   2.840762e+00   4.667353e+01   3.896123e+05  -1.732051e+05   7.572982e+05  -5.522921e+00  -1.242341e+01   2.453576e-22   8.690790e+05   3.362522e-40   0.000000e+00   0.000000e+00
     3568000   3.567999e-05   1.400137e+01   2.826905e+00   4.673411e+01   3.896123e+05  -1.732051e+05   7.572982e+05  -1.771026e+00  -3.983794e+00   1.240086e-21   8.690790e+05   3.457028e-41   0.000000e+00   0.000000e+00
     3576000   3.575999e-05   1.403254e+01   2.813049e+00   4.679470e+01   3.896123e+05  -1.732051e+05   7.572982e+05  -3.711682e+00  -8.349159e+00  -2.093731e-21   8.690790e+05   1.518647e-40   0.000000e+00   0.000000e+00
     3584000   3.583999e-05   1.406370e+01   2.799192e+00   4.685528e+01   3.896123e+05  -1.732051e+05   7.572982e+05   2.451718e+00   5.514962e+00   1.162953e-21   8.690790e+05   6.625627e-41   0.000000e+00   0.000000e+00
     3592000   3.591999e-05   1.409487e+01   2.785336e+00   4.691587e+01   3.896123e+05  -1.732051e+05   7.572982e+05   2.764911e+00   6.219467e+00  -2.963025e-21   8.690790e+05   8.428687e-41   0.000000e+00   0.000000e+00
     3600000   3.599999e-05   1.412604e+01   2.771480e+00   4.697645e+01   3.896123e+05  -1.732051e+05   7.572982e+05  -1.785276e+00  -4.015848e+00   1.559035e-21   8.690790e+05   3.514393e-41   0.000000e+00   0.000000e+00
     3608000   3.607999e-05   1.415721e+01   2.757623e+00   4.703703e+01   3.896123e+05  -1.732051e+05   7.572982e+05  -1.764320e+00  -3.968710e+00   1.890687e-21   8.690790e+05   3.431564e-41   0.000000e+00   0.000000e+00
     3616000   3.615999e-05   1.418838e+01   2.743767e+00   4.709762e+01   3.896123e+05  -1.732051e+05   7.572982e+05  -2.332025e+00  -5.245721e+00   4.320519e-22   8.690790e+05   5.995319e-41   0.000000e+00   0.000000e+00
     3624000   3.623999e-05   1.421955e+01   2.729910e+00   4.715820e+01   3.896123e+05  -1.732051e+05   7.572982e+05  -2.264678e+00  -5.094229e+00   2.384891e-21   8.690790e+05   5.653274e-41   0.000000e+00   0.000000e+00
     3632000   3.631999e-05   1.425072e+01   2.716054e+00   4.721878e+01   3.896123e+05  -1.732051e+05   7.572982e+05  -1.524416e+00  -3.429063e+00  -6.259208e-22   8.690790e+05   2.562279e-41   0.000000e+00   0.000000e+00
     3640000   3.639999e-05   1.428189e+01   2.702197e+00   4.727937e+01   3.896123e+05  -1.732051e+05   7.572982e+05  -8.612735e-01  -1.937372e+00   4.163542e-23   8.690790e+05   8.179711e-42   0.000000e+00   0.000000e+00
     3648000   3.647999e-05   1.431306e+01   2.688341e+00   4.733995e+01   3.896123e+05  -1.732051e+05   7.572982e+05  -5.826530e+00  -1.310636e+01   5.361139e-21   8.690790e+05   3.742456e-40   0.000000e+00   0.000000e+00
     3656000   3.655999e-05   1.434423e+01   2.674485e+00   4.740054e+01   3.896123e+05  -1.732051e+05   7.572982e+05  -8.737697e-01  -1.965481e+00  -5.330880e-22   8.690790e+05   8.424882e-42   0.000000e+00   0.000000e+00
     3664000   3.663999e-05   1.437539e+01   2.660628e+00   4.746112e+01   3.896123e+05  -1.732051e+05   7.572982e+05   2.327307e+00   5.235108e+00   8.439009e-22   8.690790e+05   5.969394e-41   0.000000e+00   0.000000e+00
     3672000   3.671999e-05   1.440656e+01   2.646772e+00   4.752170e+01   3.896123e+05  -1.732051e+05   7.572982e+05  -6.182289e-01  -1.390661e+00   4.454061e-22   8.690790e+05   4.212885e-42   0.000000e+00   0.000000e+00
     3680000   3.679999e-05   1.443773e+01   2.632915e+00   4.758229e+01   3.896123e+05  -1.732051e+05   7.572982e+05  -1.138227e+00  -2.560358e+00   9.953079e-22   8.690790e+05   1.428171e-41   0.000000e+00   0.000000e+00
     3688000   3.687999e-05   1.446890e+01   2.619059e+00   4.764287e+01   3.896123e+05  -1.732051e+05   7.572982e+05  -2.934581e+00  -6.601127e+00  -2.534347e-21   8.690790e+05   9.493511e-41   0.000000e+00   0.000000e+00
     3696000   3.695999e-05   1.450007e+01   2.605203e+00   4.770346e+01   3.896123e+05  -1.732051e+05   7.572982e+05  -1.834374e+00  -4.126290e+00  -7.778394e-22   8.690790e+05   3.709452e-41   0.000000e+00   0.000000e+00
     3704000   3.703999e-05   1.453124e+01   2.591346e+00   4.776404e+01   3.896123e+05  -1.732051e+05   7.572982e+05  -2.216238e+00  -4.985266e+00   2.341915e-22   8.690790e+05   5.414823e-41   0.000000e+00   0.000000e+00
     3712000   3.711999e-05   1.456241e+01   2.577490e+00   4.782462e+01   3.896123e+05  -1.732051e+05   7.572982e+05  -3.524424e+00  -7.927935e+00  -2.975848e-22   8.690790e+05   1.369538e-40   0.000000e+00   0.000000e+00
     3720000   3.719999e-05   1.459358e+01   2.563633e+00   4.788521e+01   3.896123e+05  -1.732051e+05   7.572982e+05  -2.690604e+00  -6.052318e+00   1.396901e-21   8.690790e+05   7.981883e-41   0.000000e+00   0.000000e+00
     3728000   3.727999e-05   1.462475e+01   2.549777e+00   4.794579e+01   3.896123e+05  -1.732051e+05   7.572982e+05  -5.515813e-01  -1.240742e+00  -2.779322e-22   8.690790e+05   3.352973e-42   0.000000e+00   0.000000e+00
     3736000   3.735999e-05   1.465591e+01   2.535921e+00   4.800637e+01   3.896123e+05  -1.732051e+05   7.572982e+05  -4.180441e-02  -9.403599e-02  -8.677800e-24   8.690790e+05   1.939020e-44   0.000000e+00   0.000000e+00
     3744000   3.743999e-05   1.468708e+01   2.522064e+00   4.806696e+01   3.896123e+05  -1.732051e+05   7.572982e+05   1.024786e+00   2.305182e+00   5.104703e-22   8.690790e+05   1.157513e-41   0.000000e+00   0.000000e+00
     3752000   3.751999e-05   1.471825e+01   2.508208e+00   4.812754e+01   3.896123e+05  -1.732051e+05   7.572982e+05  -2.347854e-01  -5.281327e-01   2.267009e-22   8.690790e+05   6.072986e-43   0.000000e+00   0.000000e+00
     3760000   3.759999e-05   1.474942e+01   2.494351e+00   4.818813e+01   3.896123e+05  -1.732051e+05   7.572982e+05  -6.854024e-01  -1.541763e+00  -4.994871e-23   8.690790e+05   5.177925e-42   0.000000e+00   0.000000e+00
     3768000   3.767999e-05   1.478059e+01   2.480495e+00   4.824871e+01   3.896123e+05  -1.732051e+05   7.572982e+05   8.622843e-01   1.939646e+00  -5.214820e-23   8.690790e+05   8.195127e-42   0.000000e+00   0.000000e+00
     3776000   3.775999e-05   1.481176e+01   2.466639e+00   4.830929e+01   3.896123e+05  -1.732051e+05   7.572982e+05  -8.956918e-01  -2.014794e+00   9.052086e-22   8.690790e+05   8.843095e-42   0.000000e+00   0.000000e+00
     3784000   3.783999e-05   1.484293e+01   2.452782e+00   4.836988e+01   3.896123e+05  -1.732051e+05   7.572982e+05  -1.598092e+00  -3.594792e+00  -4.568543e-22   8.690790e+05   2.815322e-41   0.000000e+00   0.000000e+00
     3792000   3.791999e-05   1.487410e+01   2.438926e+00   4.843046e+01   3.896123e+05  -1.732051e+05   7.572982e+05   4.856872e-01   1.092518e+00  -2.589232e-22   8.690790e+05   2.600138e-42   0.000000e+00   0.000000e+00
     3800000   3.799999e-05   1.490527e+01   2.425069e+00   4.849105e+01   3.896123e+05  -1.732051e+05   7.572982e+05  -2.862199e+00  -6.438310e+00  -1.026983e-21   8.690790e+05   9.030303e-41   0.000000e+00   0.000000e+00
     3808000   3.807999e-05   1.493644e+01   2.411213e+00   4.855163e+01   3.896123e+05  -1.732051e+05   7.572982e+05  -1.015455e+00  -2.284191e+00  -8.559576e-22   8.690790e+05   1.137153e-41   0.000000e+00   0.000000e+00
     3816000   3.815999e-05   1.496760e+01   2.397357e+00   4.861221e+01   3.896123e+05  -1.732051e+05   7.572982e+05   8.760352e-01   1.970578e+00  -2.325715e-22   8.690790e+05   8.457434e-42   0.000000e+00   0.000000e+00
     3824000   3.823999e-05   1.499877e+01   2.383500e+00   4.867280e+01   3.896123e+05  -1.732051e+05   7.572982e+05   2.302005e+00   5.178193e+00   1.132679e-21   8.690790e+05   5.841408e-41   0.000000e+00   0.000000e+00
     3832000   3.831999e-05   1.502994e+01   2.369644e+00   4.873338e+01   3.896123e+05  -1.732051e+05   7.572982e+05  -1.963394e+00  -4.416512e+00  -1.733218e-21   8.690790e+05   4.250495e-41   0.000000e+00   0.000000e+00
     3840000   3.839999e-05   1.506111e+01   2.355787e+00   4.879397e+01   3.896123e+05  -1.732051e+05   7.572982e+05  -1.015164e+00  -2.283537e+00  -5.613610e-22   8.690790e+05   1.136438e-41   0.000000e+00   0.000000e+00
     3848000   3.847999e-05   1.509228e+01   2.341931e+00   4.885455e+01   3.896123e+05  -1.732051e+05   7.572982e+05  -3.781983e+00  -8.507296e+00   1.911055e-21   8.690790e+05   1.576758e-40   0.000000e+00   0.000000e+00
     3856000   3.855999e-05   1.512345e+01   2.328074e+00   4.891513e+01   3.896123e+05  -1.732051e+05   7.572982e+05  -1.748354e+00  -3.932796e+00  -2.176833e-22   8.690790e+05   3.370354e-41   0.000000e+00   0.000000e+00
     3864000   3.863999e-05   1.515462e+01   2.314218e+00   4.897572e+01   3.896123e+05  -1.732051e+05   7.572982e+05  -1.034411e+00  -2.326833e+00  -1.323093e-23   8.690790e+05   1.179869e-41   0.000000e+00   0.000000e+00
     3872000   3.871999e-05   1.518579e+01   2.300362e+00   4.903630e+01   3.896123e+05  -1.732051e+05   7.572982e+05   1.343855e+00   3.022904e+00  -3.493134e-22   8.690790e+05   1.990492e-41   0.000000e+00   0.000000e+00
     3880000   3.879999e-05   1.521696e+01   2.286505e+00   4.909688e+01   3.896123e+05  -1.732051e+05   7.572982e+05  -2.796775e-01  -6.291142e-01  -7.892116e-25   8.690790e+05   8.612235e-43   0.000000e+00   0.000000e+00
     3888000   3.887999e-05   1.524813e+01   2.272649e+00   4.915747e+01   3.896123e+05  -1.732051e+05   7.572982e+05   8.704100e-01   1.957924e+00  -6.305099e-22   8.690790e+05   8.349379e-42   0.000000e+00   0.000000e+00
     3896000   3.895999e-05   1.527929e+01   2.258792e+00   4.921805e+01   3.896123e+05  -1.732051e+05   7.572982e+05   8.304931e-01   1.868134e+00   2.284551e-23   8.690790e+05   7.607407e-42   0.000000e+00   0.000000e+00
     3904000   3.903999e-05   1.531046e+01   2.244936e+00   4.927864e+01   3.896123e+05  -1.732051e+05   7.572982e+05  -5.638143e-01  -1.268259e+00   1.684690e-22   8.690790e+05   3.504609e-42   0.000000e+00   0.000000e+00
     3912000   3.911999e-05   1.534163e+01   2.231080e+00   4.933922e+01   3.896123e+05  -1.732051e+05   7.572982e+05   4.381414e-01   9.855672e-01   2.720186e-22   8.690790e+05   2.115314e-42   0.000000e+00   0.000000e+00
     3920000   3.919999e-05   1.537280e+01   2.217223e+00   4.939980e+01   3.896123e+05  -1.732051e+05   7.572982e+05   1.349786e+00   3.036245e+00   1.539614e-22   8.690790e+05   2.008300e-41   0.000000e+00   0.000000e+00
     3928000   3.927999e-05   1.540397e+01   2.203367e+00   4.946039e+01   3.896123e+05  -1.732051e+05   7.572982e+05   6.802703e-01   1.530219e+00  -1.368638e-22   8.690790e+05   5.106209e-42   0.000000e+00   0.000000e+00
     3936000   3.935999e-05   1.543514e+01   2.189510e+00   4.952097e+01   3.896123e+05  -1.732051e+05   7.572982e+05   3.628448e+06  -1.511851e+06  -2.212535e+06   8.690790e+05   3.698996e-29   0.000000e+00   0.000000e+00
     3944000   3.943999e-05   1.546631e+01   2.175654e+00   4.958156e+01   3.896130e+05  -1.732054e+05   7.572977e+05   1.411438e+07  -5.880987e+06  -8.606610e+06   8.690790e+05   5.600150e-28   0.000000e+00   0.000000e+00
     3952000   3.951999e-05   1.549748e+01   2.161798e+00   4.964214e+01   3.896133e+05  -1.732055e+05   7.572976e+05   4.463902e+06  -1.859961e+06  -2.721983e+06   8.690790e+05   5.596856e-29   0.000000e+00   0.000000e+00
     3960000   3.959999e-05   1.552865e+01   2.147941e+00   4.970272e+01   3.896207e+05  -1.732086e+05   7.572931e+05   6.978847e+07  -2.875218e+07  -4.248178e+07   8.690790e+05   1.364760e-26   0.000000e+00   0.000000e+00
     3968000   3.967999e-05   1.555982e+01   2.134084e+00   4.976331e+01   3.896267e+05  -1.732110e+05   7.572894e+05   7.983249e+07  -3.280801e+07  -4.857796e+07   8.690790e+05   1.784573e-26   0.000000e+00   0.000000e+00
     3976000   3.975999e-05   1.559099e+01   2.120227e+00   4.982389e+01   3.896345e+05  -1.732142e+05   7.572847e+05   1.016267e+08  -4.138673e+07  -6.175488e+07   8.690790e+05   2.885119e-26   0.000000e+00   0.000000e+00
     3984000   3.983999e-05   1.562216e+01   2.106370e+00   4.988447e+01   3.896397e+05  -1.732164e+05   7.572815e+05   2.706161e+07  -1.090181e+07  -1.641748e+07   8.690790e+05   2.040478e-27   0.000000e+00   0.000000e+00
     3992000   3.991999e-05   1.565333e+01   2.092513e+00   4.994505e+01   3.896401e+05  -1.732165e+05   7.572813e+05   0.000000e+00   0.000000e+00   0.000000e+00   8.690790e+05   0.000000e+00   0.000000e+00   0.000000e+00
