     timestep     time              x             y              z              vx             vy             vz             ax             ay             az         v_magnitude      ELoss        Electronic      Nuclear
           0   0.000000e+00   1.000000e-01   1.018769e+01   1.494980e+01   7.952868e+05  -7.059592e+04   3.432687e+05   0.000000e+00   0.000000e+00   0.000000e+00   8.690790e+05   0.000000e+00   0.000000e+00   0.000000e+00
        8000   7.999000e-08   1.636229e-01   1.018205e+01   1.497726e+01   7.952868e+05  -7.059592e+04   3.432687e+05   0.000000e+00   0.000000e+00   0.000000e+00   8.690790e+05   0.000000e+00   0.000000e+00   0.000000e+00
       16000   1.599900e-07   2.272459e-01   1.017640e+01   1.500472e+01   7.952868e+05  -7.059592e+04   3.432687e+05   0.000000e+00   0.000000e+00   0.000000e+00   8.690790e+05   0.000000e+00   0.000000e+00   0.000000e+00
       24000   2.399900e-07   2.908688e-01   1.017075e+01   1.503218e+01   7.952868e+05  -7.059592e+04   3.432687e+05   0.000000e+00   0.000000e+00   0.000000e+00   8.690790e+05   0.000000e+00   0.000000e+00   0.000000e+00
       32000   3.199900e-07   3.544918e-01   1.016510e+01   1.505964e+01   7.952868e+05  -7.059592e+04   3.432687e+05   0.000000e+00   0.000000e+00   0.000000e+00   8.690790e+05   0.000000e+00   0.000000e+00   0.000000e+00
       40000   3.999900e-07   4.181147e-01   1.015945e+01   1.508711e+01   7.952868e+05  -7.059592e+04   3.432687e+05   0.000000e+00   0.000000e+00   0.000000e+00   8.690790e+05   0.000000e+00   0.000000e+00   0.000000e+00
       48000   4.799900e-07   4.817377e-01   1.015381e+01   1.511457e+01   7.952868e+05  -7.059592e+04   3.432687e+05   0.000000e+00   0.000000e+00   0.000000e+00   8.690790e+05   0.000000e+00   0.000000e+00   0.000000e+00
       56000   5.599900e-07   5.453606e-01   1.014816e+01   1.514203e+01   7.952868e+05  -7.059592e+04   3.432687e+05   0.000000e+00   0.000000e+00   0.000000e+00   8.690790e+05   0.000000e+00   0.000000e+00   0.000000e+00
       64000   6.399900e-07   6.089836e-01   1.014251e+01   1.516949e+01   7.952868e+05  -7.059592e+04   3.432687e+05   0.000000e+00   0.000000e+00   0.000000e+00   8.690790e+05   0.000000e+00   0.000000e+00   0.000000e+00
       72000   7.199900e-07   6.726065e-01   1.013686e+01   1.519695e+01   7.952868e+05  -7.059592e+04   3.432687e+05   0.000000e+00   0.000000e+00   0.000000e+00   8.690790e+05   0.000000e+00   0.000000e+00   0.000000e+00
       80000   7.999900e-07   7.362295e-01   1.013122e+01   1.522441e+01   7.952868e+05  -7.059592e+04   3.432687e+05   0.000000e+00   0.000000e+00   0.000000e+00   8.690790e+05   0.000000e+00   0.000000e+00   0.000000e+00
       88000   8.799900e-07   7.998524e-01   1.012557e+01   1.525187e+01   7.952868e+05  -7.059592e+04   3.432687e+05   0.000000e+00   0.000000e+00   0.000000e+00   8.690790e+05   0.000000e+00   0.000000e+00   0.000000e+00
       96000   9.599900e-07   8.634753e-01   1.011992e+01   1.527934e+01   7.952868e+05  -7.059592e+04   3.432687e+05   0.000000e+00   0.000000e+00   0.000000e+00   8.690790e+05   0.000000e+00   0.000000e+00   0.000000e+00
      104000   1.039990e-06   9.270983e-01   1.011427e+01   1.530680e+01   7.952868e+05  -7.059592e+04   3.432687e+05   0.000000e+00   0.000000e+00   0.000000e+00   8.690790e+05   0.000000e+00   0.000000e+00   0.000000e+00
      112000   1.119990e-06   9.907212e-01   1.010863e+01   1.533426e+01   7.952868e+05  -7.059592e+04   3.432687e+05   0.000000e+00   0.000000e+00   0.000000e+00   8.690790e+05   0.000000e+00   0.000000e+00   0.000000e+00
      120000   1.199990e-06   1.054344e+00   1.010298e+01   1.536172e+01   7.952868e+05  -7.059592e+04   3.432687e+05   0.000000e+00   0.000000e+00   0.000000e+00   8.690790e+05   0.000000e+00   0.000000e+00   0.000000e+00
      128000   1.279990e-06   1.117967e+00   1.009733e+01   1.538918e+01   7.952868e+05  -7.059592e+04   3.432687e+05   0.000000e+00   0.000000e+00   0.000000e+00   8.690790e+05   0.000000e+00   0.000000e+00   0.000000e+00
      136000   1.359990e-06   1.181590e+00   1.009168e+01   1.541664e+01   7.952868e+05  -7.059592e+04   3.432687e+05   0.000000e+00   0.000000e+00   0.000000e+00   8.690790e+05   0.000000e+00   0.000000e+00   0.000000e+00
      144000   1.439990e-06   1.245213e+00   1.008603e+01   1.544410e+01   7.952868e+05  -7.059592e+04   3.432687e+05   0.000000e+00   0.000000e+00   0.000000e+00   8.690790e+05   0.000000e+00   0.000000e+00   0.000000e+00
      152000   1.519990e-06   1.308836e+00   1.008039e+01   1.547157e+01   7.952868e+05  -7.059592e+04   3.432687e+05   0.000000e+00   0.000000e+00   0.000000e+00   8.690790e+05   0.000000e+00   0.000000e+00   0.000000e+00
      160000   1.599990e-06   1.372459e+00   1.007474e+01   1.549903e+01   7.952868e+05  -7.059592e+04   3.432687e+05   0.000000e+00   0.000000e+00   0.000000e+00   8.690790e+05   0.000000e+00   0.000000e+00   0.000000e+00
      168000   1.679990e-06   1.436082e+00   1.006909e+01   1.552649e+01   7.952868e+05  -7.059592e+04   3.432687e+05   0.000000e+00   0.000000e+00   0.000000e+00   8.690790e+05   0.000000e+00   0.000000e+00   0.000000e+00
      176000   1.759990e-06   1.499705e+00   1.006344e+01   1.555395e+01   7.952868e+05  -7.059592e+04   3.432687e+05   0.000000e+00   0.000000e+00   0.000000e+00   8.690790e+05   0.000000e+00   0.000000e+00   0.000000e+00
      184000   1.839990e-06   1.563328e+00   1.005780e+01   1.558141e+01   7.952868e+05  -7.059592e+04   3.432687e+05   0.000000e+00   0.000000e+00   0.000000e+00   8.690790e+05   0.000000e+00   0.000000e+00   0.000000e+00
      192000   1.919990e-06   1.626951e+00   1.005215e+01   1.560887e+01   7.952868e+05  -7.059592e+04   3.432687e+05   0.000000e+00   0.000000e+00   0.000000e+00   8.690790e+05   0.000000e+00   0.000000e+00   0.000000e+00
      200000   1.999990e-06   1.690574e+00   1.004650e+01   1.563634e+01   7.952868e+05  -7.059592e+04   3.432687e+05   0.000000e+00   0.000000e+00   0.000000e+00   8.690790e+05   0.000000e+00   0.000000e+00   0.000000e+00
      208000   2.079990e-06   1.754197e+00   1.004085e+01   1.566380e+01   7.952868e+05  -7.059592e+04   3.432687e+05   0.000000e+00   0.000000e+00   0.000000e+00   8.690790e+05   0.000000e+00   0.000000e+00   0.000000e+00
      216000   2.159990e-06   1.817820e+00   1.003521e+01   1.569126e+01   7.952868e+05  -7.059592e+04   3.432687e+05   0.000000e+00   0.000000e+00   0.000000e+00   8.690790e+05   0.000000e+00   0.000000e+00   0.000000e+00
      224000   2.239990e-06   1.881442e+00   1.002956e+01   1.571872e+01   7.952868e+05  -7.059592e+04   3.432687e+05   0.000000e+00   0.000000e+00   0.000000e+00   8.690790e+05   0.000000e+00   0.000000e+00   0.000000e+00
      232000   2.319990e-06   1.945065e+00   1.002391e+01   1.574618e+01   7.952868e+05  -7.059592e+04   3.432687e+05   0.000000e+00   0.000000e+00   0.000000e+00   8.690790e+05   0.000000e+00   0.000000e+00   0.000000e+00
      240000   2.399990e-06   2.008688e+00   1.001826e+01   1.577364e+01   7.952868e+05  -7.059592e+04   3.432687e+05   0.000000e+00   0.000000e+00   0.000000e+00   8.690790e+05   0.000000e+00   0.000000e+00   0.000000e+00
      248000   2.479990e-06   2.072311e+00   1.001262e+01   1.580110e+01   7.952868e+05  -7.059592e+04   3.432687e+05   0.000000e+00   0.000000e+00   0.000000e+00   8.690790e+05   0.000000e+00   0.000000e+00   0.000000e+00
      256000   2.559990e-06   2.135934e+00   1.000697e+01   1.582857e+01   7.952868e+05  -7.059592e+04   3.432687e+05   0.000000e+00   0.000000e+00   0.000000e+00   8.690790e+05   0.000000e+00   0.000000e+00   0.000000e+00
      264000   2.639990e-06   2.199557e+00   1.000132e+01   1.585603e+01   7.952868e+05  -7.059592e+04   3.432687e+05   0.000000e+00   0.000000e+00   0.000000e+00   8.690790e+05   0.000000e+00   0.000000e+00   0.000000e+00
      272000   2.719990e-06   2.263180e+00   9.995672e+00   1.588349e+01   7.952868e+05  -7.059592e+04   3.432687e+05   0.000000e+00   0.000000e+00   0.000000e+00   8.690790e+05   0.000000e+00   0.000000e+00   0.000000e+00
      280000   2.799990e-06   2.326803e+00   9.990024e+00   1.591095e+01   7.952868e+05  -7.059592e+04   3.432687e+05   0.000000e+00   0.000000e+00   0.000000e+00   8.690790e+05   0.000000e+00   0.000000e+00   0.000000e+00
      288000   2.879990e-06   2.390426e+00   9.984377e+00   1.593841e+01   7.952868e+05  -7.059592e+04   3.432687e+05   0.000000e+00   0.000000e+00   0.000000e+00   8.690790e+05   0.000000e+00   0.000000e+00   0.000000e+00
      296000   2.959990e-06   2.454049e+00   9.978729e+00   1.596587e+01   7.952868e+05  -7.059592e+04   3.432687e+05   0.000000e+00   0.000000e+00   0.000000e+00   8.690790e+05   0.000000e+00   0.000000e+00   0.000000e+00
      304000   3.039990e-06   2.517672e+00   9.973081e+00   1.599333e+01   7.952868e+05  -7.059592e+04   3.432687e+05   0.000000e+00   0.000000e+00   0.000000e+00   8.690790e+05   0.000000e+00   0.000000e+00   0.000000e+00
      312000   3.119990e-06   2.581295e+00   9.967434e+00   1.602080e+01   7.952868e+05  -7.059592e+04   3.432687e+05   0.000000e+00   0.000000e+00   0.000000e+00   8.690790e+05   0.000000e+00   0.000000e+00   0.000000e+00
      320000   3.199990e-06   2.644918e+00   9.961786e+00   1.604826e+01   7.952868e+05  -7.059592e+04   3.432687e+05   0.000000e+00   0.000000e+00   0.000000e+00   8.690790e+05   0.000000e+00   0.000000e+00   0.000000e+00
      328000   3.279990e-06   2.708541e+00   9.956138e+00   1.607572e+01   7.952868e+05  -7.059592e+04   3.432687e+05   0.000000e+00   0.000000e+00   0.000000e+00   8.690790e+05   0.000000e+00   0.000000e+00   0.000000e+00
      336000   3.359990e-06   2.772164e+00   9.950491e+00   1.610318e+01   7.952868e+05  -7.059592e+04   3.432687e+05   0.000000e+00   0.000000e+00   0.000000e+00   8.690790e+05   0.000000e+00   0.000000e+00   0.000000e+00
      344000   3.439990e-06   2.835787e+00   9.944843e+00   1.613064e+01   7.952868e+05  -7.059592e+04   3.432687e+05   0.000000e+00   0.000000e+00   0.000000e+00   8.690790e+05   0.000000e+00   0.000000e+00   0.000000e+00
      352000   3.519990e-06   2.899410e+00   9.939195e+00   1.615810e+01   7.952868e+05  -7.059592e+04   3.432687e+05   0.000000e+00   0.000000e+00   0.000000e+00   8.690790e+05   0.000000e+00   0.000000e+00   0.000000e+00
      360000   3.599990e-06   2.963033e+00   9.933548e+00   1.618557e+01   7.952868e+05  -7.059592e+04   3.432687e+05   0.000000e+00   0.000000e+00   0.000000e+00   8.690790e+05   0.000000e+00   0.000000e+00   0.000000e+00
      368000   3.679990e-06   3.026656e+00   9.927900e+00   1.621303e+01   7.952868e+05  -7.059592e+04   3.432687e+05   0.000000e+00   0.000000e+00   0.000000e+00   8.690790e+05   0.000000e+00   0.000000e+00   0.000000e+00
      376000   3.759990e-06   3.090278e+00   9.922252e+00   1.624049e+01   7.952868e+05  -7.059592e+04   3.432687e+05   0.000000e+00   0.000000e+00   0.000000e+00   8.690790e+05   0.000000e+00   0.000000e+00   0.000000e+00
      384000   3.839990e-06   3.153901e+00   9.916605e+00   1.626795e+01   7.952868e+05  -7.059592e+04   3.432687e+05   0.000000e+00   0.000000e+00   0.000000e+00   8.690790e+05   0.000000e+00   0.000000e+00   0.000000e+00
      392000   3.919990e-06   3.217524e+00   9.910957e+00   1.629541e+01   7.952868e+05  -7.059592e+04   3.432687e+05   0.000000e+00   0.000000e+00   0.000000e+00   8.690790e+05   0.000000e+00   0.000000e+00   0.000000e+00
      400000   3.999990e-06   3.281147e+00   9.905309e+00   1.632287e+01   7.952868e+05  -7.059592e+04   3.432687e+05   0.000000e+00   0.000000e+00   0.000000e+00   8.690790e+05   0.000000e+00   0.000000e+00   0.000000e+00
      408000   4.079990e-06   3.344770e+00   9.899662e+00   1.635033e+01   7.952868e+05  -7.059592e+04   3.432687e+05   0.000000e+00   0.000000e+00   0.000000e+00   8.690790e+05   0.000000e+00   0.000000e+00   0.000000e+00
      416000   4.159990e-06   3.408393e+00   9.894014e+00   1.637780e+01   7.952868e+05  -7.059592e+04   3.432687e+05   0.000000e+00   0.000000e+00   0.000000e+00   8.690790e+05   0.000000e+00   0.000000e+00   0.000000e+00
      424000   4.239990e-06   3.472016e+00   9.888366e+00   1.640526e+01   7.952868e+05  -7.059592e+04   3.432687e+05   0.000000e+00   0.000000e+00   0.000000e+00   8.690790e+05   0.000000e+00   0.000000e+00   0.000000e+00
      432000   4.319990e-06   3.535639e+00   9.882719e+00   1.643272e+01   7.952868e+05  -7.059592e+04   3.432687e+05   0.000000e+00   0.000000e+00   0.000000e+00   8.690790e+05   0.000000e+00   0.000000e+00   0.000000e+00
      440000   4.399990e-06   3.599262e+00   9.877071e+00   1.646018e+01   7.952868e+05  -7.059592e+04   3.432687e+05   0.000000e+00   0.000000e+00   0.000000e+00   8.690790e+05   0.000000e+00   0.000000e+00   0.000000e+00
      448000   4.479990e-06   3.662885e+00   9.871423e+00   1.648764e+01   7.952868e+05  -7.059592e+04   3.432687e+05   0.000000e+00   0.000000e+00   0.000000e+00   8.690790e+05   0.000000e+00   0.000000e+00   0.000000e+00
      456000   4.559990e-06   3.726508e+00   9.865776e+00   1.651510e+01   7.952868e+05  -7.059592e+04   3.432687e+05   0.000000e+00   0.000000e+00   0.000000e+00   8.690790e+05   0.000000e+00   0.000000e+00   0.000000e+00
      464000   4.639990e-06   3.790131e+00   9.860128e+00   1.654256e+01   7.952868e+05  -7.059592e+04   3.432687e+05   0.000000e+00   0.000000e+00   0.000000e+00   8.690790e+05   0.000000e+00   0.000000e+00   0.000000e+00
      472000   4.719990e-06   3.853754e+00   9.854480e+00   1.657003e+01   7.952868e+05  -7.059592e+04   3.432687e+05   0.000000e+00   0.000000e+00   0.000000e+00   8.690790e+05   0.000000e+00   0.000000e+00   0.000000e+00
      480000   4.799990e-06   3.917377e+00   9.848833e+00   1.659749e+01   7.952868e+05  -7.059592e+04   3.432687e+05   0.000000e+00   0.000000e+00   0.000000e+00   8.690790e+05   0.000000e+00   0.000000e+00   0.000000e+00
      488000   4.879990e-06   3.981000e+00   9.843185e+00   1.662495e+01   7.952868e+05  -7.059592e+04   3.432687e+05   0.000000e+00   0.000000e+00   0.000000e+00   8.690790e+05   0.000000e+00   0.000000e+00   0.000000e+00
      496000   4.959990e-06   4.044623e+00   9.837537e+00   1.665241e+01   7.952868e+05  -7.059592e+04   3.432687e+05   0.000000e+00   0.000000e+00   0.000000e+00   8.690790e+05   0.000000e+00   0.000000e+00   0.000000e+00
      504000   5.039990e-06   4.108246e+00   9.831890e+00   1.667987e+01   7.952868e+05  -7.059592e+04   3.432687e+05   0.000000e+00   0.000000e+00   0.000000e+00   8.690790e+05   0.000000e+00   0.000000e+00   0.000000e+00
      512000   5.119990e-06   4.171869e+00   9.826242e+00   1.670733e+01   7.952868e+05  -7.059592e+04   3.432687e+05   0.000000e+00   0.000000e+00   0.000000e+00   8.690790e+05   0.000000e+00   0.000000e+00   0.000000e+00
      520000   5.199990e-06   4.235491e+00   9.820594e+00   1.673479e+01   7.952868e+05  -7.059592e+04   3.432687e+05   0.000000e+00   0.000000e+00   0.000000e+00   8.690790e+05   0.000000e+00   0.000000e+00   0.000000e+00
      528000   5.279990e-06   4.299114e+00   9.814947e+00   1.676226e+01   7.952868e+05  -7.059592e+04   3.432687e+05   0.000000e+00   0.000000e+00   0.000000e+00   8.690790e+05   0.000000e+00   0.000000e+00   0.000000e+00
      536000   5.359990e-06   4.362737e+00   9.809299e+00   1.678972e+01   7.952868e+05  -7.059592e+04   3.432687e+05   0.000000e+00   0.000000e+00   0.000000e+00   8.690790e+05   0.000000e+00   0.000000e+00   0.000000e+00
      544000   5.439990e-06   4.426360e+00   9.803651e+00   1.681718e+01   7.952868e+05  -7.059592e+04   3.432687e+05   0.000000e+00   0.000000e+00   0.000000e+00   8.690790e+05   0.000000e+00   0.000000e+00   0.000000e+00
      552000   5.519990e-06   4.489983e+00   9.798004e+00   1.684464e+01   7.952868e+05  -7.059592e+04   3.432687e+05   0.000000e+00   0.000000e+00   0.000000e+00   8.690790e+05   0.000000e+00   0.000000e+00   0.000000e+00
      560000   5.599990e-06   4.553606e+00   9.792356e+00   1.687210e+01   7.952868e+05  -7.059592e+04   3.432687e+05   0.000000e+00   0.000000e+00   0.000000e+00   8.690790e+05   0.000000e+00   0.000000e+00   0.000000e+00
      568000   5.679990e-06   4.617229e+00   9.786708e+00   1.689956e+01   7.952868e+05  -7.059592e+04   3.432687e+05   0.000000e+00   0.000000e+00   0.000000e+00   8.690790e+05   0.000000e+00   0.000000e+00   0.000000e+00
      576000   5.759990e-06   4.680852e+00   9.781061e+00   1.692703e+01   7.952868e+05  -7.059592e+04   3.432687e+05   0.000000e+00   0.000000e+00   0.000000e+00   8.690790e+05   0.000000e+00   0.000000e+00   0.000000e+00
      584000   5.839990e-06   4.744475e+00   9.775413e+00   1.695449e+01   7.952868e+05  -7.059592e+04   3.432687e+05   0.000000e+00   0.000000e+00   0.000000e+00   8.690790e+05   0.000000e+00   0.000000e+00   0.000000e+00
      592000   5.919990e-06   4.808098e+00   9.769765e+00   1.698195e+01   7.952868e+05  -7.059592e+04   3.432687e+05   0.000000e+00   0.000000e+00   0.000000e+00   8.690790e+05   0.000000e+00   0.000000e+00   0.000000e+00
      600000   5.999990e-06   4.871721e+00   9.764118e+00   1.700941e+01   7.952868e+05  -7.059592e+04   3.432687e+05   0.000000e+00   0.000000e+00   0.000000e+00   8.690790e+05   0.000000e+00   0.000000e+00   0.000000e+00
      608000   6.079990e-06   4.935344e+00   9.758470e+00   1.703687e+01   7.952868e+05  -7.059592e+04   3.432687e+05   0.000000e+00   0.000000e+00   0.000000e+00   8.690790e+05   0.000000e+00   0.000000e+00   0.000000e+00
      616000   6.159990e-06   4.998967e+00   9.752822e+00   1.706433e+01   7.952868e+05  -7.059592e+04   3.432687e+05   0.000000e+00   0.000000e+00   0.000000e+00   8.690790e+05   0.000000e+00   0.000000e+00   0.000000e+00
      624000   6.239990e-06   5.062590e+00   9.747174e+00   1.709179e+01   7.952868e+05  -7.059592e+04   3.432687e+05   0.000000e+00   0.000000e+00   0.000000e+00   8.690790e+05   0.000000e+00   0.000000e+00   0.000000e+00
      632000   6.319990e-06   5.126213e+00   9.741527e+00   1.711926e+01   7.952868e+05  -7.059592e+04   3.432687e+05   0.000000e+00   0.000000e+00   0.000000e+00   8.690790e+05   0.000000e+00   0.000000e+00   0.000000e+00
      640000   6.399990e-06   5.189836e+00   9.735879e+00   1.714672e+01   7.952868e+05  -7.059592e+04   3.432687e+05   0.000000e+00   0.000000e+00   0.000000e+00   8.690790e+05   0.000000e+00   0.000000e+00   0.000000e+00
      648000   6.479990e-06   5.253459e+00   9.730231e+00   1.717418e+01   7.952868e+05  -7.059592e+04   3.432687e+05   0.000000e+00   0.000000e+00   0.000000e+00   8.690790e+05   0.000000e+00   0.000000e+00   0.000000e+00
      656000   6.559990e-06   5.317082e+00   9.724584e+00   1.720164e+01   7.952868e+05  -7.059592e+04   3.432687e+05   0.000000e+00   0.000000e+00   0.000000e+00   8.690790e+05   0.000000e+00   0.000000e+00   0.000000e+00
      664000   6.639990e-06   5.380704e+00   9.718936e+00   1.722910e+01   7.952868e+05  -7.059592e+04   3.432687e+05   0.000000e+00   0.000000e+00   0.000000e+00   8.690790e+05   0.000000e+00   0.000000e+00   0.000000e+00
      672000   6.719990e-06   5.444327e+00   9.713288e+00   1.725656e+01   7.952868e+05  -7.059592e+04   3.432687e+05   0.000000e+00   0.000000e+00   0.000000e+00   8.690790e+05   0.000000e+00   0.000000e+00   0.000000e+00
      680000   6.799990e-06   5.507950e+00   9.707641e+00   1.728402e+01   7.952868e+05  -7.059592e+04   3.432687e+05   0.000000e+00   0.000000e+00   0.000000e+00   8.690790e+05   0.000000e+00   0.000000e+00   0.000000e+00
      688000   6.879990e-06   5.571573e+00   9.701993e+00   1.731149e+01   7.952868e+05  -7.059592e+04   3.432687e+05   0.000000e+00   0.000000e+00   0.000000e+00   8.690790e+05   0.000000e+00   0.000000e+00   0.000000e+00
      696000   6.959990e-06   5.635196e+00   9.696345e+00   1.733895e+01   7.952868e+05  -7.059592e+04   3.432687e+05   0.000000e+00   0.000000e+00   0.000000e+00   8.690790e+05   0.000000e+00   0.000000e+00   0.000000e+00
      704000   7.039990e-06   5.698819e+00   9.690698e+00   1.736641e+01   7.952868e+05  -7.059592e+04   3.432687e+05   0.000000e+00   0.000000e+00   0.000000e+00   8.690790e+05   0.000000e+00   0.000000e+00   0.000000e+00
      712000   7.119990e-06   5.762442e+00   9.685050e+00   1.739387e+01   7.952868e+05  -7.059592e+04   3.432687e+05   0.000000e+00   0.000000e+00   0.000000e+00   8.690790e+05   0.000000e+00   0.000000e+00   0.000000e+00
      720000   7.199990e-06   5.826065e+00   9.679402e+00   1.742133e+01   7.952868e+05  -7.059592e+04   3.432687e+05   0.000000e+00   0.000000e+00   0.000000e+00   8.690790e+05   0.000000e+00   0.000000e+00   0.000000e+00
      728000   7.279990e-06   5.889688e+00   9.673755e+00   1.744879e+01   7.952868e+05  -7.059592e+04   3.432687e+05   0.000000e+00   0.000000e+00   0.000000e+00   8.690790e+05   0.000000e+00   0.000000e+00   0.000000e+00
      736000   7.359990e-06   5.953311e+00   9.668107e+00   1.747626e+01   7.952868e+05  -7.059592e+04   3.432687e+05   0.000000e+00   0.000000e+00   0.000000e+00   8.690790e+05   0.000000e+00   0.000000e+00   0.000000e+00
      744000   7.439990e-06   6.016934e+00   9.662459e+00   1.750372e+01   7.952868e+05  -7.059592e+04   3.432687e+05   0.000000e+00   0.000000e+00   0.000000e+00   8.690790e+05   0.000000e+00   0.000000e+00   0.000000e+00
      752000   7.519990e-06   6.080557e+00   9.656812e+00   1.753118e+01   7.952868e+05  -7.059592e+04   3.432687e+05   0.000000e+00   0.000000e+00   0.000000e+00   8.690790e+05   0.000000e+00   0.000000e+00   0.000000e+00
      760000   7.599990e-06   6.144180e+00   9.651164e+00   1.755864e+01   7.952868e+05  -7.059592e+04   3.432687e+05   0.000000e+00   0.000000e+00   0.000000e+00   8.690790e+05   0.000000e+00   0.000000e+00   0.000000e+00
      768000   7.679990e-06   6.207803e+00   9.645516e+00   1.758610e+01   7.952868e+05  -7.059592e+04   3.432687e+05   0.000000e+00   0.000000e+00   0.000000e+00   8.690790e+05   0.000000e+00   0.000000e+00   0.000000e+00
      776000   7.759990e-06   6.271426e+00   9.639869e+00   1.761356e+01   7.952868e+05  -7.059592e+04   3.432687e+05   0.000000e+00   0.000000e+00   0.000000e+00   8.690790e+05   0.000000e+00   0.000000e+00   0.000000e+00
      784000   7.839990e-06   6.335049e+00   9.634221e+00   1.764102e+01   7.952868e+05  -7.059592e+04   3.432687e+05   0.000000e+00   0.000000e+00   0.000000e+00   8.690790e+05   0.000000e+00   0.000000e+00   0.000000e+00
      792000   7.919990e-06   6.398672e+00   9.628573e+00   1.766849e+01   7.952868e+05  -7.059592e+04   3.432687e+05   0.000000e+00   0.000000e+00   0.000000e+00   8.690790e+05   0.000000e+00   0.000000e+00   0.000000e+00
      800000   7.999990e-06   6.462295e+00   9.622926e+00   1.769595e+01   7.952868e+05  -7.059592e+04   3.432687e+05   0.000000e+00   0.000000e+00   0.000000e+00   8.690790e+05   0.000000e+00   0.000000e+00   0.000000e+00
      808000   8.079990e-06   6.525918e+00   9.617278e+00   1.772341e+01   7.952868e+05  -7.059592e+04   3.432687e+05   0.000000e+00   0.000000e+00   0.000000e+00   8.690790e+05   0.000000e+00   0.000000e+00   0.000000e+00
      816000   8.159990e-06   6.589540e+00   9.611630e+00   1.775087e+01   7.952868e+05  -7.059592e+04   3.432687e+05   0.000000e+00   0.000000e+00   0.000000e+00   8.690790e+05   0.000000e+00   0.000000e+00   0.000000e+00
      824000   8.239990e-06   6.653163e+00   9.605983e+00   1.777833e+01   7.952868e+05  -7.059592e+04   3.432687e+05   0.000000e+00   0.000000e+00   0.000000e+00   8.690790e+05   0.000000e+00   0.000000e+00   0.000000e+00
      832000   8.319990e-06   6.716786e+00   9.600335e+00   1.780579e+01   7.952868e+05  -7.059592e+04   3.432687e+05   0.000000e+00   0.000000e+00   0.000000e+00   8.690790e+05   0.000000e+00   0.000000e+00   0.000000e+00
      840000   8.399990e-06   6.780409e+00   9.594687e+00   1.783325e+01   7.952868e+05  -7.059592e+04   3.432687e+05   0.000000e+00   0.000000e+00   0.000000e+00   8.690790e+05   0.000000e+00   0.000000e+00   0.000000e+00
      848000   8.479990e-06   6.844032e+00   9.589040e+00   1.786072e+01   7.952868e+05  -7.059592e+04   3.432687e+05   0.000000e+00   0.000000e+00   0.000000e+00   8.690790e+05   0.000000e+00   0.000000e+00   0.000000e+00
      856000   8.559990e-06   6.907655e+00   9.583392e+00   1.788818e+01   7.952868e+05  -7.059592e+04   3.432687e+05   0.000000e+00   0.000000e+00   0.000000e+00   8.690790e+05   0.000000e+00   0.000000e+00   0.000000e+00
      864000   8.639990e-06   6.971278e+00   9.577744e+00   1.791564e+01   7.952868e+05  -7.059592e+04   3.432687e+05   0.000000e+00   0.000000e+00   0.000000e+00   8.690790e+05   0.000000e+00   0.000000e+00   0.000000e+00
      872000   8.719990e-06   7.034901e+00   9.572097e+00   1.794310e+01   7.952868e+05  -7.059592e+04   3.432687e+05   0.000000e+00   0.000000e+00   0.000000e+00   8.690790e+05   0.000000e+00   0.000000e+00   0.000000e+00
      880000   8.799990e-06   7.098524e+00   9.566449e+00   1.797056e+01   7.952868e+05  -7.059592e+04   3.432687e+05   0.000000e+00   0.000000e+00   0.000000e+00   8.690790e+05   0.000000e+00   0.000000e+00   0.000000e+00
      888000   8.879990e-06   7.162147e+00   9.560801e+00   1.799802e+01   7.952868e+05  -7.059592e+04   3.432687e+05   0.000000e+00   0.000000e+00   0.000000e+00   8.690790e+05   0.000000e+00   0.000000e+00   0.000000e+00
      896000   8.959990e-06   7.225770e+00   9.555154e+00   1.802549e+01   7.952868e+05  -7.059592e+04   3.432687e+05   0.000000e+00   0.000000e+00   0.000000e+00   8.690790e+05   0.000000e+00   0.000000e+00   0.000000e+00
      904000   9.039990e-06   7.289393e+00   9.549506e+00   1.805295e+01   7.952868e+05  -7.059592e+04   3.432687e+05   0.000000e+00   0.000000e+00   0.000000e+00   8.690790e+05   0.000000e+00   0.000000e+00   0.000000e+00
      912000   9.119990e-06   7.353016e+00   9.543858e+00   1.808041e+01   7.952868e+05  -7.059592e+04   3.432687e+05   0.000000e+00   0.000000e+00   0.000000e+00   8.690790e+05   0.000000e+00   0.000000e+00   0.000000e+00
      920000   9.199990e-06   7.416639e+00   9.538211e+00   1.810787e+01   7.952868e+05  -7.059592e+04   3.432687e+05   0.000000e+00   0.000000e+00   0.000000e+00   8.690790e+05   0.000000e+00   0.000000e+00   0.000000e+00
      928000   9.279990e-06   7.480262e+00   9.532563e+00   1.813533e+01   7.952868e+05  -7.059592e+04   3.432687e+05   0.000000e+00   0.000000e+00   0.000000e+00   8.690790e+05   0.000000e+00   0.000000e+00   0.000000e+00
      936000   9.359990e-06   7.543885e+00   9.526915e+00   1.816279e+01   7.952868e+05  -7.059592e+04   3.432687e+05   0.000000e+00   0.000000e+00   0.000000e+00   8.690790e+05   0.000000e+00   0.000000e+00   0.000000e+00
      944000   9.439990e-06   7.607508e+00   9.521268e+00   1.819025e+01   7.952868e+05  -7.059592e+04   3.432687e+05   0.000000e+00   0.000000e+00   0.000000e+00   8.690790e+05   0.000000e+00   0.000000e+00   0.000000e+00
      952000   9.519990e-06   7.671131e+00   9.515620e+00   1.821772e+01   7.952868e+05  -7.059592e+04   3.432687e+05   0.000000e+00   0.000000e+00   0.000000e+00   8.690790e+05   0.000000e+00   0.000000e+00   0.000000e+00
      960000   9.599990e-06   7.734753e+00   9.509972e+00   1.824518e+01   7.952868e+05  -7.059592e+04   3.432687e+05   0.000000e+00   0.000000e+00   0.000000e+00   8.690790e+05   0.000000e+00   0.000000e+00   0.000000e+00
      968000   9.679990e-06   7.798376e+00   9.504325e+00   1.827264e+01   7.952868e+05  -7.059592e+04   3.432687e+05   0.000000e+00   0.000000e+00   0.000000e+00   8.690790e+05   0.000000e+00   0.000000e+00   0.000000e+00
      976000   9.759990e-06   7.861999e+00   9.498677e+00   1.830010e+01   7.952868e+05  -7.059592e+04   3.432687e+05   0.000000e+00   0.000000e+00   0.000000e+00   8.690790e+05   0.000000e+00   0.000000e+00   0.000000e+00
      984000   9.839990e-06   7.925622e+00   9.493029e+00   1.832756e+01   7.952868e+05  -7.059592e+04   3.432687e+05   0.000000e+00   0.000000e+00   0.000000e+00   8.690790e+05   0.000000e+00   0.000000e+00   0.000000e+00
      992000   9.919990e-06   7.989245e+00   9.487382e+00   1.835502e+01   7.952868e+05  -7.059592e+04   3.432687e+05   0.000000e+00   0.000000e+00   0.000000e+00   8.690790e+05   0.000000e+00   0.000000e+00   0.000000e+00
     1000000   9.999990e-06   8.052868e+00   9.481734e+00   1.838248e+01   7.952868e+05  -7.059592e+04   3.432687e+05   0.000000e+00   0.000000e+00   0.000000e+00   8.690790e+05   0.000000e+00   0.000000e+00   0.000000e+00
     1008000   1.007999e-05   8.116491e+00   9.476086e+00   1.840995e+01   7.952868e+05  -7.059592e+04   3.432687e+05   0.000000e+00   0.000000e+00   0.000000e+00   8.690790e+05   0.000000e+00   0.000000e+00   0.000000e+00
     1016000   1.015999e-05   8.180114e+00   9.470438e+00   1.843741e+01   7.952868e+05  -7.059592e+04   3.432687e+05   0.000000e+00   0.000000e+00   0.000000e+00   8.690790e+05   0.000000e+00   0.000000e+00   0.000000e+00
     1024000   1.023999e-05   8.243737e+00   9.464791e+00   1.846487e+01   7.952868e+05  -7.059592e+04   3.432687e+05   0.000000e+00   0.000000e+00   0.000000e+00   8.690790e+05   0.000000e+00   0.000000e+00   0.000000e+00
     1032000   1.031999e-05   8.307360e+00   9.459143e+00   1.849233e+01   7.952868e+05  -7.059592e+04   3.432687e+05   0.000000e+00   0.000000e+00   0.000000e+00   8.690790e+05   0.000000e+00   0.000000e+00   0.000000e+00
     1040000   1.039999e-05   8.370983e+00   9.453495e+00   1.851979e+01   7.952868e+05  -7.059592e+04   3.432687e+05   0.000000e+00   0.000000e+00   0.000000e+00   8.690790e+05   0.000000e+00   0.000000e+00   0.000000e+00
     1048000   1.047999e-05   8.434606e+00   9.447848e+00   1.854725e+01   7.952868e+05  -7.059592e+04   3.432687e+05   0.000000e+00   0.000000e+00   0.000000e+00   8.690790e+05   0.000000e+00   0.000000e+00   0.000000e+00
     1056000   1.055999e-05   8.498229e+00   9.442200e+00   1.857471e+01   7.952868e+05  -7.059592e+04   3.432687e+05   0.000000e+00   0.000000e+00   0.000000e+00   8.690790e+05   0.000000e+00   0.000000e+00   0.000000e+00
     1064000   1.063999e-05   8.561852e+00   9.436552e+00   1.860218e+01   7.952868e+05  -7.059592e+04   3.432687e+05   0.000000e+00   0.000000e+00   0.000000e+00   8.690790e+05   0.000000e+00   0.000000e+00   0.000000e+00
     1072000   1.071999e-05   8.625475e+00   9.430905e+00   1.862964e+01   7.952868e+05  -7.059592e+04   3.432687e+05   0.000000e+00   0.000000e+00   0.000000e+00   8.690790e+05   0.000000e+00   0.000000e+00   0.000000e+00
     1080000   1.079999e-05   8.689098e+00   9.425257e+00   1.865710e+01   7.952868e+05  -7.059592e+04   3.432687e+05   0.000000e+00   0.000000e+00   0.000000e+00   8.690790e+05   0.000000e+00   0.000000e+00   0.000000e+00
     1088000   1.087999e-05   8.752721e+00   9.419609e+00   1.868456e+01   7.952868e+05  -7.059592e+04   3.432687e+05   0.000000e+00   0.000000e+00   0.000000e+00   8.690790e+05   0.000000e+00   0.000000e+00   0.000000e+00
     1096000   1.095999e-05   8.816344e+00   9.413962e+00   1.871202e+01   7.952868e+05  -7.059592e+04   3.432687e+05   0.000000e+00   0.000000e+00   0.000000e+00   8.690790e+05   0.000000e+00   0.000000e+00   0.000000e+00
     1104000   1.103999e-05   8.879967e+00   9.408314e+00   1.873948e+01   7.952868e+05  -7.059592e+04   3.432687e+05   0.000000e+00   0.000000e+00   0.000000e+00   8.690790e+05   0.000000e+00   0.000000e+00   0.000000e+00
     1112000   1.111999e-05   8.943589e+00   9.402666e+00   1.876695e+01   7.952868e+05  -7.059592e+04   3.432687e+05   0.000000e+00   0.000000e+00   0.000000e+00   8.690790e+05   0.000000e+00   0.000000e+00   0.000000e+00
     1120000   1.119999e-05   9.007212e+00   9.397019e+00   1.879441e+01   7.952868e+05  -7.059592e+04   3.432687e+05   0.000000e+00   0.000000e+00   0.000000e+00   8.690790e+05   0.000000e+00   0.000000e+00   0.000000e+00
     1128000   1.127999e-05   9.070835e+00   9.391371e+00   1.882187e+01   7.952868e+05  -7.059592e+04   3.432687e+05   0.000000e+00   0.000000e+00   0.000000e+00   8.690790e+05   0.000000e+00   0.000000e+00   0.000000e+00
     1136000   1.135999e-05   9.134458e+00   9.385723e+00   1.884933e+01   7.952868e+05  -7.059592e+04   3.432687e+05   0.000000e+00   0.000000e+00   0.000000e+00   8.690790e+05   0.000000e+00   0.000000e+00   0.000000e+00
     1144000   1.143999e-05   9.198081e+00   9.380076e+00   1.887679e+01   7.952868e+05  -7.059592e+04   3.432687e+05   0.000000e+00   0.000000e+00   0.000000e+00   8.690790e+05   0.000000e+00   0.000000e+00   0.000000e+00
     1152000   1.151999e-05   9.261704e+00   9.374428e+00   1.890425e+01   7.952868e+05  -7.059592e+04   3.432687e+05   0.000000e+00   0.000000e+00   0.000000e+00   8.690790e+05   0.000000e+00   0.000000e+00   0.000000e+00
     1160000   1.159999e-05   9.325327e+00   9.368780e+00   1.893171e+01   7.952868e+05  -7.059592e+04   3.432687e+05   0.000000e+00   0.000000e+00   0.000000e+00   8.690790e+05   0.000000e+00   0.000000e+00   0.000000e+00
     1168000   1.167999e-05   9.388950e+00   9.363133e+00   1.895918e+01   7.952868e+05  -7.059592e+04   3.432687e+05   0.000000e+00   0.000000e+00   0.000000e+00   8.690790e+05   0.000000e+00   0.000000e+00   0.000000e+00
     1176000   1.175999e-05   9.452573e+00   9.357485e+00   1.898664e+01   7.952868e+05  -7.059592e+04   3.432687e+05   0.000000e+00   0.000000e+00   0.000000e+00   8.690790e+05   0.000000e+00   0.000000e+00   0.000000e+00
     1184000   1.183999e-05   9.516196e+00   9.351837e+00   1.901410e+01   7.952868e+05  -7.059592e+04   3.432687e+05   0.000000e+00   0.000000e+00   0.000000e+00   8.690790e+05   0.000000e+00   0.000000e+00   0.000000e+00
     1192000   1.191999e-05   9.579819e+00   9.346190e+00   1.904156e+01   7.952868e+05  -7.059592e+04   3.432687e+05   0.000000e+00   0.000000e+00   0.000000e+00   8.690790e+05   0.000000e+00   0.000000e+00   0.000000e+00
     1200000   1.199999e-05   9.643442e+00   9.340542e+00   1.906902e+01   7.952868e+05  -7.059592e+04   3.432687e+05   0.000000e+00   0.000000e+00   0.000000e+00   8.690790e+05   0.000000e+00   0.000000e+00   0.000000e+00
     1208000   1.207999e-05   9.707065e+00   9.334894e+00   1.909648e+01   7.952868e+05  -7.059592e+04   3.432687e+05   0.000000e+00   0.000000e+00   0.000000e+00   8.690790e+05   0.000000e+00   0.000000e+00   0.000000e+00
     1216000   1.215999e-05   9.770688e+00   9.329247e+00   1.912394e+01   7.952868e+05  -7.059592e+04   3.432687e+05   0.000000e+00   0.000000e+00   0.000000e+00   8.690790e+05   0.000000e+00   0.000000e+00   0.000000e+00
     1224000   1.223999e-05   9.834311e+00   9.323599e+00   1.915141e+01   7.952868e+05  -7.059592e+04   3.432687e+05   0.000000e+00   0.000000e+00   0.000000e+00   8.690790e+05   0.000000e+00   0.000000e+00   0.000000e+00
     1232000   1.231999e-05   9.897934e+00   9.317951e+00   1.917887e+01   7.952868e+05  -7.059592e+04   3.432687e+05   0.000000e+00   0.000000e+00   0.000000e+00   8.690790e+05   0.000000e+00   0.000000e+00   0.000000e+00
     1240000   1.239999e-05   9.961557e+00   9.312304e+00   1.920633e+01   7.952868e+05  -7.059592e+04   3.432687e+05   0.000000e+00   0.000000e+00   0.000000e+00   8.690790e+05   0.000000e+00   0.000000e+00   0.000000e+00
     1248000   1.247999e-05   1.002518e+01   9.306656e+00   1.923379e+01   7.952868e+05  -7.059592e+04   3.432687e+05   0.000000e+00   0.000000e+00   0.000000e+00   8.690790e+05   0.000000e+00   0.000000e+00   0.000000e+00
     1256000   1.255999e-05   1.008880e+01   9.301008e+00   1.926125e+01   7.952868e+05  -7.059592e+04   3.432687e+05   0.000000e+00   0.000000e+00   0.000000e+00   8.690790e+05   0.000000e+00   0.000000e+00   0.000000e+00
     1264000   1.263999e-05   1.015243e+01   9.295361e+00   1.928871e+01   7.952868e+05  -7.059592e+04   3.432687e+05   0.000000e+00   0.000000e+00   0.000000e+00   8.690790e+05   0.000000e+00   0.000000e+00   0.000000e+00
     1272000   1.271999e-05   1.021605e+01   9.289713e+00   1.931618e+01   7.952868e+05  -7.059592e+04   3.432687e+05   0.000000e+00   0.000000e+00   0.000000e+00   8.690790e+05   0.000000e+00   0.000000e+00   0.000000e+00
     1280000   1.279999e-05   1.027967e+01   9.284065e+00   1.934364e+01   7.952868e+05  -7.059592e+04   3.432687e+05   0.000000e+00   0.000000e+00   0.000000e+00   8.690790e+05   0.000000e+00   0.000000e+00   0.000000e+00
     1288000   1.287999e-05   1.034329e+01   9.278418e+00   1.937110e+01   7.952868e+05  -7.059592e+04   3.432687e+05   0.000000e+00   0.000000e+00   0.000000e+00   8.690790e+05   0.000000e+00   0.000000e+00   0.000000e+00
     1296000   1.295999e-05   1.040692e+01   9.272770e+00   1.939856e+01   7.952868e+05  -7.059592e+04   3.432687e+05   0.000000e+00   0.000000e+00   0.000000e+00   8.690790e+05   0.000000e+00   0.000000e+00   0.000000e+00
     1304000   1.303999e-05   1.047054e+01   9.267122e+00   1.942602e+01   7.952868e+05  -7.059592e+04   3.432687e+05   0.000000e+00   0.000000e+00   0.000000e+00   8.690790e+05   0.000000e+00   0.000000e+00   0.000000e+00
     1312000   1.311999e-05   1.053416e+01   9.261475e+00   1.945348e+01   7.952868e+05  -7.059592e+04   3.432687e+05   0.000000e+00   0.000000e+00   0.000000e+00   8.690790e+05   0.000000e+00   0.000000e+00   0.000000e+00
     1320000   1.319999e-05   1.059779e+01   9.255827e+00   1.948094e+01   7.952868e+05  -7.059592e+04   3.432687e+05   0.000000e+00   0.000000e+00   0.000000e+00   8.690790e+05   0.000000e+00   0.000000e+00   0.000000e+00
     1328000   1.327999e-05   1.066141e+01   9.250179e+00   1.950841e+01   7.952868e+05  -7.059592e+04   3.432687e+05   0.000000e+00   0.000000e+00   0.000000e+00   8.690790e+05   0.000000e+00   0.000000e+00   0.000000e+00
     1336000   1.335999e-05   1.072503e+01   9.244532e+00   1.953587e+01   7.952868e+05  -7.059585e+04   3.432688e+05  -2.637719e+06   2.385708e+06   6.601719e+06   8.690790e+05   1.022832e-28   0.000000e+00   0.000000e+00
     1344000   1.343999e-05   1.078865e+01   9.238884e+00   1.956333e+01   7.952865e+05  -7.059559e+04   3.432696e+05  -4.657479e+06   4.212497e+06   1.165677e+07   8.690790e+05   3.189211e-28   0.000000e+00   0.000000e+00
     1352000   1.351999e-05   1.085228e+01   9.233236e+00   1.959079e+01   7.952864e+05  -7.059553e+04   3.432697e+05   0.000000e+00   0.000000e+00   0.000000e+00   8.690790e+05   0.000000e+00   0.000000e+00   0.000000e+00
     1360000   1.359999e-05   1.091590e+01   9.227589e+00   1.961825e+01   7.952859e+05  -7.059506e+04   3.432710e+05  -6.954168e+06   6.201169e+06   1.738662e+07   8.690790e+05   7.079130e-28   0.000000e+00   0.000000e+00
     1368000   1.367999e-05   1.097952e+01   9.221941e+00   1.964571e+01   7.952853e+05  -7.059457e+04   3.432724e+05  -6.765758e+06   6.033160e+06   1.691548e+07   8.690790e+05   6.700683e-28   0.000000e+00   0.000000e+00
     1376000   1.375999e-05   1.104315e+01   9.216294e+00   1.967318e+01   7.952832e+05  -7.059265e+04   3.432778e+05  -4.297585e+07   3.803489e+07   1.073852e+08   8.690790e+05   2.696851e-26   0.000000e+00   0.000000e+00
     1384000   1.383999e-05   1.110677e+01   9.210646e+00   1.970064e+01   7.952793e+05  -7.058923e+04   3.432875e+05  -2.829870e+07   2.488286e+07   7.067498e+07   8.690790e+05   1.166779e-26   0.000000e+00   0.000000e+00
     1392000   1.391999e-05   1.117039e+01   9.204999e+00   1.972810e+01   7.952759e+05  -7.058626e+04   3.432960e+05  -5.656163e+07   4.949261e+07   1.412064e+08   8.690790e+05   4.654651e-26   0.000000e+00   0.000000e+00
     1400000   1.399999e-05   1.123401e+01   9.199352e+00   1.975557e+01   7.952709e+05  -7.058189e+04   3.433085e+05  -8.499815e+07   7.387797e+07   2.120862e+08   8.690790e+05   1.048981e-25   0.000000e+00   0.000000e+00
     1408000   1.407999e-05   1.129763e+01   9.193706e+00   1.978303e+01   7.952629e+05  -7.057500e+04   3.433283e+05  -1.134207e+08   9.829049e+07   2.829250e+08   8.690790e+05   1.865976e-25   0.000000e+00   0.000000e+00
     1416000   1.415999e-05   1.136126e+01   9.188060e+00   1.981050e+01   7.952593e+05  -7.057183e+04   3.433374e+05  -5.284403e+07   4.554360e+07   1.317619e+08   8.690790e+05   4.044295e-26   0.000000e+00   0.000000e+00
     1424000   1.423999e-05   1.142488e+01   9.182415e+00   1.983797e+01   7.952550e+05  -7.056811e+04   3.433482e+05  -6.485175e+07   5.561471e+07   1.616385e+08   8.690790e+05   6.081151e-26   0.000000e+00   0.000000e+00
     1432000   1.431999e-05   1.148850e+01   9.176769e+00   1.986543e+01   7.952497e+05  -7.056366e+04   3.433612e+05  -6.532283e+07   5.571201e+07   1.627418e+08   8.690790e+05   6.159384e-26   0.000000e+00   0.000000e+00
     1440000   1.439999e-05   1.155212e+01   9.171124e+00   1.989290e+01   7.952476e+05  -7.056181e+04   3.433666e+05  -1.077463e+07   9.170919e+06   2.683900e+07   8.690790e+05   1.675469e-27   0.000000e+00   0.000000e+00
     1448000   1.447999e-05   1.161574e+01   9.165480e+00   1.992037e+01   7.952446e+05  -7.055930e+04   3.433740e+05  -1.251656e+07   1.057697e+07   3.116145e+07   8.690790e+05   2.256555e-27   0.000000e+00   0.000000e+00
     1456000   1.455999e-05   1.167936e+01   9.159835e+00   1.994784e+01   7.952449e+05  -7.055950e+04   3.433734e+05   1.848373e+07  -1.558919e+07  -4.601130e+07   8.690790e+05   4.913170e-27   0.000000e+00   0.000000e+00
     1464000   1.463999e-05   1.174297e+01   9.154190e+00   1.997531e+01   7.952438e+05  -7.055866e+04   3.433759e+05  -3.462681e+07   2.893583e+07   8.614011e+07   8.690790e+05   1.720238e-26   0.000000e+00   0.000000e+00
     1472000   1.471999e-05   1.180659e+01   9.148546e+00   2.000278e+01   7.952409e+05  -7.055622e+04   3.433831e+05  -3.315548e+00  -9.995328e+01  -1.285930e+01   8.690790e+05   1.849697e-38   0.000000e+00   0.000000e+00
     1480000   1.479999e-05   1.187021e+01   9.142901e+00   2.003025e+01   7.952409e+05  -7.055622e+04   3.433831e+05   2.524080e+00  -9.637782e+01  -2.564863e+01   8.690790e+05   1.810736e-38   0.000000e+00   0.000000e+00
     1488000   1.487999e-05   1.193383e+01   9.137257e+00   2.005772e+01   7.952409e+05  -7.055622e+04   3.433831e+05  -1.227733e+01  -9.096189e+01   9.742794e+00   8.690790e+05   1.549960e-38   0.000000e+00   0.000000e+00
     1496000   1.495999e-05   1.199745e+01   9.131612e+00   2.008519e+01   7.952409e+05  -7.055622e+04   3.433831e+05  -2.039038e+01  -9.666227e+01   2.736051e+01   8.690790e+05   1.911662e-38   0.000000e+00   0.000000e+00
     1504000   1.503999e-05   1.206107e+01   9.125968e+00   2.011267e+01   7.952409e+05  -7.055622e+04   3.433831e+05  -6.708309e+00  -9.348821e+01  -3.673602e+00   8.690790e+05   1.600721e-38   0.000000e+00   0.000000e+00
     1512000   1.511999e-05   1.212469e+01   9.120323e+00   2.014014e+01   7.952409e+05  -7.055622e+04   3.433831e+05  -7.773428e+00  -9.005800e+01  -5.020762e-01   8.690790e+05   1.486544e-38   0.000000e+00   0.000000e+00
     1520000   1.519999e-05   1.218831e+01   9.114679e+00   2.016761e+01   7.952409e+05  -7.055622e+04   3.433831e+05  -9.687561e+00  -9.758349e+01   2.384574e+00   8.690790e+05   1.750512e-38   0.000000e+00   0.000000e+00
     1528000   1.527999e-05   1.225193e+01   9.109034e+00   2.019508e+01   7.952409e+05  -7.055622e+04   3.433831e+05  -8.631961e+00  -8.803087e+01   1.902723e+00   8.690790e+05   1.424061e-38   0.000000e+00   0.000000e+00
     1536000   1.535999e-05   1.231555e+01   9.103390e+00   2.022255e+01   7.952409e+05  -7.055622e+04   3.433831e+05  -8.765003e+00  -9.879057e+01  -1.388856e-21   8.690790e+05   1.789591e-38   0.000000e+00   0.000000e+00
     1544000   1.543999e-05   1.237917e+01   9.097745e+00   2.025002e+01   7.952409e+05  -7.055622e+04   3.433831e+05  -1.041811e+01  -1.174228e+02  -2.373372e-22   8.690790e+05   2.528155e-38   0.000000e+00   0.000000e+00
     1552000   1.551999e-05   1.244279e+01   9.092101e+00   2.027749e+01   7.952409e+05  -7.055622e+04   3.433831e+05  -7.015875e+00  -7.907610e+01   4.733902e-22   8.690790e+05   1.146588e-38   0.000000e+00   0.000000e+00
     1560000   1.559999e-05   1.250641e+01   9.086456e+00   2.030496e+01   7.952409e+05  -7.055622e+04   3.433831e+05  -9.572284e+00  -1.078895e+02   2.494629e-21   8.690790e+05   2.134340e-38   0.000000e+00   0.000000e+00
     1568000   1.567999e-05   1.257003e+01   9.080812e+00   2.033243e+01   7.952409e+05  -7.055622e+04   3.433831e+05  -9.994328e+00  -1.126463e+02   5.369712e-21   8.690790e+05   2.326697e-38   0.000000e+00   0.000000e+00
     1576000   1.575999e-05   1.263364e+01   9.075167e+00   2.035990e+01   7.952409e+05  -7.055622e+04   3.433831e+05  -8.765335e+00  -9.879431e+01  -3.313511e-21   8.690790e+05   1.789686e-38   0.000000e+00   0.000000e+00
     1584000   1.583999e-05   1.269726e+01   9.069523e+00   2.038737e+01   7.952409e+05  -7.055622e+04   3.433831e+05  -8.562460e+00  -9.650770e+01   2.809850e-21   8.690790e+05   1.707800e-38   0.000000e+00   0.000000e+00
     1592000   1.591999e-05   1.276088e+01   9.063878e+00   2.041484e+01   7.952409e+05  -7.055622e+04   3.433831e+05  -9.075363e+00  -1.022886e+02  -4.645582e-21   8.690790e+05   1.918478e-38   0.000000e+00   0.000000e+00
     1600000   1.599999e-05   1.282450e+01   9.058234e+00   2.044231e+01   7.952409e+05  -7.055622e+04   3.433831e+05  -8.990612e+00  -1.013334e+02   6.406718e-21   8.690790e+05   1.882852e-38   0.000000e+00   0.000000e+00
     1608000   1.607999e-05   1.288812e+01   9.052589e+00   2.046978e+01   7.952409e+05  -7.055622e+04   3.433831e+05  -8.945199e+00  -1.008216e+02  -5.750412e-21   8.690790e+05   1.863879e-38   0.000000e+00   0.000000e+00
     1616000   1.615999e-05   1.295174e+01   9.046945e+00   2.049725e+01   7.952409e+05  -7.055622e+04   3.433831e+05  -8.500944e+00  -9.581435e+01   8.727632e-21   8.690790e+05   1.683317e-38   0.000000e+00   0.000000e+00
     1624000   1.623999e-05   1.301536e+01   9.041300e+00   2.052472e+01   7.952409e+05  -7.055622e+04   3.433831e+05  -9.361940e+00  -1.055187e+02  -6.727844e-22   8.690790e+05   2.041688e-38   0.000000e+00   0.000000e+00
     1632000   1.631999e-05   1.307898e+01   9.035656e+00   2.055220e+01   7.952409e+05  -7.055622e+04   3.433831e+05  -7.600230e+00  -8.566239e+01   2.347448e-21   8.690790e+05   1.345600e-38   0.000000e+00   0.000000e+00
     1640000   1.639999e-05   1.314260e+01   9.030011e+00   2.057967e+01   7.952409e+05  -7.055622e+04   3.433831e+05  -7.642670e+00  -8.614073e+01  -1.736744e-21   8.690790e+05   1.360636e-38   0.000000e+00   0.000000e+00
     1648000   1.647999e-05   1.320622e+01   9.024367e+00   2.060714e+01   7.952409e+05  -7.055622e+04   3.433831e+05  -8.000258e+00  -9.017110e+01   6.186873e-21   8.690790e+05   1.490866e-38   0.000000e+00   0.000000e+00
     1656000   1.655999e-05   1.326984e+01   9.018722e+00   2.063461e+01   7.952409e+05  -7.055622e+04   3.433831e+05  -8.475687e+00  -9.552969e+01  -8.467107e-22   8.690790e+05   1.673328e-38   0.000000e+00   0.000000e+00
     1664000   1.663999e-05   1.333346e+01   9.013078e+00   2.066208e+01   7.952409e+05  -7.055622e+04   3.433831e+05  -9.086042e+00  -1.024090e+02   7.934867e-21   8.690790e+05   1.923045e-38   0.000000e+00   0.000000e+00
     1672000   1.671999e-05   1.339708e+01   9.007433e+00   2.068955e+01   7.952409e+05  -7.055622e+04   3.433831e+05  -8.847658e+00  -9.972217e+01  -2.793286e-22   8.690790e+05   1.823462e-38   0.000000e+00   0.000000e+00
     1680000   1.679999e-05   1.346070e+01   9.001789e+00   2.071702e+01   7.952409e+05  -7.055622e+04   3.433831e+05  -8.253133e+00  -9.302127e+01  -3.776684e-21   8.690790e+05   1.586643e-38   0.000000e+00   0.000000e+00
     1688000   1.687999e-05   1.352431e+01   8.996144e+00   2.074449e+01   7.952409e+05  -7.055622e+04   3.433831e+05  -7.384330e+00  -8.322897e+01  -7.392935e-21   8.690790e+05   1.270211e-38   0.000000e+00   0.000000e+00
     1696000   1.695999e-05   1.358793e+01   8.990500e+00   2.077196e+01   7.952409e+05  -7.055622e+04   3.433831e+05  -6.260676e+00  -7.056424e+01  -3.611561e-22   8.690790e+05   9.130598e-39   0.000000e+00   0.000000e+00
     1704000   1.703999e-05   1.365155e+01   8.984855e+00   2.079943e+01   7.952409e+05  -7.055622e+04   3.433831e+05  -1.164816e+01  -1.312868e+02  -1.418686e-21   8.690790e+05   3.160453e-38   0.000000e+00   0.000000e+00
     1712000   1.711999e-05   1.371517e+01   8.979211e+00   2.082690e+01   7.952409e+05  -7.055622e+04   3.433831e+05  -8.567618e+00  -9.656583e+01  -4.553536e-21   8.690790e+05   1.709851e-38   0.000000e+00   0.000000e+00
     1720000   1.719999e-05   1.377879e+01   8.973566e+00   2.085437e+01   7.952409e+05  -7.055622e+04   3.433831e+05  -8.496099e+00  -9.575975e+01   2.499057e-23   8.690790e+05   1.681424e-38   0.000000e+00   0.000000e+00
     1728000   1.727999e-05   1.384241e+01   8.967922e+00   2.088184e+01   7.952409e+05  -7.055622e+04   3.433831e+05  -9.526085e+00  -1.073687e+02   2.883598e-21   8.690790e+05   2.113781e-38   0.000000e+00   0.000000e+00
     1736000   1.735999e-05   1.390603e+01   8.962277e+00   2.090931e+01   7.952409e+05  -7.055622e+04   3.433831e+05  -9.009363e+00  -1.015448e+02   4.744587e-22   8.690790e+05   1.890792e-38   0.000000e+00   0.000000e+00
     1744000   1.743999e-05   1.396965e+01   8.956633e+00   2.093678e+01   7.952409e+05  -7.055622e+04   3.433831e+05  -7.488780e+00  -8.440623e+01  -1.252469e-21   8.690790e+05   1.306416e-38   0.000000e+00   0.000000e+00
     1752000   1.751999e-05   1.403327e+01   8.950988e+00   2.096426e+01   7.952409e+05  -7.055622e+04   3.433831e+05  -9.145700e+00  -1.030814e+02  -6.682578e-21   8.690790e+05   1.948348e-38   0.000000e+00   0.000000e+00
     1760000   1.759999e-05   1.409689e+01   8.945344e+00   2.099173e+01   7.952409e+05  -7.055622e+04   3.433831e+05  -9.524568e+00  -1.073516e+02  -7.284466e-22   8.690790e+05   2.113117e-38   0.000000e+00   0.000000e+00
     1768000   1.767999e-05   1.416051e+01   8.939699e+00   2.101920e+01   7.952409e+05  -7.055622e+04   3.433831e+05  -7.133755e+00  -8.040473e+01  -2.336181e-21   8.690790e+05   1.185456e-38   0.000000e+00   0.000000e+00
     1776000   1.775999e-05   1.422413e+01   8.934055e+00   2.104667e+01   7.952409e+05  -7.055622e+04   3.433831e+05  -8.581442e+00  -9.672165e+01  -3.294875e-22   8.690790e+05   1.715311e-38   0.000000e+00   0.000000e+00
     1784000   1.783999e-05   1.428775e+01   8.928410e+00   2.107414e+01   7.952409e+05  -7.055622e+04   3.433831e+05  -9.759113e+00  -1.099952e+02   2.054871e-21   8.690790e+05   2.218425e-38   0.000000e+00   0.000000e+00
     1792000   1.791999e-05   1.435136e+01   8.922766e+00   2.110161e+01   7.952409e+05  -7.055622e+04   3.433831e+05  -8.963832e+00  -1.010316e+02   6.881949e-21   8.690790e+05   1.871599e-38   0.000000e+00   0.000000e+00
     1800000   1.799999e-05   1.441498e+01   8.917121e+00   2.112908e+01   7.952409e+05  -7.055622e+04   3.433831e+05  -8.240191e+00  -9.287541e+01  -1.818625e-21   8.690790e+05   1.581695e-38   0.000000e+00   0.000000e+00
     1808000   1.807999e-05   1.447860e+01   8.911477e+00   2.115655e+01   7.952409e+05  -7.055622e+04   3.433831e+05  -7.411496e+00  -8.353516e+01   5.421800e-21   8.690790e+05   1.279561e-38   0.000000e+00   0.000000e+00
     1816000   1.815999e-05   1.454222e+01   8.905832e+00   2.118402e+01   7.952409e+05  -7.055622e+04   3.433831e+05  -8.830679e+00  -9.953081e+01  -1.591713e-22   8.690790e+05   1.816486e-38   0.000000e+00   0.000000e+00
     1824000   1.823999e-05   1.460584e+01   8.900188e+00   2.121149e+01   7.952409e+05  -7.055622e+04   3.433831e+05  -7.979202e+00  -8.993379e+01   1.639648e-21   8.690790e+05   1.483072e-38   0.000000e+00   0.000000e+00
     1832000   1.831999e-05   1.466946e+01   8.894543e+00   2.123896e+01   7.952409e+05  -7.055622e+04   3.433831e+05  -5.666172e+00  -6.386357e+01   4.324874e-21   8.690790e+05   7.479272e-39   0.000000e+00   0.000000e+00
     1840000   1.839999e-05   1.473308e+01   8.888899e+00   2.126643e+01   7.952409e+05  -7.055622e+04   3.433831e+05  -7.894486e+00  -8.897895e+01   7.787756e-21   8.690790e+05   1.451668e-38   0.000000e+00   0.000000e+00
     1848000   1.847999e-05   1.479670e+01   8.883254e+00   2.129390e+01   7.952409e+05  -7.055622e+04   3.433831e+05  -9.183907e+00  -1.035120e+02  -2.490462e-21   8.690790e+05   1.964613e-38   0.000000e+00   0.000000e+00
     1856000   1.855999e-05   1.486032e+01   8.877610e+00   2.132137e+01   7.952409e+05  -7.055622e+04   3.433831e+05  -9.351563e+00  -1.054017e+02  -5.944388e-21   8.690790e+05   2.036984e-38   0.000000e+00   0.000000e+00
     1864000   1.863999e-05   1.492394e+01   8.871965e+00   2.134884e+01   7.952409e+05  -7.055622e+04   3.433831e+05  -7.731809e+00  -8.714542e+01  -2.931867e-21   8.690790e+05   1.392547e-38   0.000000e+00   0.000000e+00
     1872000   1.871999e-05   1.498756e+01   8.866321e+00   2.137632e+01   7.952409e+05  -7.055622e+04   3.433831e+05  -6.985706e+00  -7.873606e+01   3.657989e-22   8.690790e+05   1.136762e-38   0.000000e+00   0.000000e+00
     1880000   1.879999e-05   1.505118e+01   8.860676e+00   2.140379e+01   7.952409e+05  -7.055622e+04   3.433831e+05  -5.792114e+00  -6.528306e+01   5.802847e-21   8.690790e+05   7.815373e-39   0.000000e+00   0.000000e+00
     1888000   1.887999e-05   1.511480e+01   8.855032e+00   2.143126e+01   7.952409e+05  -7.055622e+04   3.433831e+05  -7.492433e+00  -8.444740e+01  -9.718802e-22   8.690790e+05   1.307540e-38   0.000000e+00   0.000000e+00
     1896000   1.895999e-05   1.517842e+01   8.849387e+00   2.145873e+01   7.952409e+05  -7.055622e+04   3.433831e+05  -9.416356e+00  -1.061320e+02  -2.845115e-21   8.690790e+05   2.065289e-38   0.000000e+00   0.000000e+00
     1904000   1.903999e-05   1.524203e+01   8.843743e+00   2.148620e+01   7.952409e+05  -7.055622e+04   3.433831e+05  -9.382319e+00  -1.057483e+02   1.160316e-21   8.690790e+05   2.050427e-38   0.000000e+00   0.000000e+00
     1912000   1.911999e-05   1.530565e+01   8.838098e+00   2.151367e+01   7.952409e+05  -7.055622e+04   3.433831e+05  -6.934727e+00  -7.816148e+01   1.421031e-21   8.690790e+05   1.120260e-38   0.000000e+00   0.000000e+00
     1920000   1.919999e-05   1.536927e+01   8.832454e+00   2.154114e+01   7.952409e+05  -7.055622e+04   3.433831e+05  -5.469009e+00  -6.164134e+01   2.784526e-21   8.690790e+05   6.967607e-39   0.000000e+00   0.000000e+00
     1928000   1.927999e-05   1.543289e+01   8.826809e+00   2.156861e+01   7.952409e+05  -7.055622e+04   3.433831e+05  -7.122241e+00  -8.027496e+01   3.603492e-21   8.690790e+05   1.181537e-38   0.000000e+00   0.000000e+00
     1936000   1.935999e-05   1.549651e+01   8.821165e+00   2.159608e+01   7.952409e+05  -7.055622e+04   3.433831e+05  -8.655406e+00  -9.755530e+01  -2.824715e-21   8.690790e+05   1.744990e-38   0.000000e+00   0.000000e+00
     1944000   1.943999e-05   1.556013e+01   8.815520e+00   2.162355e+01   7.952409e+05  -7.055622e+04   3.433831e+05  -6.011155e+00  -6.775188e+01  -6.114423e-21   8.690790e+05   8.416458e-39   0.000000e+00   0.000000e+00
     1952000   1.951999e-05   1.562375e+01   8.809876e+00   2.165102e+01   7.952409e+05  -7.055622e+04   3.433831e+05  -5.489123e+00  -6.186804e+01  -7.129526e-22   8.690790e+05   7.018539e-39   0.000000e+00   0.000000e+00
     1960000   1.959999e-05   1.568737e+01   8.804231e+00   2.167849e+01   7.952409e+05  -7.055622e+04   3.433831e+05  -5.308763e+00  -5.983521e+01   2.657586e-21   8.690790e+05   6.564893e-39   0.000000e+00   0.000000e+00
     1968000   1.967999e-05   1.575099e+01   8.798587e+00   2.170596e+01   7.952409e+05  -7.055622e+04   3.433831e+05  -5.642731e+00  -6.359936e+01   1.304923e-21   8.690790e+05   7.417168e-39   0.000000e+00   0.000000e+00
     1976000   1.975999e-05   1.581461e+01   8.792942e+00   2.173343e+01   7.952409e+05  -7.055622e+04   3.433831e+05  -5.751118e+00  -6.482100e+01  -4.177062e-21   8.690790e+05   7.704443e-39   0.000000e+00   0.000000e+00
     1984000   1.983999e-05   1.587823e+01   8.787298e+00   2.176090e+01   7.952409e+05  -7.055622e+04   3.433831e+05  -5.779382e+00  -6.513956e+01   3.569649e-21   8.690790e+05   7.780356e-39   0.000000e+00   0.000000e+00
     1992000   1.991999e-05   1.594185e+01   8.781653e+00   2.178837e+01   7.952409e+05  -7.055622e+04   3.433831e+05  -8.196658e+00  -9.238474e+01   2.022343e-21   8.690790e+05   1.564976e-38   0.000000e+00   0.000000e+00
     2000000   1.999999e-05   1.600547e+01   8.776009e+00   2.181585e+01   7.952409e+05  -7.055622e+04   3.433831e+05  -5.316992e+00  -5.992796e+01  -6.096512e-21   8.690790e+05   6.584813e-39   0.000000e+00   0.000000e+00
     2008000   2.007999e-05   1.606909e+01   8.770364e+00   2.184332e+01   7.952409e+05  -7.055622e+04   3.433831e+05  -6.583875e+00  -7.420703e+01   5.037626e-22   8.690790e+05   1.009670e-38   0.000000e+00   0.000000e+00
     2016000   2.015999e-05   1.613270e+01   8.764720e+00   2.187079e+01   7.952409e+05  -7.055622e+04   3.433831e+05  -6.862066e+00  -7.734252e+01  -5.568738e-21   8.690790e+05   1.096882e-38   0.000000e+00   0.000000e+00
     2024000   2.023999e-05   1.619632e+01   8.759075e+00   2.189826e+01   7.952409e+05  -7.055622e+04   3.433831e+05  -6.033612e+00  -6.800500e+01   7.465134e-22   8.690790e+05   8.480216e-39   0.000000e+00   0.000000e+00
     2032000   2.031999e-05   1.625994e+01   8.753431e+00   2.192573e+01   7.952409e+05  -7.055622e+04   3.433831e+05  -6.169855e+00  -6.954059e+01   1.021249e-21   8.690790e+05   8.866425e-39   0.000000e+00   0.000000e+00
     2040000   2.039999e-05   1.632356e+01   8.747786e+00   2.195320e+01   7.952409e+05  -7.055622e+04   3.433831e+05  -4.924681e+00  -5.550620e+01   1.032606e-21   8.690790e+05   5.649665e-39   0.000000e+00   0.000000e+00
     2048000   2.047999e-05   1.638718e+01   8.742142e+00   2.198067e+01   7.952409e+05  -7.055622e+04   3.433831e+05  -3.596611e+00  -4.053750e+01   3.334731e-22   8.690790e+05   3.013452e-39   0.000000e+00   0.000000e+00
     2056000   2.055999e-05   1.645080e+01   8.736497e+00   2.200814e+01   7.952409e+05  -7.055622e+04   3.433831e+05  -5.054916e+00  -5.697409e+01   1.826790e-21   8.690790e+05   5.952580e-39   0.000000e+00   0.000000e+00
     2064000   2.063999e-05   1.651442e+01   8.730853e+00   2.203561e+01   7.952409e+05  -7.055622e+04   3.433831e+05  -5.053523e+00  -5.695839e+01   2.828551e-21   8.690790e+05   5.948742e-39   0.000000e+00   0.000000e+00
     2072000   2.071999e-05   1.657804e+01   8.725208e+00   2.206308e+01   7.952409e+05  -7.055622e+04   3.433831e+05  -5.083840e+00  -5.730009e+01   2.057956e-21   8.690790e+05   6.020331e-39   0.000000e+00   0.000000e+00
     2080000   2.079999e-05   1.664166e+01   8.719564e+00   2.209055e+01   7.952409e+05  -7.055622e+04   3.433831e+05  -2.694881e+00  -3.037407e+01   6.030385e-22   8.690790e+05   1.691780e-39   0.000000e+00   0.000000e+00
     2088000   2.087999e-05   1.670528e+01   8.713919e+00   2.211802e+01   7.952409e+05  -7.055622e+04   3.433831e+05  -4.438608e+00  -5.002766e+01  -2.938390e-22   8.690790e+05   4.589419e-39   0.000000e+00   0.000000e+00
     2096000   2.095999e-05   1.676890e+01   8.708275e+00   2.214549e+01   7.952409e+05  -7.055622e+04   3.433831e+05  -3.340547e+00  -3.765139e+01   3.608566e-21   8.690790e+05   2.599610e-39   0.000000e+00   0.000000e+00
     2104000   2.103999e-05   1.683252e+01   8.702630e+00   2.217296e+01   7.952409e+05  -7.055622e+04   3.433831e+05  -3.319329e+00  -3.741224e+01  -1.020358e-22   8.690790e+05   2.566763e-39   0.000000e+00   0.000000e+00
     2112000   2.111999e-05   1.689614e+01   8.696986e+00   2.220043e+01   7.952409e+05  -7.055622e+04   3.433831e+05  -1.963853e-01  -2.213463e+00   5.621858e-23   8.690790e+05   9.009310e-42   0.000000e+00   0.000000e+00
     2120000   2.119999e-05   1.695976e+01   8.691341e+00   2.222791e+01   7.952409e+05  -7.055622e+04   3.433831e+05  -5.630683e+00  -6.346358e+01   4.329816e-21   8.690790e+05   7.384412e-39   0.000000e+00   0.000000e+00
     2128000   2.127999e-05   1.702337e+01   8.685697e+00   2.225538e+01   7.952409e+05  -7.055622e+04   3.433831e+05  -2.647991e+00  -2.984558e+01  -1.225189e-21   8.690790e+05   1.633729e-39   0.000000e+00   0.000000e+00
     2136000   2.135999e-05   1.708699e+01   8.680052e+00   2.228285e+01   7.952409e+05  -7.055622e+04   3.433831e+05   2.657971e-02   2.995806e-01   1.014015e-23   8.690790e+05   1.604514e-43   0.000000e+00   0.000000e+00
     2144000   2.143999e-05   1.715061e+01   8.674408e+00   2.231032e+01   7.952409e+05  -7.055622e+04   3.433831e+05  -6.381306e+00  -7.192386e+01  -6.811609e-22   8.690790e+05   9.484671e-39   0.000000e+00   0.000000e+00
     2152000   2.151999e-05   1.721423e+01   8.668763e+00   2.233779e+01   7.952409e+05  -7.055622e+04   3.433831e+05  -2.107115e+00  -2.374934e+01  -2.240156e-22   8.690790e+05   1.034558e-39   0.000000e+00   0.000000e+00
     2160000   2.159999e-05   1.727785e+01   8.663119e+00   2.236526e+01   7.952409e+05  -7.055622e+04   3.433831e+05   6.334646e-01   7.139796e+00   3.743655e-22   8.690790e+05   9.337103e-41   0.000000e+00   0.000000e+00
     2168000   2.167999e-05   1.734147e+01   8.657474e+00   2.239273e+01   7.952409e+05  -7.055622e+04   3.433831e+05  -3.596918e+00  -4.054096e+01  -1.811321e-23   8.690790e+05   3.013505e-39   0.000000e+00   0.000000e+00
     2176000   2.175999e-05   1.740509e+01   8.651830e+00   2.242020e+01   7.952409e+05  -7.055622e+04   3.433831e+05  -1.559601e+00  -1.757830e+01  -5.301661e-22   8.690790e+05   5.663180e-40   0.000000e+00   0.000000e+00
     2184000   2.183999e-05   1.746871e+01   8.646185e+00   2.244767e+01   7.952409e+05  -7.055622e+04   3.433831e+05  -4.483953e+00  -5.053875e+01   2.747231e-21   8.690790e+05   4.682617e-39   0.000000e+00   0.000000e+00
     2192000   2.191999e-05   1.753233e+01   8.640541e+00   2.247514e+01   7.952409e+05  -7.055622e+04   3.433831e+05   9.128448e-02   1.028870e+00   9.213674e-24   8.690790e+05   1.926074e-42   0.000000e+00   0.000000e+00
     2200000   2.199999e-05   1.759595e+01   8.634896e+00   2.250261e+01   7.952409e+05  -7.055622e+04   3.433831e+05  -1.844717e+00  -2.079186e+01   1.368174e-21   8.690790e+05   7.926116e-40   0.000000e+00   0.000000e+00
     2208000   2.207999e-05   1.765957e+01   8.629252e+00   2.253008e+01   7.952409e+05  -7.055622e+04   3.433831e+05  -1.370316e+00  -1.544486e+01   1.320639e-21   8.690790e+05   4.374220e-40   0.000000e+00   0.000000e+00
     2216000   2.215999e-05   1.772319e+01   8.623607e+00   2.255755e+01   7.952409e+05  -7.055622e+04   3.433831e+05  -2.347498e+00  -2.645871e+01  -1.859057e-22   8.690790e+05   1.283464e-39   0.000000e+00   0.000000e+00
     2224000   2.223999e-05   1.778681e+01   8.617963e+00   2.258502e+01   7.952409e+05  -7.055622e+04   3.433831e+05  -3.726947e+00  -4.200651e+01   1.404330e-21   8.690790e+05   3.235217e-39   0.000000e+00   0.000000e+00
     2232000   2.231999e-05   1.785042e+01   8.612318e+00   2.261249e+01   7.952409e+05  -7.055622e+04   3.433831e+05  -1.699056e+00  -1.915011e+01  -8.974999e-23   8.690790e+05   6.722094e-40   0.000000e+00   0.000000e+00
     2240000   2.239999e-05   1.791404e+01   8.606674e+00   2.263996e+01   7.952409e+05  -7.055622e+04   3.433831e+05  -1.103943e+00  -1.244257e+01   6.742155e-22   8.690790e+05   2.839456e-40   0.000000e+00   0.000000e+00
     2248000   2.247999e-05   1.797766e+01   8.601029e+00   2.266744e+01   7.952409e+05  -7.055622e+04   3.433831e+05  -3.968114e-02  -4.472472e-01  -4.562475e-24   8.690790e+05   3.692434e-43   0.000000e+00   0.000000e+00
     2256000   2.255999e-05   1.804128e+01   8.595385e+00   2.269491e+01   7.952409e+05  -7.055622e+04   3.433831e+05  -2.099582e+00  -2.366444e+01  -1.569178e-21   8.690790e+05   1.026717e-39   0.000000e+00   0.000000e+00
     2264000   2.263999e-05   1.810490e+01   8.589740e+00   2.272238e+01   7.952409e+05  -7.055622e+04   3.433831e+05  -2.722415e-01  -3.068441e+00  -2.679157e-23   8.690790e+05   1.723564e-41   0.000000e+00   0.000000e+00
     2272000   2.271999e-05   1.816852e+01   8.584096e+00   2.274985e+01   7.952409e+05  -7.055622e+04   3.433831e+05  -2.072731e+00  -2.336180e+01   6.486759e-22   8.690790e+05   1.000527e-39   0.000000e+00   0.000000e+00
     2280000   2.279999e-05   1.823214e+01   8.578451e+00   2.277732e+01   7.952409e+05  -7.055622e+04   3.433831e+05   2.363682e+00   2.664112e+01  -1.191531e-21   8.690790e+05   1.301062e-39   0.000000e+00   0.000000e+00
     2288000   2.287999e-05   1.829576e+01   8.572807e+00   2.280479e+01   7.952409e+05  -7.055622e+04   3.433831e+05  -1.762933e+00  -1.987007e+01  -4.375025e-22   8.690790e+05   7.237607e-40   0.000000e+00   0.000000e+00
     2296000   2.295999e-05   1.835938e+01   8.567162e+00   2.283226e+01   7.952409e+05  -7.055622e+04   3.433831e+05   3.363439e+00   3.790941e+01  -1.308166e-21   8.690790e+05   2.634559e-39   0.000000e+00   0.000000e+00
     2304000   2.303999e-05   1.842300e+01   8.561518e+00   2.285973e+01   7.952409e+05  -7.055622e+04   3.433831e+05   6.942633e-01   7.825059e+00  -4.110757e-22   8.690790e+05   1.123470e-40   0.000000e+00   0.000000e+00
     2312000   2.311999e-05   1.848662e+01   8.555873e+00   2.288720e+01   7.952409e+05  -7.055622e+04   3.433831e+05  -1.070274e+00  -1.206308e+01   3.595124e-22   8.690790e+05   2.667152e-40   0.000000e+00   0.000000e+00
     2320000   2.319999e-05   1.855024e+01   8.550229e+00   2.291467e+01   7.952409e+05  -7.055622e+04   3.433831e+05   1.444096e+00   1.627644e+01  -9.693905e-22   8.690790e+05   4.856109e-40   0.000000e+00   0.000000e+00
     2328000   2.327999e-05   1.861386e+01   8.544584e+00   2.294214e+01   7.952409e+05  -7.055622e+04   3.433831e+05   4.013960e+00   4.524144e+01  -4.104034e-22   8.690790e+05   3.752814e-39   0.000000e+00   0.000000e+00
     2336000   2.335999e-05   1.867748e+01   8.538940e+00   2.296961e+01   7.952409e+05  -7.055622e+04   3.433831e+05   4.981747e+00   5.614940e+01  -3.976671e-21   8.690790e+05   5.780687e-39   0.000000e+00   0.000000e+00
     2344000   2.343999e-05   1.874109e+01   8.533295e+00   2.299708e+01   7.952409e+05  -7.055622e+04   3.433831e+05   8.997619e-01   1.014124e+01  -9.987375e-22   8.690790e+05   1.886294e-40   0.000000e+00   0.000000e+00
     2352000   2.351999e-05   1.880471e+01   8.527651e+00   2.302455e+01   7.952409e+05  -7.055622e+04   3.433831e+05   2.142816e+00   2.415174e+01  -2.092544e-21   8.690790e+05   1.069607e-39   0.000000e+00   0.000000e+00
     2360000   2.359999e-05   1.886833e+01   8.522006e+00   2.305202e+01   7.952409e+05  -7.055622e+04   3.433831e+05   1.808907e+00   2.038824e+01  -3.498907e-22   8.690790e+05   7.622364e-40   0.000000e+00   0.000000e+00
     2368000   2.367999e-05   1.893195e+01   8.516362e+00   2.307950e+01   7.952409e+05  -7.055622e+04   3.433831e+05   5.246833e+00   5.913718e+01  -4.033507e-21   8.690790e+05   6.412065e-39   0.000000e+00   0.000000e+00
     2376000   2.375999e-05   1.899557e+01   8.510717e+00   2.310697e+01   7.952409e+05  -7.055622e+04   3.433831e+05   2.717644e+00   3.063063e+01  -2.622649e-21   8.690790e+05   1.720701e-39   0.000000e+00   0.000000e+00
     2384000   2.383999e-05   1.905919e+01   8.505073e+00   2.313444e+01   7.952409e+05  -7.055622e+04   3.433831e+05   5.493946e+00   6.192241e+01  -8.739902e-21   8.690790e+05   7.029900e-39   0.000000e+00   0.000000e+00
     2392000   2.391999e-05   1.912281e+01   8.499428e+00   2.316191e+01   7.952409e+05  -7.055622e+04   3.433831e+05   6.095098e+00   6.869800e+01  -2.576548e-21   8.690790e+05   8.653805e-39   0.000000e+00   0.000000e+00
     2400000   2.399999e-05   1.918643e+01   8.493784e+00   2.318938e+01   7.952409e+05  -7.055622e+04   3.433831e+05   5.616616e+00   6.330502e+01   1.272219e-21   8.690790e+05   7.348452e-39   0.000000e+00   0.000000e+00
     2408000   2.407999e-05   1.925005e+01   8.488139e+00   2.321685e+01   7.952409e+05  -7.055622e+04   3.433831e+05   8.079855e+00   9.106825e+01   6.109374e-21   8.690790e+05   1.520617e-38   0.000000e+00   0.000000e+00
     2416000   2.415999e-05   1.931367e+01   8.482495e+00   2.324432e+01   7.952409e+05  -7.055622e+04   3.433831e+05   4.744710e+00   5.347775e+01   1.093701e-21   8.690790e+05   5.243864e-39   0.000000e+00   0.000000e+00
     2424000   2.423999e-05   1.937729e+01   8.476850e+00   2.327179e+01   7.952409e+05  -7.055622e+04   3.433831e+05   4.971502e+00   5.603393e+01   3.349788e-21   8.690790e+05   5.757150e-39   0.000000e+00   0.000000e+00
     2432000   2.431999e-05   1.944091e+01   8.471206e+00   2.329926e+01   7.952409e+05  -7.055622e+04   3.433831e+05   3.822206e+00   4.308018e+01   1.011382e-21   8.690790e+05   3.403494e-39   0.000000e+00   0.000000e+00
     2440000   2.439999e-05   1.950453e+01   8.465561e+00   2.332673e+01   7.952409e+05  -7.055622e+04   3.433831e+05   5.798082e+00   6.535033e+01   1.973499e-21   8.690790e+05   7.830207e-39   0.000000e+00   0.000000e+00
     2448000   2.447999e-05   1.956815e+01   8.459917e+00   2.335420e+01   7.952409e+05  -7.055622e+04   3.433831e+05   7.541814e+00   8.500397e+01  -4.342559e-21   8.690790e+05   1.324841e-38   0.000000e+00   0.000000e+00
     2456000   2.455999e-05   1.963176e+01   8.454272e+00   2.338167e+01   7.952409e+05  -7.055622e+04   3.433831e+05   5.253116e+00   5.920801e+01  -1.616849e-21   8.690790e+05   6.427750e-39   0.000000e+00   0.000000e+00
     2464000   2.463999e-05   1.969538e+01   8.448628e+00   2.340914e+01   7.952409e+05  -7.055622e+04   3.433831e+05   9.737147e+00   1.097476e+02   7.629427e-21   8.690790e+05   2.208360e-38   0.000000e+00   0.000000e+00
     2472000   2.471999e-05   1.975900e+01   8.442983e+00   2.343661e+01   7.952409e+05  -7.055622e+04   3.433831e+05   4.013860e+00   4.524032e+01  -3.063550e-23   8.690790e+05   3.753728e-39   0.000000e+00   0.000000e+00
     2480000   2.479999e-05   1.982262e+01   8.437339e+00   2.346408e+01   7.952409e+05  -7.055622e+04   3.433831e+05   4.378936e+00   4.935510e+01   1.142370e-21   8.690790e+05   4.466362e-39   0.000000e+00   0.000000e+00
     2488000   2.487999e-05   1.988624e+01   8.431694e+00   2.349156e+01   7.952409e+05  -7.055622e+04   3.433831e+05   5.206872e+00   5.868679e+01   5.409528e-22   8.690790e+05   6.315006e-39   0.000000e+00   0.000000e+00
     2496000   2.495999e-05   1.994986e+01   8.426050e+00   2.351903e+01   7.952409e+05  -7.055622e+04   3.433831e+05   8.275097e+00   9.326882e+01   7.778958e-21   8.690790e+05   1.595051e-38   0.000000e+00   0.000000e+00
     2504000   2.503999e-05   2.001348e+01   8.420405e+00   2.354650e+01   7.952409e+05  -7.055622e+04   3.433831e+05   6.607424e+00   7.447244e+01  -2.361874e-21   8.690790e+05   1.017027e-38   0.000000e+00   0.000000e+00
     2512000   2.511999e-05   2.007710e+01   8.414761e+00   2.357397e+01   7.952409e+05  -7.055622e+04   3.433831e+05   4.733309e+00   5.334924e+01   1.914385e-21   8.690790e+05   5.219272e-39   0.000000e+00   0.000000e+00
     2520000   2.519999e-05   2.014072e+01   8.409116e+00   2.360144e+01   7.952409e+05  -7.055622e+04   3.433831e+05   8.652360e+00   9.752096e+01  -3.777981e-21   8.690790e+05   1.743895e-38   0.000000e+00   0.000000e+00
     2528000   2.527999e-05   2.020434e+01   8.403472e+00   2.362891e+01   7.952409e+05  -7.055622e+04   3.433831e+05   8.329054e+00   9.387697e+01  -3.382142e-21   8.690790e+05   1.616103e-38   0.000000e+00   0.000000e+00
     2536000   2.535999e-05   2.026796e+01   8.397827e+00   2.365638e+01   7.952409e+05  -7.055622e+04   3.433831e+05   4.742181e+00   5.344924e+01   3.015517e-21   8.690790e+05   5.239033e-39   0.000000e+00   0.000000e+00
     2544000   2.543999e-05   2.033158e+01   8.392183e+00   2.368385e+01   7.952409e+05  -7.055622e+04   3.433831e+05   3.139865e+00   3.538950e+01  -6.193116e-22   8.690790e+05   2.296335e-39   0.000000e+00   0.000000e+00
     2552000   2.551999e-05   2.039520e+01   8.386538e+00   2.371132e+01   7.952409e+05  -7.055622e+04   3.433831e+05   6.702475e+00   7.554376e+01  -2.049756e-21   8.690790e+05   1.046385e-38   0.000000e+00   0.000000e+00
     2560000   2.559999e-05   2.045882e+01   8.380894e+00   2.373879e+01   7.952409e+05  -7.055622e+04   3.433831e+05   8.533494e+00   9.618123e+01  -2.494597e-21   8.690790e+05   1.696261e-38   0.000000e+00   0.000000e+00
     2568000   2.567999e-05   2.052243e+01   8.375249e+00   2.376626e+01   7.952409e+05  -7.055622e+04   3.433831e+05   8.361257e+00   9.423994e+01   1.006451e-20   8.690790e+05   1.628457e-38   0.000000e+00   0.000000e+00
     2576000   2.575999e-05   2.058605e+01   8.369605e+00   2.379373e+01   7.952409e+05  -7.055622e+04   3.433831e+05   8.688658e+00   9.793008e+01  -9.813094e-22   8.690790e+05   1.758485e-38   0.000000e+00   0.000000e+00
     2584000   2.583999e-05   2.064967e+01   8.363960e+00   2.382120e+01   7.952409e+05  -7.055622e+04   3.433831e+05   8.605708e+00   9.699515e+01  -2.259856e-21   8.690790e+05   1.725123e-38   0.000000e+00   0.000000e+00
     2592000   2.591999e-05   2.071329e+01   8.358316e+00   2.384867e+01   7.952409e+05  -7.055622e+04   3.433831e+05   9.893457e+00   1.115094e+02  -7.300084e-21   8.690790e+05   2.280120e-38   0.000000e+00   0.000000e+00
     2600000   2.599999e-05   2.077691e+01   8.352671e+00   2.387614e+01   7.952409e+05  -7.055622e+04   3.433831e+05   7.682140e+00   8.658559e+01  -1.750940e-21   8.690790e+05   1.374779e-38   0.000000e+00   0.000000e+00
     2608000   2.607999e-05   2.084053e+01   8.347027e+00   2.390361e+01   7.952409e+05  -7.055622e+04   3.433831e+05   1.135895e+01   1.280270e+02  -3.206008e-21   8.690790e+05   3.005473e-38   0.000000e+00   0.000000e+00
     2616000   2.615999e-05   2.090415e+01   8.341382e+00   2.393109e+01   7.952409e+05  -7.055622e+04   3.433831e+05   1.052839e+01   1.186658e+02   5.522292e-21   8.690790e+05   2.582005e-38   0.000000e+00   0.000000e+00
     2624000   2.623999e-05   2.096777e+01   8.335738e+00   2.395856e+01   7.952409e+05  -7.055622e+04   3.433831e+05   1.094226e+01   1.233305e+02  -9.025260e-21   8.690790e+05   2.788991e-38   0.000000e+00   0.000000e+00
     2632000   2.631999e-05   2.103139e+01   8.330093e+00   2.398603e+01   7.952409e+05  -7.055622e+04   3.433831e+05   1.181976e+01   1.332208e+02   8.253592e-21   8.690790e+05   3.254228e-38   0.000000e+00   0.000000e+00
     2640000   2.639999e-05   2.109501e+01   8.324449e+00   2.401350e+01   7.952409e+05  -7.055622e+04   3.433831e+05   1.165506e+01   1.313645e+02   6.528697e-21   8.690790e+05   3.164188e-38   0.000000e+00   0.000000e+00
     2648000   2.647999e-05   2.115863e+01   8.318804e+00   2.404097e+01   7.952409e+05  -7.055622e+04   3.433831e+05   1.302862e+01   1.468460e+02   2.037238e-21   8.690790e+05   3.953840e-38   0.000000e+00   0.000000e+00
     2656000   2.655999e-05   2.122225e+01   8.313160e+00   2.406844e+01   7.952409e+05  -7.055622e+04   3.433831e+05   1.132073e+01   1.275962e+02  -6.343558e-21   8.690790e+05   2.985433e-38   0.000000e+00   0.000000e+00
     2664000   2.663999e-05   2.128587e+01   8.307515e+00   2.409591e+01   7.952409e+05  -7.055622e+04   3.433831e+05   9.109493e+00   1.026733e+02  -4.211010e-21   8.690790e+05   1.933090e-38   0.000000e+00   0.000000e+00
     2672000   2.671999e-05   2.134949e+01   8.301871e+00   2.412338e+01   7.952409e+05  -7.055622e+04   3.433831e+05   1.276561e+01   1.438815e+02   4.572564e-21   8.690790e+05   3.796010e-38   0.000000e+00   0.000000e+00
     2680000   2.679999e-05   2.141310e+01   8.296226e+00   2.415085e+01   7.952409e+05  -7.055622e+04   3.433831e+05   1.477807e+01   1.665640e+02   2.949879e-21   8.690790e+05   5.086805e-38   0.000000e+00   0.000000e+00
     2688000   2.687999e-05   2.147672e+01   8.290582e+00   2.417832e+01   7.952409e+05  -7.055622e+04   3.433831e+05   1.852357e+01   2.087797e+02   1.071496e-20   8.690790e+05   7.992172e-38   0.000000e+00   0.000000e+00
     2696000   2.695999e-05   2.154034e+01   8.284937e+00   2.420579e+01   7.952409e+05  -7.055622e+04   3.433831e+05   1.303572e+01   1.469260e+02  -5.457136e-21   8.690790e+05   3.958278e-38   0.000000e+00   0.000000e+00
     2704000   2.703999e-05   2.160396e+01   8.279293e+00   2.423326e+01   7.952409e+05  -7.055622e+04   3.433831e+05   1.086081e+01   1.224124e+02   3.456133e-21   8.690790e+05   2.747688e-38   0.000000e+00   0.000000e+00
     2712000   2.711999e-05   2.166758e+01   8.273648e+00   2.426073e+01   7.952409e+05  -7.055622e+04   3.433831e+05   1.026097e+01   1.156517e+02   4.689919e-21   8.690790e+05   2.452565e-38   0.000000e+00   0.000000e+00
     2720000   2.719999e-05   2.173120e+01   8.268004e+00   2.428820e+01   7.952409e+05  -7.055622e+04   3.433831e+05   1.559773e+01   1.758025e+02  -1.012757e-20   8.690790e+05   5.667003e-38   0.000000e+00   0.000000e+00
     2728000   2.727999e-05   2.179482e+01   8.262359e+00   2.431567e+01   7.952409e+05  -7.055622e+04   3.433831e+05   1.043453e+01   1.176079e+02   1.292145e-21   8.690790e+05   2.536376e-38   0.000000e+00   0.000000e+00
     2736000   2.735999e-05   2.185844e+01   8.256715e+00   2.434315e+01   7.952409e+05  -7.055622e+04   3.433831e+05   1.763343e+01   1.987469e+02   1.771436e-20   8.690790e+05   7.242643e-38   0.000000e+00   0.000000e+00
     2744000   2.743999e-05   2.192206e+01   8.251070e+00   2.437062e+01   7.952409e+05  -7.055622e+04   3.433831e+05   1.377472e+01   1.552552e+02  -1.188818e-21   8.690790e+05   4.419852e-38   0.000000e+00   0.000000e+00
     2752000   2.751999e-05   2.198568e+01   8.245426e+00   2.439809e+01   7.952409e+05  -7.055622e+04   3.433831e+05   1.313076e+01   1.479972e+02   1.141915e-20   8.690790e+05   4.016266e-38   0.000000e+00   0.000000e+00
     2760000   2.759999e-05   2.204930e+01   8.239781e+00   2.442556e+01   7.952409e+05  -7.055622e+04   3.433831e+05   1.264236e+01   1.424923e+02   8.248193e-21   8.690790e+05   3.723196e-38   0.000000e+00   0.000000e+00
     2768000   2.767999e-05   2.211292e+01   8.234137e+00   2.445303e+01   7.952409e+05  -7.055622e+04   3.433831e+05   1.460134e+01   1.645721e+02  -1.244498e-20   8.690790e+05   4.965895e-38   0.000000e+00   0.000000e+00
     2776000   2.775999e-05   2.217654e+01   8.228492e+00   2.448050e+01   7.952409e+05  -7.055622e+04   3.433831e+05   1.801791e+01   2.030803e+02   6.960683e-23   8.690790e+05   7.561804e-38   0.000000e+00   0.000000e+00
     2784000   2.783999e-05   2.224015e+01   8.222848e+00   2.450797e+01   7.952409e+05  -7.055622e+04   3.433831e+05   1.530518e+01   1.725051e+02   1.405090e-20   8.690790e+05   5.456325e-38   0.000000e+00   0.000000e+00
     2792000   2.791999e-05   2.230377e+01   8.217203e+00   2.453544e+01   7.952409e+05  -7.055622e+04   3.433831e+05   1.486091e+01   1.674977e+02   6.025351e-22   8.690790e+05   5.144230e-38   0.000000e+00   0.000000e+00
     2800000   2.799999e-05   2.236739e+01   8.211559e+00   2.456291e+01   7.952409e+05  -7.055622e+04   3.433831e+05   1.592918e+01   1.795382e+02   5.199007e-21   8.690790e+05   5.910399e-38   0.000000e+00   0.000000e+00
     2808000   2.807999e-05   2.243101e+01   8.205914e+00   2.459038e+01   7.952409e+05  -7.055622e+04   3.433831e+05   1.781662e+01   2.008116e+02  -1.364087e-20   8.690790e+05   7.394183e-38   0.000000e+00   0.000000e+00
     2816000   2.815999e-05   2.249463e+01   8.200270e+00   2.461785e+01   7.952409e+05  -7.055622e+04   3.433831e+05   1.564159e+01   1.762967e+02  -1.509051e-21   8.690790e+05   5.699166e-38   0.000000e+00   0.000000e+00
     2824000   2.823999e-05   2.255825e+01   8.194625e+00   2.464532e+01   7.952409e+05  -7.055622e+04   3.433831e+05   1.192950e+01   1.344577e+02  -7.790143e-21   8.690790e+05   3.315245e-38   0.000000e+00   0.000000e+00
     2832000   2.831999e-05   2.262187e+01   8.188981e+00   2.467279e+01   7.952409e+05  -7.055622e+04   3.433831e+05   1.792390e+01   2.020207e+02  -5.733118e-22   8.690790e+05   7.483245e-38   0.000000e+00   0.000000e+00
     2840000   2.839999e-05   2.268549e+01   8.183336e+00   2.470026e+01   7.952409e+05  -7.055622e+04   3.433831e+05   1.756173e+01   1.979387e+02   3.352832e-21   8.690790e+05   7.184044e-38   0.000000e+00   0.000000e+00
     2848000   2.847999e-05   2.274911e+01   8.177692e+00   2.472773e+01   7.952409e+05  -7.055622e+04   3.433831e+05   1.785187e+01   2.012088e+02   2.444572e-21   8.690790e+05   7.423363e-38   0.000000e+00   0.000000e+00
     2856000   2.855999e-05   2.281273e+01   8.172047e+00   2.475521e+01   7.952409e+05  -7.055622e+04   3.433831e+05   1.580224e+01   1.781075e+02  -7.948894e-21   8.690790e+05   5.816813e-38   0.000000e+00   0.000000e+00
     2864000   2.863999e-05   2.287635e+01   8.166403e+00   2.478268e+01   7.952409e+05  -7.055622e+04   3.433831e+05   1.427424e+01   1.608854e+02  -2.026463e-20   8.690790e+05   4.746299e-38   0.000000e+00   0.000000e+00
     2872000   2.871999e-05   2.293997e+01   8.160758e+00   2.481015e+01   7.952409e+05  -7.055622e+04   3.433831e+05   1.582826e+01   1.784007e+02   4.774671e-21   8.690790e+05   5.835933e-38   0.000000e+00   0.000000e+00
     2880000   2.879999e-05   2.300359e+01   8.155114e+00   2.483762e+01   7.952409e+05  -7.055622e+04   3.433831e+05   1.900358e+01   2.141898e+02   8.305710e-21   8.690790e+05   8.411837e-38   0.000000e+00   0.000000e+00
     2888000   2.887999e-05   2.306721e+01   8.149469e+00   2.486509e+01   7.952409e+05  -7.055622e+04   3.433831e+05   2.198266e+01   2.477671e+02  -2.039528e-21   8.690790e+05   1.125597e-37   0.000000e+00   0.000000e+00
     2896000   2.895999e-05   2.313082e+01   8.143825e+00   2.489256e+01   7.952409e+05  -7.055622e+04   3.433831e+05   1.729308e+01   1.949108e+02  -1.720963e-20   8.690790e+05   6.966092e-38   0.000000e+00   0.000000e+00
     2904000   2.903999e-05   2.319444e+01   8.138180e+00   2.492003e+01   7.952409e+05  -7.055622e+04   3.433831e+05   1.898106e+01   2.139360e+02  -9.499234e-21   8.690790e+05   8.392145e-38   0.000000e+00   0.000000e+00
     2912000   2.911999e-05   2.325806e+01   8.132536e+00   2.494750e+01   7.952409e+05  -7.055622e+04   3.433831e+05   1.584628e+01   1.786039e+02   1.463325e-20   8.690790e+05   5.849374e-38   0.000000e+00   0.000000e+00
     2920000   2.919999e-05   2.332168e+01   8.126891e+00   2.497497e+01   7.952409e+05  -7.055622e+04   3.433831e+05   1.909429e+01   2.152122e+02  -3.501323e-21   8.690790e+05   8.492351e-38   0.000000e+00   0.000000e+00
     2928000   2.927999e-05   2.338530e+01   8.121247e+00   2.500244e+01   7.952409e+05  -7.055622e+04   3.433831e+05   2.073938e+01   2.337541e+02  -3.122836e-21   8.690790e+05   1.001890e-37   0.000000e+00   0.000000e+00
     2936000   2.935999e-05   2.344892e+01   8.115602e+00   2.502991e+01   7.952409e+05  -7.055622e+04   3.433831e+05   1.965000e+01   2.214756e+02  -6.696428e-21   8.690790e+05   8.994243e-38   0.000000e+00   0.000000e+00
     2944000   2.943999e-05   2.351254e+01   8.109958e+00   2.505738e+01   7.952409e+05  -7.055622e+04   3.433831e+05   1.895963e+01   2.136944e+02  -3.899861e-21   8.690790e+05   8.373579e-38   0.000000e+00   0.000000e+00
     2952000   2.951999e-05   2.357616e+01   8.104313e+00   2.508485e+01   7.952409e+05  -7.055622e+04   3.433831e+05   1.646495e+01   1.855769e+02   1.259941e-20   8.690790e+05   6.315018e-38   0.000000e+00   0.000000e+00
     2960000   2.959999e-05   2.363978e+01   8.098669e+00   2.511232e+01   7.952409e+05  -7.055622e+04   3.433831e+05   1.826896e+01   2.059099e+02   1.084395e-20   8.690790e+05   7.774447e-38   0.000000e+00   0.000000e+00
     2968000   2.967999e-05   2.370340e+01   8.093024e+00   2.513979e+01   7.952409e+05  -7.055622e+04   3.433831e+05   1.926499e+01   2.171362e+02  -6.087299e-21   8.690790e+05   8.644999e-38   0.000000e+00   0.000000e+00
     2976000   2.975999e-05   2.376702e+01   8.087380e+00   2.516726e+01   7.952409e+05  -7.055622e+04   3.433831e+05   2.104882e+01   2.372418e+02   5.444576e-21   8.690790e+05   1.032009e-37   0.000000e+00   0.000000e+00
     2984000   2.983999e-05   2.383064e+01   8.081736e+00   2.519474e+01   7.952409e+05  -7.055622e+04   3.433831e+05   1.920269e+01   2.164340e+02  -7.773137e-22   8.690790e+05   8.589484e-38   0.000000e+00   0.000000e+00
     2992000   2.991999e-05   2.389426e+01   8.076091e+00   2.522221e+01   7.952409e+05  -7.055622e+04   3.433831e+05   1.954273e+01   2.202666e+02  -1.714766e-20   8.690790e+05   8.896241e-38   0.000000e+00   0.000000e+00
     3000000   2.999999e-05   2.395788e+01   8.070447e+00   2.524968e+01   7.952409e+05  -7.055622e+04   3.433831e+05   1.814308e+01   2.044911e+02   1.792229e-20   8.690790e+05   7.667750e-38   0.000000e+00   0.000000e+00
     3008000   3.007999e-05   2.402149e+01   8.064802e+00   2.527715e+01   7.952409e+05  -7.055622e+04   3.433831e+05   2.160549e+01   2.435160e+02   5.277870e-21   8.690790e+05   1.087311e-37   0.000000e+00   0.000000e+00
     3016000   3.015999e-05   2.408511e+01   8.059158e+00   2.530462e+01   7.952409e+05  -7.055622e+04   3.433831e+05   1.749282e+01   1.971620e+02   3.500470e-21   8.690790e+05   7.128053e-38   0.000000e+00   0.000000e+00
     3024000   3.023999e-05   2.414873e+01   8.053513e+00   2.533209e+01   7.952409e+05  -7.055622e+04   3.433831e+05   2.117321e+01   2.386438e+02  -1.280062e-20   8.690790e+05   1.044252e-37   0.000000e+00   0.000000e+00
     3032000   3.031999e-05   2.421235e+01   8.047869e+00   2.535956e+01   7.952409e+05  -7.055622e+04   3.433831e+05   1.969353e+01   2.219663e+02  -1.110481e-20   8.690790e+05   9.034004e-38   0.000000e+00   0.000000e+00
     3040000   3.039999e-05   2.427597e+01   8.042224e+00   2.538703e+01   7.952409e+05  -7.055622e+04   3.433831e+05   2.041836e+01   2.301359e+02   4.732536e-21   8.690790e+05   9.711253e-38   0.000000e+00   0.000000e+00
     3048000   3.047999e-05   2.433959e+01   8.036580e+00   2.541450e+01   7.952409e+05  -7.055622e+04   3.433831e+05   2.043645e+01   2.303398e+02   1.291536e-20   8.690790e+05   9.728419e-38   0.000000e+00   0.000000e+00
     3056000   3.055999e-05   2.440321e+01   8.030935e+00   2.544197e+01   7.952409e+05  -7.055622e+04   3.433831e+05   2.039484e+01   2.298708e+02  -9.124532e-21   8.690790e+05   9.689204e-38   0.000000e+00   0.000000e+00
     3064000   3.063999e-05   2.446683e+01   8.025291e+00   2.546944e+01   7.952409e+05  -7.055622e+04   3.433831e+05   1.848442e+01   2.083384e+02   7.991016e-21   8.690790e+05   7.959030e-38   0.000000e+00   0.000000e+00
     3072000   3.071999e-05   2.453045e+01   8.019646e+00   2.549691e+01   7.952409e+05  -7.055622e+04   3.433831e+05   2.033594e+01   2.292069e+02   3.923893e-21   8.690790e+05   9.633044e-38   0.000000e+00   0.000000e+00
     3080000   3.079999e-05   2.459407e+01   8.014002e+00   2.552438e+01   7.952409e+05  -7.055622e+04   3.433831e+05   1.747765e+01   1.969910e+02   9.992119e-21   8.690790e+05   7.115656e-38   0.000000e+00   0.000000e+00
     3088000   3.087999e-05   2.465769e+01   8.008357e+00   2.555185e+01   7.952409e+05  -7.055622e+04   3.433831e+05   1.934715e+01   2.180622e+02   1.329518e-20   8.690790e+05   8.718991e-38   0.000000e+00   0.000000e+00
     3096000   3.095999e-05   2.472131e+01   8.002713e+00   2.557932e+01   7.952409e+05  -7.055622e+04   3.433831e+05   1.947499e+01   2.195031e+02   1.447930e-20   8.690790e+05   8.834676e-38   0.000000e+00   0.000000e+00
     3104000   3.103999e-05   2.478493e+01   7.997068e+00   2.560680e+01   7.952409e+05  -7.055622e+04   3.433831e+05   1.827214e+01   2.059457e+02   1.688225e-21   8.690790e+05   7.777085e-38   0.000000e+00   0.000000e+00
     3112000   3.111999e-05   2.484855e+01   7.991424e+00   2.563427e+01   7.952409e+05  -7.055622e+04   3.433831e+05   2.013000e+01   2.268857e+02  -3.217685e-21   8.690790e+05   9.438893e-38   0.000000e+00   0.000000e+00
     3120000   3.119999e-05   2.491216e+01   7.985779e+00   2.566174e+01   7.952409e+05  -7.055622e+04   3.433831e+05   2.104121e+01   2.371560e+02  -7.014208e-21   8.690790e+05   1.031297e-37   0.000000e+00   0.000000e+00
     3128000   3.127999e-05   2.497578e+01   7.980135e+00   2.568921e+01   7.952409e+05  -7.055622e+04   3.433831e+05   2.003647e+01   2.258315e+02  -5.639970e-21   8.690790e+05   9.351580e-38   0.000000e+00   0.000000e+00
     3136000   3.135999e-05   2.503940e+01   7.974490e+00   2.571668e+01   7.952409e+05  -7.055622e+04   3.433831e+05   2.095665e+01   2.362030e+02   2.626696e-22   8.690790e+05   1.022973e-37   0.000000e+00   0.000000e+00
     3144000   3.143999e-05   2.510302e+01   7.968846e+00   2.574415e+01   7.952409e+05  -7.055622e+04   3.433831e+05   1.851821e+01   2.087192e+02  -5.453143e-21   8.690790e+05   7.988359e-38   0.000000e+00   0.000000e+00
     3152000   3.151999e-05   2.516664e+01   7.963201e+00   2.577162e+01   7.952409e+05  -7.055622e+04   3.433831e+05   1.472228e+01   1.659352e+02  -1.533727e-20   8.690790e+05   5.049114e-38   0.000000e+00   0.000000e+00
     3160000   3.159999e-05   2.523026e+01   7.957557e+00   2.579909e+01   7.952409e+05  -7.055622e+04   3.433831e+05   2.122612e+01   2.392401e+02   2.180560e-21   8.690790e+05   1.049480e-37   0.000000e+00   0.000000e+00
     3168000   3.167999e-05   2.529388e+01   7.951912e+00   2.582656e+01   7.952409e+05  -7.055622e+04   3.433831e+05   1.593686e+01   1.796247e+02  -5.929494e-21   8.690790e+05   5.916454e-38   0.000000e+00   0.000000e+00
     3176000   3.175999e-05   2.535750e+01   7.946268e+00   2.585403e+01   7.952409e+05  -7.055622e+04   3.433831e+05   1.656038e+01   1.866524e+02   1.029707e-20   8.690790e+05   6.388335e-38   0.000000e+00   0.000000e+00
     3184000   3.183999e-05   2.542112e+01   7.940623e+00   2.588150e+01   7.952409e+05  -7.055622e+04   3.433831e+05   1.939151e+01   2.185622e+02  -4.406990e-21   8.690790e+05   8.758922e-38   0.000000e+00   0.000000e+00
     3192000   3.191999e-05   2.548474e+01   7.934979e+00   2.590897e+01   7.952409e+05  -7.055622e+04   3.433831e+05   2.131203e+01   2.402084e+02  -1.320280e-20   8.690790e+05   1.057977e-37   0.000000e+00   0.000000e+00
     3200000   3.199999e-05   2.554836e+01   7.929334e+00   2.593644e+01   7.952409e+05  -7.055622e+04   3.433831e+05   1.779709e+01   2.005915e+02  -7.984157e-21   8.690790e+05   7.378238e-38   0.000000e+00   0.000000e+00
     3208000   3.207999e-05   2.561198e+01   7.923690e+00   2.596391e+01   7.952409e+05  -7.055622e+04   3.433831e+05   1.832414e+01   2.065318e+02  -2.176622e-20   8.690790e+05   7.821289e-38   0.000000e+00   0.000000e+00
     3216000   3.215999e-05   2.567560e+01   7.918045e+00   2.599138e+01   7.952409e+05  -7.055622e+04   3.433831e+05   1.935423e+01   2.181420e+02  -2.297358e-22   8.690790e+05   8.725358e-38   0.000000e+00   0.000000e+00
     3224000   3.223999e-05   2.573921e+01   7.912401e+00   2.601886e+01   7.952409e+05  -7.055622e+04   3.433831e+05   1.750606e+01   1.973113e+02  -6.796675e-21   8.690790e+05   7.138743e-38   0.000000e+00   0.000000e+00
     3232000   3.231999e-05   2.580283e+01   7.906756e+00   2.604633e+01   7.952409e+05  -7.055622e+04   3.433831e+05   1.641286e+01   1.849898e+02   6.070042e-21   8.690790e+05   6.274813e-38   0.000000e+00   0.000000e+00
     3240000   3.239999e-05   2.586645e+01   7.901112e+00   2.607380e+01   7.952409e+05  -7.055622e+04   3.433831e+05   1.716506e+01   1.934678e+02   2.091040e-21   8.690790e+05   6.863143e-38   0.000000e+00   0.000000e+00
     3248000   3.247999e-05   2.593007e+01   7.895467e+00   2.610127e+01   7.952409e+05  -7.055622e+04   3.433831e+05   1.633073e+01   1.840641e+02  -9.823601e-21   8.690790e+05   6.212026e-38   0.000000e+00   0.000000e+00
     3256000   3.255999e-05   2.599369e+01   7.889823e+00   2.612874e+01   7.952409e+05  -7.055622e+04   3.433831e+05   1.863204e+01   2.100022e+02  -9.398565e-21   8.690790e+05   8.086206e-38   0.000000e+00   0.000000e+00
     3264000   3.263999e-05   2.605731e+01   7.884178e+00   2.615621e+01   7.952409e+05  -7.055622e+04   3.433831e+05   1.238582e+01   1.396009e+02   2.113441e-21   8.690790e+05   3.573622e-38   0.000000e+00   0.000000e+00
     3272000   3.271999e-05   2.612093e+01   7.878534e+00   2.618368e+01   7.952409e+05  -7.055622e+04   3.433831e+05   2.085280e+01   2.350325e+02   2.516846e-21   8.690790e+05   1.012892e-37   0.000000e+00   0.000000e+00
     3280000   3.279999e-05   2.618455e+01   7.872889e+00   2.621115e+01   7.952409e+05  -7.055622e+04   3.433831e+05   1.488693e+01   1.677910e+02   7.004242e-21   8.690790e+05   5.162599e-38   0.000000e+00   0.000000e+00
     3288000   3.287999e-05   2.624817e+01   7.867245e+00   2.623862e+01   7.952409e+05  -7.055622e+04   3.433831e+05   1.953509e+01   2.201805e+02   1.463149e-20   8.690790e+05   8.889133e-38   0.000000e+00   0.000000e+00
     3296000   3.295999e-05   2.631179e+01   7.861600e+00   2.626609e+01   7.952409e+05  -7.055622e+04   3.433831e+05   1.702085e+01   1.918424e+02  -9.157058e-21   8.690790e+05   6.748422e-38   0.000000e+00   0.000000e+00
     3304000   3.303999e-05   2.637541e+01   7.855956e+00   2.629356e+01   7.952409e+05  -7.055622e+04   3.433831e+05   1.660280e+01   1.871306e+02   4.188816e-21   8.690790e+05   6.421000e-38   0.000000e+00   0.000000e+00
     3312000   3.311999e-05   2.643903e+01   7.850311e+00   2.632103e+01   7.952409e+05  -7.055622e+04   3.433831e+05   1.645367e+01   1.854497e+02  -1.823816e-21   8.690790e+05   6.306085e-38   0.000000e+00   0.000000e+00
     3320000   3.319999e-05   2.650265e+01   7.844667e+00   2.634850e+01   7.952409e+05  -7.055622e+04   3.433831e+05   1.872480e+01   2.110477e+02   1.191211e-20   8.690790e+05   8.167079e-38   0.000000e+00   0.000000e+00
     3328000   3.327999e-05   2.656627e+01   7.839022e+00   2.637597e+01   7.952409e+05  -7.055622e+04   3.433831e+05   1.958053e+01   2.206926e+02  -1.752363e-20   8.690790e+05   8.930611e-38   0.000000e+00   0.000000e+00
     3336000   3.335999e-05   2.662988e+01   7.833378e+00   2.640344e+01   7.952409e+05  -7.055622e+04   3.433831e+05   1.659132e+01   1.870011e+02   1.096186e-20   8.690790e+05   6.412076e-38   0.000000e+00   0.000000e+00
     3344000   3.343999e-05   2.669350e+01   7.827733e+00   2.643091e+01   7.952409e+05  -7.055622e+04   3.433831e+05   1.663814e+01   1.875289e+02  -2.549317e-21   8.690790e+05   6.448321e-38   0.000000e+00   0.000000e+00
     3352000   3.351999e-05   2.675712e+01   7.822089e+00   2.645839e+01   7.952409e+05  -7.055622e+04   3.433831e+05   1.652302e+01   1.862314e+02   1.071526e-21   8.690790e+05   6.359385e-38   0.000000e+00   0.000000e+00
     3360000   3.359999e-05   2.682074e+01   7.816444e+00   2.648586e+01   7.952409e+05  -7.055622e+04   3.433831e+05   1.875811e+01   2.114232e+02   4.186922e-21   8.690790e+05   8.196248e-38   0.000000e+00   0.000000e+00
     3368000   3.367999e-05   2.688436e+01   7.810800e+00   2.651333e+01   7.952409e+05  -7.055622e+04   3.433831e+05   1.528326e+01   1.722580e+02  -1.406072e-20   8.690790e+05   5.441153e-38   0.000000e+00   0.000000e+00
     3376000   3.375999e-05   2.694798e+01   7.805155e+00   2.654080e+01   7.952409e+05  -7.055622e+04   3.433831e+05   1.592803e+01   1.795252e+02  -1.244341e-21   8.690790e+05   5.909601e-38   0.000000e+00   0.000000e+00
     3384000   3.383999e-05   2.701160e+01   7.799511e+00   2.656827e+01   7.952409e+05  -7.055622e+04   3.433831e+05   1.404866e+01   1.583428e+02   1.181916e-20   8.690790e+05   4.597540e-38   0.000000e+00   0.000000e+00
     3392000   3.391999e-05   2.707522e+01   7.793866e+00   2.659574e+01   7.952409e+05  -7.055622e+04   3.433831e+05   1.167301e+01   1.315668e+02   2.531047e-21   8.690790e+05   3.174132e-38   0.000000e+00   0.000000e+00
     3400000   3.399999e-05   2.713884e+01   7.788222e+00   2.662321e+01   7.952409e+05  -7.055622e+04   3.433831e+05   1.565619e+01   1.764613e+02  -9.646379e-21   8.690790e+05   5.709573e-38   0.000000e+00   0.000000e+00
     3408000   3.407999e-05   2.720246e+01   7.782577e+00   2.665068e+01   7.952409e+05  -7.055622e+04   3.433831e+05   1.605546e+01   1.809615e+02   8.033290e-21   8.690790e+05   6.004666e-38   0.000000e+00   0.000000e+00
     3416000   3.415999e-05   2.726608e+01   7.776933e+00   2.667815e+01   7.952409e+05  -7.055622e+04   3.433831e+05   1.514984e+01   1.707542e+02  -6.545703e-21   8.690790e+05   5.346379e-38   0.000000e+00   0.000000e+00
     3424000   3.423999e-05   2.732970e+01   7.771288e+00   2.670562e+01   7.952409e+05  -7.055622e+04   3.433831e+05   1.385236e+01   1.561303e+02   2.258659e-21   8.690790e+05   4.469814e-38   0.000000e+00   0.000000e+00
     3432000   3.431999e-05   2.739332e+01   7.765644e+00   2.673309e+01   7.952409e+05  -7.055622e+04   3.433831e+05   1.327756e+01   1.496517e+02  -1.912741e-21   8.690790e+05   4.106562e-38   0.000000e+00   0.000000e+00
     3440000   3.439999e-05   2.745694e+01   7.759999e+00   2.676056e+01   7.952409e+05  -7.055622e+04   3.433831e+05   1.488445e+01   1.677630e+02  -3.490314e-21   8.690790e+05   5.160604e-38   0.000000e+00   0.000000e+00
     3448000   3.447999e-05   2.752055e+01   7.754355e+00   2.678803e+01   7.952409e+05  -7.055622e+04   3.433831e+05   1.441137e+01   1.624310e+02   1.106022e-20   8.690790e+05   4.837901e-38   0.000000e+00   0.000000e+00
     3456000   3.455999e-05   2.758417e+01   7.748710e+00   2.681550e+01   7.952409e+05  -7.055622e+04   3.433831e+05   1.543469e+01   1.739648e+02   6.877806e-22   8.690790e+05   5.549252e-38   0.000000e+00   0.000000e+00
     3464000   3.463999e-05   2.764779e+01   7.743066e+00   2.684297e+01   7.952409e+05  -7.055622e+04   3.433831e+05   1.337228e+01   1.507193e+02   9.293891e-21   8.690790e+05   4.165283e-38   0.000000e+00   0.000000e+00
     3472000   3.471999e-05   2.771141e+01   7.737421e+00   2.687045e+01   7.952409e+05  -7.055622e+04   3.433831e+05   1.360936e+01   1.533915e+02   9.335112e-21   8.690790e+05   4.314548e-38   0.000000e+00   0.000000e+00
     3480000   3.479999e-05   2.777503e+01   7.731777e+00   2.689792e+01   7.952409e+05  -7.055622e+04   3.433831e+05   1.077957e+01   1.214968e+02  -4.816950e-21   8.690790e+05   2.706879e-38   0.000000e+00   0.000000e+00
     3488000   3.487999e-05   2.783865e+01   7.726132e+00   2.692539e+01   7.952409e+05  -7.055622e+04   3.433831e+05   1.218714e+01   1.373616e+02   5.263224e-21   8.690790e+05   3.459929e-38   0.000000e+00   0.000000e+00
     3496000   3.495999e-05   2.790227e+01   7.720488e+00   2.695286e+01   7.952409e+05  -7.055622e+04   3.433831e+05   1.194967e+01   1.346850e+02   6.978772e-22   8.690790e+05   3.325989e-38   0.000000e+00   0.000000e+00
     3504000   3.503999e-05   2.796589e+01   7.714843e+00   2.698033e+01   7.952409e+05  -7.055622e+04   3.433831e+05   1.502280e+01   1.693223e+02  -8.252442e-21   8.690790e+05   5.256742e-38   0.000000e+00   0.000000e+00
     3512000   3.511999e-05   2.802951e+01   7.709199e+00   2.700780e+01   7.952409e+05  -7.055622e+04   3.433831e+05   1.334318e+01   1.503913e+02  -5.181454e-21   8.690790e+05   4.147293e-38   0.000000e+00   0.000000e+00
     3520000   3.519999e-05   2.809313e+01   7.703554e+00   2.703527e+01   7.952409e+05  -7.055622e+04   3.433831e+05   1.222762e+01   1.378178e+02  -3.289607e-21   8.690790e+05   3.482820e-38   0.000000e+00   0.000000e+00
     3528000   3.527999e-05   2.815675e+01   7.697910e+00   2.706274e+01   7.952409e+05  -7.055622e+04   3.433831e+05   1.556700e+01   1.754561e+02  -1.838397e-21   8.690790e+05   5.644543e-38   0.000000e+00   0.000000e+00
     3536000   3.535999e-05   2.822037e+01   7.692265e+00   2.709021e+01   7.952409e+05  -7.055622e+04   3.433831e+05   9.460333e+00   1.066277e+02   9.938529e-21   8.690790e+05   2.084830e-38   0.000000e+00   0.000000e+00
     3544000   3.543999e-05   2.828399e+01   7.686621e+00   2.711768e+01   7.952409e+05  -7.055622e+04   3.433831e+05   1.556905e+01   1.754792e+02  -1.313042e-21   8.690790e+05   5.646096e-38   0.000000e+00   0.000000e+00
     3552000   3.551999e-05   2.834761e+01   7.680976e+00   2.714515e+01   7.952409e+05  -7.055622e+04   3.433831e+05   9.134370e+00   1.029537e+02   3.288096e-21   8.690790e+05   1.943603e-38   0.000000e+00   0.000000e+00
     3560000   3.559999e-05   2.841122e+01   7.675332e+00   2.717262e+01   7.952409e+05  -7.055622e+04   3.433831e+05   1.222977e+01   1.378421e+02  -1.014189e-21   8.690790e+05   3.483989e-38   0.000000e+00   0.000000e+00
     3568000   3.567999e-05   2.847484e+01   7.669687e+00   2.720009e+01   7.952409e+05  -7.055622e+04   3.433831e+05   8.691590e+00   9.796313e+01   6.746754e-21   8.690790e+05   1.759798e-38   0.000000e+00   0.000000e+00
     3576000   3.575999e-05   2.853846e+01   7.664043e+00   2.722756e+01   7.952409e+05  -7.055622e+04   3.433831e+05   1.353716e+01   1.525777e+02   2.875815e-21   8.690790e+05   4.268648e-38   0.000000e+00   0.000000e+00
     3584000   3.583999e-05   2.860208e+01   7.658398e+00   2.725503e+01   7.952409e+05  -7.055622e+04   3.433831e+05   9.586607e+00   1.080509e+02   1.737442e-21   8.690790e+05   2.140786e-38   0.000000e+00   0.000000e+00
     3592000   3.591999e-05   2.866570e+01   7.652754e+00   2.728251e+01   7.952409e+05  -7.055622e+04   3.433831e+05   9.036065e+00   1.018457e+02   4.147283e-21   8.690790e+05   1.901965e-38   0.000000e+00   0.000000e+00
     3600000   3.599999e-05   2.872932e+01   7.647109e+00   2.730998e+01   7.952409e+05  -7.055622e+04   3.433831e+05   9.569763e+00   1.078610e+02  -5.612799e-21   8.690790e+05   2.133270e-38   0.000000e+00   0.000000e+00
     3608000   3.607999e-05   2.879294e+01   7.641465e+00   2.733745e+01   7.952409e+05  -7.055622e+04   3.433831e+05   9.027871e+00   1.017534e+02   1.728463e-20   8.690790e+05   1.898517e-38   0.000000e+00   0.000000e+00
     3616000   3.615999e-05   2.885656e+01   7.635820e+00   2.736492e+01   7.952409e+05  -7.055622e+04   3.433831e+05   1.104212e+01   1.244560e+02  -9.739299e-21   8.690790e+05   2.840198e-38   0.000000e+00   0.000000e+00
     3624000   3.623999e-05   2.892018e+01   7.630176e+00   2.739239e+01   7.952409e+05  -7.055622e+04   3.433831e+05   8.779078e+00   9.894921e+01  -1.099013e-21   8.690790e+05   1.795370e-38   0.000000e+00   0.000000e+00
     3632000   3.631999e-05   2.898380e+01   7.624531e+00   2.741986e+01   7.952409e+05  -7.055622e+04   3.433831e+05   1.029196e+01   1.160010e+02   1.168202e-21   8.690790e+05   2.467316e-38   0.000000e+00   0.000000e+00
     3640000   3.639999e-05   2.904742e+01   7.618887e+00   2.744733e+01   7.952409e+05  -7.055622e+04   3.433831e+05   8.750307e+00   9.862494e+01   5.689244e-21   8.690790e+05   1.783619e-38   0.000000e+00   0.000000e+00
     3648000   3.647999e-05   2.911104e+01   7.613242e+00   2.747480e+01   7.952409e+05  -7.055622e+04   3.433831e+05   8.683867e+00   9.787608e+01   7.722594e-21   8.690790e+05   1.756479e-38   0.000000e+00   0.000000e+00
     3656000   3.655999e-05   2.917466e+01   7.607598e+00   2.750227e+01   7.952409e+05  -7.055622e+04   3.433831e+05   1.000552e+01   1.127724e+02  -1.293095e-21   8.690790e+05   2.331840e-38   0.000000e+00   0.000000e+00
     3664000   3.663999e-05   2.923827e+01   7.601953e+00   2.752974e+01   7.952409e+05  -7.055622e+04   3.433831e+05   9.935766e+00   1.119863e+02  -3.990500e-21   8.690790e+05   2.299599e-38   0.000000e+00   0.000000e+00
     3672000   3.671999e-05   2.930189e+01   7.596309e+00   2.755721e+01   7.952409e+05  -7.055622e+04   3.433831e+05   8.394819e+00   9.461822e+01   4.892156e-22   8.690790e+05   1.641567e-38   0.000000e+00   0.000000e+00
     3680000   3.679999e-05   2.936551e+01   7.590664e+00   2.758468e+01   7.952409e+05  -7.055622e+04   3.433831e+05   8.494098e+00   9.573719e+01   4.749437e-21   8.690790e+05   1.680624e-38   0.000000e+00   0.000000e+00
     3688000   3.687999e-05   2.942913e+01   7.585020e+00   2.761215e+01   7.952409e+05  -7.055622e+04   3.433831e+05   9.437247e+00   1.063675e+02   2.393646e-21   8.690790e+05   2.074610e-38   0.000000e+00   0.000000e+00
     3696000   3.695999e-05   2.949275e+01   7.579375e+00   2.763962e+01   7.952409e+05  -7.055622e+04   3.433831e+05   8.700348e+00   9.806184e+01  -1.229195e-21   8.690790e+05   1.763273e-38   0.000000e+00   0.000000e+00
     3704000   3.703999e-05   2.955637e+01   7.573731e+00   2.766709e+01   7.952409e+05  -7.055622e+04   3.433831e+05   9.755148e+00   1.099505e+02  -6.299147e-21   8.690790e+05   2.216458e-38   0.000000e+00   0.000000e+00
     3712000   3.711999e-05   2.961999e+01   7.568086e+00   2.769456e+01   7.952409e+05  -7.055622e+04   3.433831e+05   6.199335e+00   6.987287e+01   1.029030e-21   8.690790e+05   8.953781e-39   0.000000e+00   0.000000e+00
     3720000   3.719999e-05   2.968361e+01   7.562442e+00   2.772204e+01   7.952409e+05  -7.055622e+04   3.433831e+05   6.458512e+00   7.279405e+01  -1.400843e-21   8.690790e+05   9.717009e-39   0.000000e+00   0.000000e+00
     3728000   3.727999e-05   2.974723e+01   7.556797e+00   2.774951e+01   7.952409e+05  -7.055622e+04   3.433831e+05   7.372216e+00   8.309243e+01  -8.496197e-22   8.690790e+05   1.265974e-38   0.000000e+00   0.000000e+00
     3736000   3.735999e-05   2.981085e+01   7.551153e+00   2.777698e+01   7.952409e+05  -7.055622e+04   3.433831e+05   6.081247e+00   6.854190e+01   7.400639e-22   8.690790e+05   8.614290e-39   0.000000e+00   0.000000e+00
     3744000   3.743999e-05   2.987447e+01   7.545508e+00   2.780445e+01   7.952409e+05  -7.055622e+04   3.433831e+05   6.525009e+00   7.354355e+01   3.431423e-21   8.690790e+05   9.917413e-39   0.000000e+00   0.000000e+00
     3752000   3.751999e-05   2.993809e+01   7.539864e+00   2.783192e+01   7.952409e+05  -7.055622e+04   3.433831e+05   7.584892e+00   8.548951e+01   3.007297e-21   8.690790e+05   1.340015e-38   0.000000e+00   0.000000e+00
     3760000   3.759999e-05   3.000171e+01   7.534219e+00   2.785939e+01   7.952409e+05  -7.055622e+04   3.433831e+05   6.484402e+00   7.308586e+01   1.362495e-21   8.690790e+05   9.794879e-39   0.000000e+00   0.000000e+00
     3768000   3.767999e-05   3.006533e+01   7.528575e+00   2.788686e+01   7.952409e+05  -7.055622e+04   3.433831e+05   5.174795e+00   5.832524e+01   3.782659e-21   8.690790e+05   6.238081e-39   0.000000e+00   0.000000e+00
     3776000   3.775999e-05   3.012894e+01   7.522930e+00   2.791433e+01   7.952409e+05  -7.055622e+04   3.433831e+05   5.725620e+00   6.453361e+01  -2.912957e-21   8.690790e+05   7.636726e-39   0.000000e+00   0.000000e+00
     3784000   3.783999e-05   3.019256e+01   7.517286e+00   2.794180e+01   7.952409e+05  -7.055622e+04   3.433831e+05   4.411742e+00   4.972485e+01  -2.395277e-21   8.690790e+05   4.534086e-39   0.000000e+00   0.000000e+00
     3792000   3.791999e-05   3.025618e+01   7.511641e+00   2.796927e+01   7.952409e+05  -7.055622e+04   3.433831e+05   5.051026e+00   5.693024e+01   3.035304e-21   8.690790e+05   5.942649e-39   0.000000e+00   0.000000e+00
     3800000   3.799999e-05   3.031980e+01   7.505997e+00   2.799674e+01   7.952409e+05  -7.055622e+04   3.433831e+05   5.589605e+00   6.300058e+01   1.142738e-21   8.690790e+05   7.277976e-39   0.000000e+00   0.000000e+00
     3808000   3.807999e-05   3.038342e+01   7.500352e+00   2.802421e+01   7.952409e+05  -7.055622e+04   3.433831e+05   6.115397e+00   6.892680e+01  -1.323431e-21   8.690790e+05   8.711230e-39   0.000000e+00   0.000000e+00
     3816000   3.815999e-05   3.044704e+01   7.494708e+00   2.805168e+01   7.952409e+05  -7.055622e+04   3.433831e+05   6.413940e+00   7.229168e+01   1.237097e-21   8.690790e+05   9.582584e-39   0.000000e+00   0.000000e+00
     3824000   3.823999e-05   3.051066e+01   7.489063e+00   2.807915e+01   7.952409e+05  -7.055622e+04   3.433831e+05   4.560002e+00   5.139590e+01   7.731705e-22   8.690790e+05   4.843801e-39   0.000000e+00   0.000000e+00
     3832000   3.831999e-05   3.057428e+01   7.483419e+00   2.810662e+01   7.952409e+05  -7.055622e+04   3.433831e+05   3.995477e+00   4.503312e+01  -9.846383e-22   8.690790e+05   3.718792e-39   0.000000e+00   0.000000e+00
     3840000   3.839999e-05   3.063790e+01   7.477774e+00   2.813410e+01   7.952409e+05  -7.055622e+04   3.433831e+05   2.227591e+00   2.510724e+01  -1.302838e-21   8.690790e+05   1.155794e-39   0.000000e+00   0.000000e+00
     3848000   3.847999e-05   3.070152e+01   7.472130e+00   2.816157e+01   7.952409e+05  -7.055622e+04   3.433831e+05   6.304095e+00   7.105362e+01  -2.461385e-21   8.690790e+05   9.257378e-39   0.000000e+00   0.000000e+00
     3856000   3.855999e-05   3.076514e+01   7.466485e+00   2.818904e+01   7.952409e+05  -7.055622e+04   3.433831e+05   6.000893e+00   6.763621e+01  -1.827808e-21   8.690790e+05   8.388310e-39   0.000000e+00   0.000000e+00
     3864000   3.863999e-05   3.082876e+01   7.460841e+00   2.821651e+01   7.952409e+05  -7.055622e+04   3.433831e+05   3.703150e+00   4.173830e+01  -1.820114e-21   8.690790e+05   3.194256e-39   0.000000e+00   0.000000e+00
     3872000   3.871999e-05   3.089238e+01   7.455196e+00   2.824398e+01   7.952409e+05  -7.055622e+04   3.433831e+05   4.048583e+00   4.563168e+01  -7.429243e-23   8.690790e+05   3.817984e-39   0.000000e+00   0.000000e+00
     3880000   3.879999e-05   3.095600e+01   7.449552e+00   2.827145e+01   7.952409e+05  -7.055622e+04   3.433831e+05   2.737901e+00   3.085895e+01  -1.195869e-21   8.690790e+05   1.746138e-39   0.000000e+00   0.000000e+00
     3888000   3.887999e-05   3.101961e+01   7.443907e+00   2.829892e+01   7.952409e+05  -7.055622e+04   3.433831e+05   3.891174e+00   4.385752e+01  -9.383875e-22   8.690790e+05   3.526791e-39   0.000000e+00   0.000000e+00
     3896000   3.895999e-05   3.108323e+01   7.438263e+00   2.832639e+01   7.952409e+05  -7.055622e+04   3.433831e+05   1.651167e+00   1.861035e+01   7.966862e-22   8.690790e+05   6.351839e-40   0.000000e+00   0.000000e+00
     3904000   3.903999e-05   3.114685e+01   7.432618e+00   2.835386e+01   7.952409e+05  -7.055622e+04   3.433831e+05   2.928951e+00   3.301229e+01  -1.942093e-21   8.690790e+05   1.998295e-39   0.000000e+00   0.000000e+00
     3912000   3.911999e-05   3.121047e+01   7.426974e+00   2.838133e+01   7.952409e+05  -7.055622e+04   3.433831e+05   1.682276e+00   1.896098e+01  -1.132863e-21   8.690790e+05   6.592468e-40   0.000000e+00   0.000000e+00
     3920000   3.919999e-05   3.127409e+01   7.421329e+00   2.840880e+01   7.952409e+05  -7.055622e+04   3.433831e+05   1.807696e+00   2.037459e+01  -2.061821e-21   8.690790e+05   7.611546e-40   0.000000e+00   0.000000e+00
     3928000   3.927999e-05   3.133771e+01   7.415685e+00   2.843627e+01   7.952409e+05  -7.055622e+04   3.433831e+05   1.009905e+00   1.138267e+01  -7.177717e-22   8.690790e+05   2.376343e-40   0.000000e+00   0.000000e+00
     3936000   3.935999e-05   3.140133e+01   7.410040e+00   2.846374e+01   7.952409e+05  -7.055622e+04   3.433831e+05   1.024603e+00   1.154833e+01  -3.994757e-22   8.690790e+05   2.444082e-40   0.000000e+00   0.000000e+00
     3944000   3.943999e-05   3.146495e+01   7.404396e+00   2.849121e+01   7.952409e+05  -7.055622e+04   3.433831e+05   3.222692e+00   3.632304e+01   1.733404e-21   8.690790e+05   2.418805e-39   0.000000e+00   0.000000e+00
     3952000   3.951999e-05   3.152857e+01   7.398751e+00   2.851868e+01   7.952409e+05  -7.055622e+04   3.433831e+05   6.088817e-01   6.862721e+00  -2.514874e-22   8.690790e+05   8.642594e-41   0.000000e+00   0.000000e+00
     3960000   3.959999e-05   3.159219e+01   7.393107e+00   2.854615e+01   7.952409e+05  -7.055622e+04   3.433831e+05  -1.304230e+00  -1.470001e+01   3.163856e-22   8.690790e+05   3.960830e-40   0.000000e+00   0.000000e+00
     3968000   3.967999e-05   3.165581e+01   7.387462e+00   2.857363e+01   7.952409e+05  -7.055622e+04   3.433831e+05   3.603311e+00   4.061302e+01  -1.301111e-21   8.690790e+05   3.024044e-39   0.000000e+00   0.000000e+00
     3976000   3.975999e-05   3.171943e+01   7.381818e+00   2.860110e+01   7.952409e+05  -7.055622e+04   3.433831e+05  -4.518782e-01  -5.093131e+00   4.614559e-22   8.690790e+05   4.755645e-41   0.000000e+00   0.000000e+00
     3984000   3.983999e-05   3.178305e+01   7.376173e+00   2.862857e+01   7.952409e+05  -7.055622e+04   3.433831e+05  -7.455959e-01  -8.403630e+00  -1.471866e-22   8.690790e+05   1.294796e-40   0.000000e+00   0.000000e+00
     3992000   3.991999e-05   3.184667e+01   7.370529e+00   2.865604e+01   7.952409e+05  -7.055622e+04   3.433831e+05  -6.140455e-01  -6.920923e+00  -7.525189e-22   8.690790e+05   8.781122e-41   0.000000e+00   0.000000e+00
     4000000   3.999999e-05   3.191028e+01   7.364884e+00   2.868351e+01   7.952409e+05  -7.055622e+04   3.433831e+05   1.123944e+00   1.266800e+01   2.318759e-22   8.690790e+05   2.941214e-40   0.000000e+00   0.000000e+00
     4008000   4.007999e-05   3.197390e+01   7.359240e+00   2.871098e+01   7.952409e+05  -7.055622e+04   3.433831e+05  -4.572752e-01  -5.153960e+00  -6.727744e-24   8.690790e+05   4.867920e-41   0.000000e+00   0.000000e+00
     4016000   4.015999e-05   3.203752e+01   7.353595e+00   2.873845e+01   7.952409e+05  -7.055622e+04   3.433831e+05   1.581872e+00   1.782932e+01  -2.396881e-22   8.690790e+05   5.828381e-40   0.000000e+00   0.000000e+00
     4024000   4.023999e-05   3.210114e+01   7.347951e+00   2.876592e+01   7.952409e+05  -7.055622e+04   3.433831e+05  -8.173968e-01  -9.212900e+00   4.701968e-23   8.690790e+05   1.556140e-40   0.000000e+00   0.000000e+00
     4032000   4.031999e-05   3.216476e+01   7.342306e+00   2.879339e+01   7.952409e+05  -7.055622e+04   3.433831e+05  -1.226625e+00  -1.382532e+01  -8.150183e-22   8.690790e+05   3.504488e-40   0.000000e+00   0.000000e+00
     4040000   4.039999e-05   3.222838e+01   7.336662e+00   2.882086e+01   7.952409e+05  -7.055622e+04   3.433831e+05  -5.566742e-02  -6.274289e-01  -5.308652e-23   8.690790e+05   7.163538e-43   0.000000e+00   0.000000e+00
     4048000   4.047999e-05   3.229200e+01   7.331017e+00   2.884833e+01   7.952409e+05  -7.055622e+04   3.433831e+05  -1.750477e+00  -1.972967e+01  -3.514987e-22   8.690790e+05   7.135835e-40   0.000000e+00   0.000000e+00
     4056000   4.055999e-05   3.235562e+01   7.325373e+00   2.887580e+01   7.952409e+05  -7.055622e+04   3.433831e+05  -9.135669e-01  -1.029684e+01   1.196819e-22   8.690790e+05   1.944474e-40   0.000000e+00   0.000000e+00
     4064000   4.063999e-05   3.241924e+01   7.319728e+00   2.890327e+01   7.952409e+05  -7.055622e+04   3.433831e+05   5.431940e-01   6.122353e+00   1.848562e-22   8.690790e+05   6.873347e-41   0.000000e+00   0.000000e+00
     4072000   4.071999e-05   3.248286e+01   7.314084e+00   2.893074e+01   7.952409e+05  -7.055622e+04   3.433831e+05   4.376134e-01   4.932352e+00   7.302698e-23   8.690790e+05   4.461128e-41   0.000000e+00   0.000000e+00
     4080000   4.079999e-05   3.254648e+01   7.308439e+00   2.895821e+01   7.952409e+05  -7.055622e+04   3.433831e+05  -1.131046e+00  -1.274804e+01   2.215619e-22   8.690790e+05   2.979228e-40   0.000000e+00   0.000000e+00
     4088000   4.087999e-05   3.261010e+01   7.302795e+00   2.898569e+01   7.952409e+05  -7.055622e+04   3.433831e+05   2.488601e-01   2.804909e+00  -1.467802e-25   8.690790e+05   1.444092e-41   0.000000e+00   0.000000e+00
     4096000   4.095999e-05   3.267372e+01   7.297150e+00   2.901316e+01   7.952409e+05  -7.055622e+04   3.433831e+05   1.468418e+00   1.655057e+01   2.131579e-23   8.690790e+05   5.022124e-40   0.000000e+00   0.000000e+00
     4104000   4.103999e-05   3.273733e+01   7.291506e+00   2.904063e+01   7.952409e+05  -7.055622e+04   3.433831e+05  -1.337562e+00  -1.507569e+01  -1.730986e-22   8.690790e+05   4.168661e-40   0.000000e+00   0.000000e+00
     4112000   4.111999e-05   3.280095e+01   7.285861e+00   2.906810e+01   7.952409e+05  -7.055622e+04   3.433831e+05  -3.110558e+00  -3.505918e+01  -1.823566e-21   8.690790e+05   2.253480e-39   0.000000e+00   0.000000e+00
     4120000   4.119999e-05   3.286457e+01   7.280217e+00   2.909557e+01   7.952409e+05  -7.055622e+04   3.433831e+05  -4.832799e+00  -5.447060e+01  -1.847559e-21   8.690790e+05   5.439963e-39   0.000000e+00   0.000000e+00
     4128000   4.127999e-05   3.292819e+01   7.274572e+00   2.912304e+01   7.952409e+05  -7.055622e+04   3.433831e+05  -2.638475e+00  -2.973832e+01  -3.366731e-23   8.690790e+05   1.621403e-39   0.000000e+00   0.000000e+00
     4136000   4.135999e-05   3.299181e+01   7.268928e+00   2.915051e+01   7.952409e+05  -7.055622e+04   3.433831e+05  -3.908699e+00  -4.405505e+01   1.478797e-21   8.690790e+05   3.558496e-39   0.000000e+00   0.000000e+00
     4144000   4.143999e-05   3.305543e+01   7.263283e+00   2.917798e+01   7.952409e+05  -7.055622e+04   3.433831e+05   3.845425e-01   4.334189e+00  -1.811134e-22   8.690790e+05   3.442283e-41   0.000000e+00   0.000000e+00
     4152000   4.151999e-05   3.311905e+01   7.257639e+00   2.920545e+01   7.952409e+05  -7.055622e+04   3.433831e+05  -1.449046e+00  -1.633223e+01  -5.368347e-22   8.690790e+05   4.891929e-40   0.000000e+00   0.000000e+00
     4160000   4.159999e-05   3.318267e+01   7.251994e+00   2.923292e+01   7.952409e+05  -7.055622e+04   3.433831e+05  -4.002181e-01  -4.510869e+00   4.146915e-22   8.690790e+05   3.733492e-41   0.000000e+00   0.000000e+00
     4168000   4.167999e-05   3.324629e+01   7.246350e+00   2.926039e+01   7.952409e+05  -7.055622e+04   3.433831e+05  -3.402835e+00  -3.835344e+01   5.387273e-22   8.690790e+05   2.696674e-39   0.000000e+00   0.000000e+00
     4176000   4.175999e-05   3.330991e+01   7.240705e+00   2.928786e+01   7.952409e+05  -7.055622e+04   3.433831e+05  -1.168979e+00  -1.317559e+01   8.052255e-23   8.690790e+05   3.184136e-40   0.000000e+00   0.000000e+00
     4184000   4.183999e-05   3.337353e+01   7.235061e+00   2.931533e+01   7.952409e+05  -7.055622e+04   3.433831e+05  -2.496235e+00  -2.813513e+01   1.462970e-22   8.690790e+05   1.451289e-39   0.000000e+00   0.000000e+00
     4192000   4.191999e-05   3.343715e+01   7.229416e+00   2.934280e+01   7.952409e+05  -7.055622e+04   3.433831e+05  -2.253157e+00  -2.539539e+01   7.709450e-22   8.690790e+05   1.182763e-39   0.000000e+00   0.000000e+00
     4200000   4.199999e-05   3.350077e+01   7.223772e+00   2.937027e+01   7.952409e+05  -7.055622e+04   3.433831e+05  -7.857915e-01  -8.856676e+00   9.063498e-23   8.690790e+05   1.437901e-40   0.000000e+00   0.000000e+00
     4208000   4.207999e-05   3.356439e+01   7.218127e+00   2.939775e+01   7.952409e+05  -7.055622e+04   3.433831e+05  -1.674614e+00  -1.887461e+01  -1.693848e-21   8.690790e+05   6.531440e-40   0.000000e+00   0.000000e+00
     4216000   4.215999e-05   3.362800e+01   7.212483e+00   2.942522e+01   7.952409e+05  -7.055622e+04   3.433831e+05  -2.460818e+00  -2.773594e+01   8.364392e-22   8.690790e+05   1.410506e-39   0.000000e+00   0.000000e+00
     4224000   4.223999e-05   3.369162e+01   7.206838e+00   2.945269e+01   7.952409e+05  -7.055622e+04   3.433831e+05  -2.944153e+00  -3.318363e+01   1.196401e-22   8.690790e+05   2.019018e-39   0.000000e+00   0.000000e+00
     4232000   4.231999e-05   3.375524e+01   7.201194e+00   2.948016e+01   7.952409e+05  -7.055622e+04   3.433831e+05  -2.106865e+00  -2.374653e+01   1.981176e-21   8.690790e+05   1.033973e-39   0.000000e+00   0.000000e+00
     4240000   4.239999e-05   3.381886e+01   7.195549e+00   2.950763e+01   7.952409e+05  -7.055622e+04   3.433831e+05  -4.575067e+00  -5.156569e+01  -2.955215e-22   8.690790e+05   4.875840e-39   0.000000e+00   0.000000e+00
     4248000   4.247999e-05   3.388248e+01   7.189905e+00   2.953510e+01   7.952409e+05  -7.055622e+04   3.433831e+05  -3.845402e+00  -4.334163e+01  -1.559469e-21   8.690790e+05   3.444621e-39   0.000000e+00   0.000000e+00
     4256000   4.255999e-05   3.394610e+01   7.184260e+00   2.956257e+01   7.952409e+05  -7.055622e+04   3.433831e+05  -3.481396e+00  -3.923890e+01   4.769102e-21   8.690790e+05   2.823078e-39   0.000000e+00   0.000000e+00
     4264000   4.263999e-05   3.400972e+01   7.178616e+00   2.959004e+01   7.952409e+05  -7.055622e+04   3.433831e+05  -3.960497e+00  -4.463886e+01   1.194825e-21   8.690790e+05   3.653202e-39   0.000000e+00   0.000000e+00
     4272000   4.271999e-05   3.407334e+01   7.172971e+00   2.961751e+01   7.952409e+05  -7.055622e+04   3.433831e+05  -2.082139e+00  -2.346785e+01   8.496099e-22   8.690790e+05   1.009862e-39   0.000000e+00   0.000000e+00
     4280000   4.279999e-05   3.413696e+01   7.167327e+00   2.964498e+01   7.952409e+05  -7.055622e+04   3.433831e+05  -2.938869e+00  -3.846516e+01  -1.097455e+00   8.690790e+05   2.709749e-39   0.000000e+00   0.000000e+00
     4288000   4.287999e-05   3.420058e+01   7.161682e+00   2.967245e+01   7.952409e+05  -7.055622e+04   3.433831e+05  -1.725123e+00  -1.944390e+01   4.395135e-22   8.690790e+05   6.932484e-40   0.000000e+00   0.000000e+00
