     timestep     time              x             y              z              vx             vy             vz             ax             ay             az         v_magnitude      ELoss        Electronic      Nuclear
           0   0.000000e+00   1.000000e-01   1.859807e+01   1.606763e+01   7.466147e+05   1.392828e+06   9.289634e+05   0.000000e+00   0.000000e+00   0.000000e+00   1.833133e+06   0.000000e+00   0.000000e+00   0.000000e+00
        8000   7.999000e-08   1.597292e-01   1.870950e+01   1.614195e+01   7.466147e+05   1.392828e+06   9.289634e+05   0.000000e+00   0.000000e+00   0.000000e+00   1.833133e+06   0.000000e+00   0.000000e+00   0.000000e+00
       16000   1.599900e-07   2.194584e-01   1.882093e+01   1.621626e+01   7.466147e+05   1.392828e+06   9.289634e+05   0.000000e+00   0.000000e+00   0.000000e+00   1.833133e+06   0.000000e+00   0.000000e+00   0.000000e+00
       24000   2.399900e-07   2.791875e-01   1.893235e+01   1.629058e+01   7.466147e+05   1.392828e+06   9.289634e+05   0.000000e+00   0.000000e+00   0.000000e+00   1.833133e+06   0.000000e+00   0.000000e+00   0.000000e+00
       32000   3.199900e-07   3.389167e-01   1.904378e+01   1.636490e+01   7.466147e+05   1.392828e+06   9.289634e+05   0.000000e+00   0.000000e+00   0.000000e+00   1.833133e+06   0.000000e+00   0.000000e+00   0.000000e+00
       40000   3.999900e-07   3.986459e-01   1.915520e+01   1.643921e+01   7.466147e+05   1.392828e+06   9.289634e+05   0.000000e+00   0.000000e+00   0.000000e+00   1.833133e+06   0.000000e+00   0.000000e+00   0.000000e+00
       48000   4.799900e-07   4.583751e-01   1.926663e+01   1.651353e+01   7.466147e+05   1.392828e+06   9.289634e+05   0.000000e+00   0.000000e+00   0.000000e+00   1.833133e+06   0.000000e+00   0.000000e+00   0.000000e+00
       56000   5.599900e-07   5.181042e-01   1.937806e+01   1.658785e+01   7.466147e+05   1.392828e+06   9.289634e+05   0.000000e+00   0.000000e+00   0.000000e+00   1.833133e+06   0.000000e+00   0.000000e+00   0.000000e+00
       64000   6.399900e-07   5.778334e-01   1.948948e+01   1.666216e+01   7.466147e+05   1.392828e+06   9.289634e+05   0.000000e+00   0.000000e+00   0.000000e+00   1.833133e+06   0.000000e+00   0.000000e+00   0.000000e+00
       72000   7.199900e-07   6.375626e-01   1.960091e+01   1.673648e+01   7.466147e+05   1.392828e+06   9.289634e+05   0.000000e+00   0.000000e+00   0.000000e+00   1.833133e+06   0.000000e+00   0.000000e+00   0.000000e+00
       80000   7.999900e-07   6.972918e-01   1.971234e+01   1.681080e+01   7.466147e+05   1.392828e+06   9.289634e+05   0.000000e+00   0.000000e+00   0.000000e+00   1.833133e+06   0.000000e+00   0.000000e+00   0.000000e+00
       88000   8.799900e-07   7.570210e-01   1.982376e+01   1.688512e+01   7.466147e+05   1.392828e+06   9.289634e+05   0.000000e+00   0.000000e+00   0.000000e+00   1.833133e+06   0.000000e+00   0.000000e+00   0.000000e+00
       96000   9.599900e-07   8.167501e-01   1.993519e+01   1.695943e+01   7.466147e+05   1.392828e+06   9.289634e+05   0.000000e+00   0.000000e+00   0.000000e+00   1.833133e+06   0.000000e+00   0.000000e+00   0.000000e+00
      104000   1.039990e-06   8.764793e-01   2.004661e+01   1.703375e+01   7.466147e+05   1.392828e+06   9.289634e+05   0.000000e+00   0.000000e+00   0.000000e+00   1.833133e+06   0.000000e+00   0.000000e+00   0.000000e+00
      112000   1.119990e-06   9.362085e-01   2.015804e+01   1.710807e+01   7.466147e+05   1.392828e+06   9.289634e+05   0.000000e+00   0.000000e+00   0.000000e+00   1.833133e+06   0.000000e+00   0.000000e+00   0.000000e+00
      120000   1.199990e-06   9.959377e-01   2.026947e+01   1.718238e+01   7.466147e+05   1.392828e+06   9.289634e+05   0.000000e+00   0.000000e+00   0.000000e+00   1.833133e+06   0.000000e+00   0.000000e+00   0.000000e+00
      128000   1.279990e-06   1.055667e+00   2.038089e+01   1.725670e+01   7.466147e+05   1.392828e+06   9.289634e+05   0.000000e+00   0.000000e+00   0.000000e+00   1.833133e+06   0.000000e+00   0.000000e+00   0.000000e+00
      136000   1.359990e-06   1.115396e+00   2.049232e+01   1.733102e+01   7.466147e+05   1.392828e+06   9.289634e+05   0.000000e+00   0.000000e+00   0.000000e+00   1.833133e+06   0.000000e+00   0.000000e+00   0.000000e+00
      144000   1.439990e-06   1.175125e+00   2.060374e+01   1.740534e+01   7.466147e+05   1.392828e+06   9.289634e+05   0.000000e+00   0.000000e+00   0.000000e+00   1.833133e+06   0.000000e+00   0.000000e+00   0.000000e+00
      152000   1.519990e-06   1.234854e+00   2.071517e+01   1.747965e+01   7.466147e+05   1.392828e+06   9.289634e+05   0.000000e+00   0.000000e+00   0.000000e+00   1.833133e+06   0.000000e+00   0.000000e+00   0.000000e+00
      160000   1.599990e-06   1.294584e+00   2.082660e+01   1.755397e+01   7.466147e+05   1.392828e+06   9.289634e+05   0.000000e+00   0.000000e+00   0.000000e+00   1.833133e+06   0.000000e+00   0.000000e+00   0.000000e+00
      168000   1.679990e-06   1.354313e+00   2.093802e+01   1.762829e+01   7.466147e+05   1.392828e+06   9.289634e+05   0.000000e+00   0.000000e+00   0.000000e+00   1.833133e+06   0.000000e+00   0.000000e+00   0.000000e+00
      176000   1.759990e-06   1.414042e+00   2.104945e+01   1.770260e+01   7.466147e+05   1.392828e+06   9.289634e+05   0.000000e+00   0.000000e+00   0.000000e+00   1.833133e+06   0.000000e+00   0.000000e+00   0.000000e+00
      184000   1.839990e-06   1.473771e+00   2.116088e+01   1.777692e+01   7.466147e+05   1.392828e+06   9.289634e+05   0.000000e+00   0.000000e+00   0.000000e+00   1.833133e+06   0.000000e+00   0.000000e+00   0.000000e+00
      192000   1.919990e-06   1.533500e+00   2.127230e+01   1.785124e+01   7.466147e+05   1.392828e+06   9.289634e+05   0.000000e+00   0.000000e+00   0.000000e+00   1.833133e+06   0.000000e+00   0.000000e+00   0.000000e+00
      200000   1.999990e-06   1.593229e+00   2.138373e+01   1.792555e+01   7.466147e+05   1.392828e+06   9.289634e+05   0.000000e+00   0.000000e+00   0.000000e+00   1.833133e+06   0.000000e+00   0.000000e+00   0.000000e+00
      208000   2.079990e-06   1.652959e+00   2.149515e+01   1.799987e+01   7.466147e+05   1.392828e+06   9.289634e+05   0.000000e+00   0.000000e+00   0.000000e+00   1.833133e+06   0.000000e+00   0.000000e+00   0.000000e+00
      216000   2.159990e-06   1.712688e+00   2.160658e+01   1.807419e+01   7.466147e+05   1.392828e+06   9.289634e+05   0.000000e+00   0.000000e+00   0.000000e+00   1.833133e+06   0.000000e+00   0.000000e+00   0.000000e+00
      224000   2.239990e-06   1.772417e+00   2.171801e+01   1.814851e+01   7.466147e+05   1.392828e+06   9.289634e+05   0.000000e+00   0.000000e+00   0.000000e+00   1.833133e+06   0.000000e+00   0.000000e+00   0.000000e+00
      232000   2.319990e-06   1.832146e+00   2.182943e+01   1.822282e+01   7.466147e+05   1.392828e+06   9.289634e+05   0.000000e+00   0.000000e+00   0.000000e+00   1.833133e+06   0.000000e+00   0.000000e+00   0.000000e+00
      240000   2.399990e-06   1.891875e+00   2.194086e+01   1.829714e+01   7.466147e+05   1.392828e+06   9.289634e+05   0.000000e+00   0.000000e+00   0.000000e+00   1.833133e+06   0.000000e+00   0.000000e+00   0.000000e+00
      248000   2.479990e-06   1.951605e+00   2.205229e+01   1.837146e+01   7.466147e+05   1.392828e+06   9.289634e+05   0.000000e+00   0.000000e+00   0.000000e+00   1.833133e+06   0.000000e+00   0.000000e+00   0.000000e+00
      256000   2.559990e-06   2.011334e+00   2.216371e+01   1.844577e+01   7.466147e+05   1.392828e+06   9.289634e+05   0.000000e+00   0.000000e+00   0.000000e+00   1.833133e+06   0.000000e+00   0.000000e+00   0.000000e+00
      264000   2.639990e-06   2.071063e+00   2.227514e+01   1.852009e+01   7.466147e+05   1.392828e+06   9.289634e+05   0.000000e+00   0.000000e+00   0.000000e+00   1.833133e+06   0.000000e+00   0.000000e+00   0.000000e+00
      272000   2.719990e-06   2.130792e+00   2.238656e+01   1.859441e+01   7.466147e+05   1.392828e+06   9.289634e+05   0.000000e+00   0.000000e+00   0.000000e+00   1.833133e+06   0.000000e+00   0.000000e+00   0.000000e+00
      280000   2.799990e-06   2.190521e+00   2.249799e+01   1.866873e+01   7.466147e+05   1.392828e+06   9.289634e+05   0.000000e+00   0.000000e+00   0.000000e+00   1.833133e+06   0.000000e+00   0.000000e+00   0.000000e+00
      288000   2.879990e-06   2.250250e+00   2.260942e+01   1.874304e+01   7.466147e+05   1.392828e+06   9.289634e+05   0.000000e+00   0.000000e+00   0.000000e+00   1.833133e+06   0.000000e+00   0.000000e+00   0.000000e+00
      296000   2.959990e-06   2.309980e+00   2.272084e+01   1.881736e+01   7.466147e+05   1.392828e+06   9.289634e+05   0.000000e+00   0.000000e+00   0.000000e+00   1.833133e+06   0.000000e+00   0.000000e+00   0.000000e+00
      304000   3.039990e-06   2.369709e+00   2.283227e+01   1.889168e+01   7.466147e+05   1.392828e+06   9.289634e+05   0.000000e+00   0.000000e+00   0.000000e+00   1.833133e+06   0.000000e+00   0.000000e+00   0.000000e+00
      312000   3.119990e-06   2.429438e+00   2.294370e+01   1.896599e+01   7.466147e+05   1.392828e+06   9.289634e+05   0.000000e+00   0.000000e+00   0.000000e+00   1.833133e+06   0.000000e+00   0.000000e+00   0.000000e+00
      320000   3.199990e-06   2.489167e+00   2.305512e+01   1.904031e+01   7.466147e+05   1.392828e+06   9.289634e+05   0.000000e+00   0.000000e+00   0.000000e+00   1.833133e+06   0.000000e+00   0.000000e+00   0.000000e+00
      328000   3.279990e-06   2.548896e+00   2.316655e+01   1.911463e+01   7.466147e+05   1.392828e+06   9.289634e+05   0.000000e+00   0.000000e+00   0.000000e+00   1.833133e+06   0.000000e+00   0.000000e+00   0.000000e+00
      336000   3.359990e-06   2.608625e+00   2.327797e+01   1.918894e+01   7.466147e+05   1.392828e+06   9.289634e+05   0.000000e+00   0.000000e+00   0.000000e+00   1.833133e+06   0.000000e+00   0.000000e+00   0.000000e+00
      344000   3.439990e-06   2.668355e+00   2.338940e+01   1.926326e+01   7.466147e+05   1.392828e+06   9.289634e+05   0.000000e+00   0.000000e+00   0.000000e+00   1.833133e+06   0.000000e+00   0.000000e+00   0.000000e+00
      352000   3.519990e-06   2.728084e+00   2.350083e+01   1.933758e+01   7.466147e+05   1.392828e+06   9.289634e+05   0.000000e+00   0.000000e+00   0.000000e+00   1.833133e+06   0.000000e+00   0.000000e+00   0.000000e+00
      360000   3.599990e-06   2.787813e+00   2.361225e+01   1.941190e+01   7.466147e+05   1.392828e+06   9.289634e+05   0.000000e+00   0.000000e+00   0.000000e+00   1.833133e+06   0.000000e+00   0.000000e+00   0.000000e+00
      368000   3.679990e-06   2.847542e+00   2.372368e+01   1.948621e+01   7.466147e+05   1.392828e+06   9.289634e+05   0.000000e+00   0.000000e+00   0.000000e+00   1.833133e+06   0.000000e+00   0.000000e+00   0.000000e+00
      376000   3.759990e-06   2.907271e+00   2.383510e+01   1.956053e+01   7.466147e+05   1.392828e+06   9.289629e+05  -7.794772e+05   1.558954e+07  -2.274750e+07   1.833133e+06   6.158888e-27   0.000000e+00   0.000000e+00
      384000   3.839990e-06   2.967001e+00   2.394653e+01   1.963485e+01   7.466146e+05   1.392831e+06   9.289590e+05  -4.146792e+06   9.234936e+07  -1.351308e+08   1.833133e+06   2.168804e-25   0.000000e+00   0.000000e+00
      392000   3.919990e-06   3.026730e+00   2.405796e+01   1.970916e+01   7.466141e+05   1.392841e+06   9.289430e+05  -3.871512e+06   9.914577e+07  -1.455459e+08   1.833133e+06   2.512519e-25   0.000000e+00   0.000000e+00
      400000   3.999990e-06   3.086459e+00   2.416939e+01   1.978348e+01   7.466136e+05   1.392857e+06   9.289204e+05  -1.225815e+07   3.506122e+08  -5.158682e+08   1.833133e+06   3.149821e-24   0.000000e+00   0.000000e+00
      408000   4.079990e-06   3.146188e+00   2.428082e+01   1.985779e+01   7.466129e+05   1.392877e+06   9.288909e+05  -6.023434e+06   2.144722e+08  -3.167608e+08   1.833133e+06   1.184825e-24   0.000000e+00   0.000000e+00
      416000   4.159990e-06   3.205917e+00   2.439225e+01   1.993210e+01   7.466127e+05   1.392887e+06   9.288754e+05   7.721749e+04   5.614867e+06  -8.481793e+06   1.833133e+06   8.485357e-28   0.000000e+00   0.000000e+00
      424000   4.239990e-06   3.265646e+00   2.450368e+01   2.000641e+01   7.466125e+05   1.392894e+06   9.288651e+05  -1.283167e+02   7.028874e+01  -2.262868e+00   1.833133e+06   1.732992e-37   0.000000e+00   0.000000e+00
      432000   4.319990e-06   3.325375e+00   2.461511e+01   2.008072e+01   7.466125e+05   1.392894e+06   9.288651e+05  -1.492689e+02   9.059591e+01  -1.587369e+01   1.833133e+06   2.488328e-37   0.000000e+00   0.000000e+00
      440000   4.399990e-06   3.385104e+00   2.472654e+01   2.015503e+01   7.466125e+05   1.392894e+06   9.288651e+05  -1.117320e+02   5.891236e+01   1.466086e+00   1.833133e+06   1.291936e-37   0.000000e+00   0.000000e+00
      448000   4.479990e-06   3.444833e+00   2.483797e+01   2.022934e+01   7.466125e+05   1.392894e+06   9.288651e+05  -1.635769e+02   8.767970e+01  -2.009874e-21   1.833133e+06   2.788032e-37   0.000000e+00   0.000000e+00
      456000   4.559990e-06   3.504562e+00   2.494940e+01   2.030365e+01   7.466125e+05   1.392894e+06   9.288651e+05  -1.583133e+02   8.485831e+01  -1.899273e-19   1.833133e+06   2.611746e-37   0.000000e+00   0.000000e+00
      464000   4.639990e-06   3.564291e+00   2.506083e+01   2.037796e+01   7.466125e+05   1.392894e+06   9.288651e+05  -1.686666e+02   9.040786e+01   2.498339e-19   1.833133e+06   2.964515e-37   0.000000e+00   0.000000e+00
      472000   4.719990e-06   3.624020e+00   2.517227e+01   2.045227e+01   7.466125e+05   1.392894e+06   9.288651e+05  -1.593562e+02   8.541732e+01  -2.959374e-19   1.833133e+06   2.646180e-37   0.000000e+00   0.000000e+00
      480000   4.799990e-06   3.683749e+00   2.528370e+01   2.052658e+01   7.466125e+05   1.392894e+06   9.288651e+05  -1.727484e+02   9.259577e+01   5.574109e-20   1.833133e+06   3.109484e-37   0.000000e+00   0.000000e+00
      488000   4.879990e-06   3.743478e+00   2.539513e+01   2.060088e+01   7.466125e+05   1.392894e+06   9.288651e+05  -1.624395e+02   8.707005e+01  -4.543294e-19   1.833133e+06   2.749505e-37   0.000000e+00   0.000000e+00
      496000   4.959990e-06   3.803207e+00   2.550656e+01   2.067519e+01   7.466125e+05   1.392894e+06   9.288651e+05  -1.668470e+02   8.943254e+01   4.794179e-19   1.833133e+06   2.900940e-37   0.000000e+00   0.000000e+00
      504000   5.039990e-06   3.862936e+00   2.561799e+01   2.074950e+01   7.466125e+05   1.392894e+06   9.288651e+05  -1.479947e+02   7.932739e+01  -1.730768e-19   1.833133e+06   2.282424e-37   0.000000e+00   0.000000e+00
      512000   5.119990e-06   3.922665e+00   2.572942e+01   2.082381e+01   7.466125e+05   1.392894e+06   9.288651e+05  -1.657895e+02   8.886571e+01   2.816258e-21   1.833133e+06   2.863858e-37   0.000000e+00   0.000000e+00
      520000   5.199990e-06   3.982394e+00   2.584086e+01   2.089812e+01   7.466125e+05   1.392894e+06   9.288651e+05  -9.322333e+01   4.996912e+01  -1.572111e-20   1.833133e+06   9.058680e-38   0.000000e+00   0.000000e+00
      528000   5.279990e-06   4.042123e+00   2.595229e+01   2.097243e+01   7.466125e+05   1.392894e+06   9.288651e+05  -1.601135e+02   8.582327e+01  -1.034215e-19   1.833133e+06   2.671331e-37   0.000000e+00   0.000000e+00
      536000   5.359990e-06   4.101852e+00   2.606372e+01   2.104674e+01   7.466125e+05   1.392894e+06   9.288651e+05  -1.770373e+02   9.489470e+01  -2.247825e-19   1.833133e+06   3.265806e-37   0.000000e+00   0.000000e+00
      544000   5.439990e-06   4.161581e+00   2.617515e+01   2.112105e+01   7.466125e+05   1.392894e+06   9.288651e+05  -1.377363e+02   7.382875e+01   4.763268e-19   1.833133e+06   1.976981e-37   0.000000e+00   0.000000e+00
      552000   5.519990e-06   4.221310e+00   2.628658e+01   2.119536e+01   7.466125e+05   1.392894e+06   9.288651e+05  -1.784014e+02   9.562588e+01  -4.093634e-20   1.833133e+06   3.316451e-37   0.000000e+00   0.000000e+00
      560000   5.599990e-06   4.281039e+00   2.639801e+01   2.126967e+01   7.466125e+05   1.392894e+06   9.288651e+05  -2.432357e+02   1.303780e+02   2.515687e-20   1.833133e+06   6.164212e-37   0.000000e+00   0.000000e+00
      568000   5.679990e-06   4.340768e+00   2.650944e+01   2.134398e+01   7.466125e+05   1.392894e+06   9.288651e+05  -1.653154e+02   8.861156e+01   2.886325e-19   1.833133e+06   2.848135e-37   0.000000e+00   0.000000e+00
      576000   5.759990e-06   4.400497e+00   2.662088e+01   2.141829e+01   7.466125e+05   1.392894e+06   9.288651e+05  -1.356056e+02   7.268664e+01   1.043479e-19   1.833133e+06   1.916064e-37   0.000000e+00   0.000000e+00
      584000   5.839990e-06   4.460226e+00   2.673231e+01   2.149259e+01   7.466125e+05   1.392894e+06   9.288651e+05  -1.629030e+02   8.731847e+01  -1.645966e-19   1.833133e+06   2.765119e-37   0.000000e+00   0.000000e+00
      592000   5.919990e-06   4.519955e+00   2.684374e+01   2.156690e+01   7.466125e+05   1.392894e+06   9.288651e+05  -1.903702e+02   1.020413e+02  -1.656497e-19   1.833133e+06   3.776055e-37   0.000000e+00   0.000000e+00
      600000   5.999990e-06   4.579684e+00   2.695517e+01   2.164121e+01   7.466125e+05   1.392894e+06   9.288651e+05  -1.785974e+02   9.573092e+01  -2.938322e-19   1.833133e+06   3.323695e-37   0.000000e+00   0.000000e+00
      608000   6.079990e-06   4.639413e+00   2.706660e+01   2.171552e+01   7.466125e+05   1.392894e+06   9.288651e+05  -1.898483e+02   1.017615e+02  -5.071759e-20   1.833133e+06   3.755648e-37   0.000000e+00   0.000000e+00
      616000   6.159990e-06   4.699142e+00   2.717803e+01   2.178983e+01   7.466125e+05   1.392894e+06   9.288651e+05  -8.247877e+01   4.420987e+01  -3.674164e-20   1.833133e+06   7.090649e-38   0.000000e+00   0.000000e+00
      624000   6.239990e-06   4.758871e+00   2.728947e+01   2.186414e+01   7.466125e+05   1.392894e+06   9.288651e+05  -1.382422e+02   7.409990e+01  -1.268410e-19   1.833133e+06   1.991589e-37   0.000000e+00   0.000000e+00
      632000   6.319990e-06   4.818600e+00   2.740090e+01   2.193845e+01   7.466125e+05   1.392894e+06   9.288651e+05  -1.483738e+02   7.953060e+01  -2.295604e-19   1.833133e+06   2.293973e-37   0.000000e+00   0.000000e+00
      640000   6.399990e-06   4.878329e+00   2.751233e+01   2.201276e+01   7.466125e+05   1.392894e+06   9.288651e+05  -1.557301e+02   8.347369e+01  -2.434881e-19   1.833133e+06   2.527209e-37   0.000000e+00   0.000000e+00
      648000   6.479990e-06   4.938058e+00   2.762376e+01   2.208707e+01   7.466125e+05   1.392894e+06   9.288651e+05  -1.570823e+02   8.419852e+01  -2.924583e-19   1.833133e+06   2.571164e-37   0.000000e+00   0.000000e+00
      656000   6.559990e-06   4.997787e+00   2.773519e+01   2.216138e+01   7.466125e+05   1.392894e+06   9.288651e+05  -1.535171e+02   8.228751e+01  -2.000551e-19   1.833133e+06   2.455898e-37   0.000000e+00   0.000000e+00
      664000   6.639990e-06   5.057516e+00   2.784662e+01   2.223569e+01   7.466125e+05   1.392894e+06   9.288651e+05  -1.554913e+02   8.334568e+01  -3.359003e-20   1.833133e+06   2.519502e-37   0.000000e+00   0.000000e+00
      672000   6.719990e-06   5.117245e+00   2.795806e+01   2.231000e+01   7.466125e+05   1.392894e+06   9.288651e+05  -1.690411e+02   9.060860e+01   1.303706e-19   1.833133e+06   2.977995e-37   0.000000e+00   0.000000e+00
      680000   6.799990e-06   5.176974e+00   2.806949e+01   2.238431e+01   7.466125e+05   1.392894e+06   9.288651e+05  -1.273154e+02   6.824296e+01  -1.504861e-19   1.833133e+06   1.689107e-37   0.000000e+00   0.000000e+00
      688000   6.879990e-06   5.236703e+00   2.818092e+01   2.245861e+01   7.466125e+05   1.392894e+06   9.288651e+05  -1.580840e+02   8.473543e+01   7.102365e-20   1.833133e+06   2.604067e-37   0.000000e+00   0.000000e+00
      696000   6.959990e-06   5.296432e+00   2.829235e+01   2.253292e+01   7.466125e+05   1.392894e+06   9.288651e+05  -1.869456e+02   1.002057e+02  -4.774205e-20   1.833133e+06   3.641547e-37   0.000000e+00   0.000000e+00
      704000   7.039990e-06   5.356161e+00   2.840378e+01   2.260723e+01   7.466125e+05   1.392894e+06   9.288651e+05  -1.627474e+02   8.723505e+01   1.260357e-19   1.833133e+06   2.760634e-37   0.000000e+00   0.000000e+00
      712000   7.119990e-06   5.415890e+00   2.851521e+01   2.268154e+01   7.466125e+05   1.392894e+06   9.288651e+05  -1.238973e+02   6.641083e+01  -2.893101e-20   1.833133e+06   1.599516e-37   0.000000e+00   0.000000e+00
      720000   7.199990e-06   5.475619e+00   2.862664e+01   2.275585e+01   7.466125e+05   1.392894e+06   9.288651e+05  -1.131444e+02   6.064712e+01   2.635699e-19   1.833133e+06   1.334090e-37   0.000000e+00   0.000000e+00
      728000   7.279990e-06   5.535348e+00   2.873808e+01   2.283016e+01   7.466125e+05   1.392894e+06   9.288651e+05  -1.554236e+02   8.330939e+01  -6.963741e-20   1.833133e+06   2.517161e-37   0.000000e+00   0.000000e+00
      736000   7.359990e-06   5.595077e+00   2.884951e+01   2.290447e+01   7.466125e+05   1.392894e+06   9.288651e+05  -1.658401e+02   8.889279e+01  -5.534408e-20   1.833133e+06   2.865471e-37   0.000000e+00   0.000000e+00
      744000   7.439990e-06   5.654806e+00   2.896094e+01   2.297878e+01   7.466125e+05   1.392894e+06   9.288651e+05  -1.419100e+02   7.606589e+01   9.243562e-20   1.833133e+06   2.098284e-37   0.000000e+00   0.000000e+00
      752000   7.519990e-06   5.714535e+00   2.907237e+01   2.305309e+01   7.466125e+05   1.392894e+06   9.288651e+05  -1.545159e+02   8.282286e+01  -5.777453e-20   1.833133e+06   2.487818e-37   0.000000e+00   0.000000e+00
      760000   7.599990e-06   5.774264e+00   2.918380e+01   2.312740e+01   7.466125e+05   1.392894e+06   9.288651e+05  -1.490492e+02   7.989262e+01   1.114003e-19   1.833133e+06   2.314960e-37   0.000000e+00   0.000000e+00
      768000   7.679990e-06   5.833993e+00   2.929523e+01   2.320171e+01   7.466125e+05   1.392894e+06   9.288651e+05  -1.148970e+02   6.158655e+01  -9.330934e-20   1.833133e+06   1.375685e-37   0.000000e+00   0.000000e+00
      776000   7.759990e-06   5.893722e+00   2.940667e+01   2.327602e+01   7.466125e+05   1.392894e+06   9.288651e+05  -8.978703e+01   4.812721e+01   2.056574e-20   1.833133e+06   8.400119e-38   0.000000e+00   0.000000e+00
      784000   7.839990e-06   5.953451e+00   2.951810e+01   2.335032e+01   7.466125e+05   1.392894e+06   9.288651e+05  -1.160887e+02   6.222529e+01   1.231084e-19   1.833133e+06   1.404107e-37   0.000000e+00   0.000000e+00
      792000   7.919990e-06   6.013180e+00   2.962953e+01   2.342463e+01   7.466125e+05   1.392894e+06   9.288651e+05  -1.290219e+02   6.915770e+01  -5.791472e-20   1.833133e+06   1.734712e-37   0.000000e+00   0.000000e+00
      800000   7.999990e-06   6.072909e+00   2.974096e+01   2.349894e+01   7.466125e+05   1.392894e+06   9.288651e+05  -1.043688e+02   5.594329e+01  -2.809375e-20   1.833133e+06   1.135118e-37   0.000000e+00   0.000000e+00
      808000   8.079990e-06   6.132638e+00   2.985239e+01   2.357325e+01   7.466125e+05   1.392894e+06   9.288651e+05  -4.941776e+01   2.648867e+01  -7.837082e-20   1.833133e+06   2.546652e-38   0.000000e+00   0.000000e+00
      816000   8.159990e-06   6.192367e+00   2.996382e+01   2.364756e+01   7.466125e+05   1.392894e+06   9.288651e+05  -1.162767e+02   6.232609e+01   8.608976e-20   1.833133e+06   1.408923e-37   0.000000e+00   0.000000e+00
      824000   8.239990e-06   6.252096e+00   3.007525e+01   2.372187e+01   7.466125e+05   1.392894e+06   9.288651e+05  -1.577964e+02   8.458125e+01   1.425509e-19   1.833133e+06   2.594128e-37   0.000000e+00   0.000000e+00
      832000   8.319990e-06   6.311825e+00   3.018669e+01   2.379618e+01   7.466125e+05   1.392894e+06   9.288651e+05  -9.471573e+01   5.076907e+01   1.191897e-19   1.833133e+06   9.348204e-38   0.000000e+00   0.000000e+00
      840000   8.399990e-06   6.371554e+00   3.029812e+01   2.387049e+01   7.466125e+05   1.392894e+06   9.288651e+05  -2.504435e+01   1.342415e+01  -6.310115e-21   1.833133e+06   6.543239e-39   0.000000e+00   0.000000e+00
      848000   8.479990e-06   6.431283e+00   3.040955e+01   2.394480e+01   7.466125e+05   1.392894e+06   9.288651e+05  -8.721072e+01   4.674627e+01  -3.997402e-20   1.833133e+06   7.927184e-38   0.000000e+00   0.000000e+00
      856000   8.559990e-06   6.491012e+00   3.052098e+01   2.401911e+01   7.466125e+05   1.392894e+06   9.288651e+05  -9.876000e+01   5.293686e+01  -7.893974e-20   1.833133e+06   1.016125e-37   0.000000e+00   0.000000e+00
      864000   8.639990e-06   6.550741e+00   3.063241e+01   2.409342e+01   7.466125e+05   1.392894e+06   9.288651e+05  -5.743550e+01   3.078630e+01   6.781540e-20   1.833133e+06   3.438141e-38   0.000000e+00   0.000000e+00
      872000   8.719990e-06   6.610470e+00   3.074384e+01   2.416773e+01   7.466125e+05   1.392894e+06   9.288651e+05  -5.833676e+01   3.126939e+01  -2.234119e-20   1.833133e+06   3.547998e-38   0.000000e+00   0.000000e+00
      880000   8.799990e-06   6.670199e+00   3.085528e+01   2.424204e+01   7.466125e+05   1.392894e+06   9.288651e+05  -4.879256e+01   2.615355e+01   1.868205e-20   1.833133e+06   2.480854e-38   0.000000e+00   0.000000e+00
      888000   8.879990e-06   6.729928e+00   3.096671e+01   2.431634e+01   7.466125e+05   1.392894e+06   9.288651e+05  -9.912559e+01   5.313282e+01  -1.128752e-20   1.833133e+06   1.023649e-37   0.000000e+00   0.000000e+00
      896000   8.959990e-06   6.789657e+00   3.107814e+01   2.439065e+01   7.466125e+05   1.392894e+06   9.288651e+05   2.638824e+01  -1.414450e+01  -3.482207e-21   1.833133e+06   7.246180e-39   0.000000e+00   0.000000e+00
      904000   9.039990e-06   6.849386e+00   3.118957e+01   2.446496e+01   7.466125e+05   1.392894e+06   9.288651e+05  -2.562352e+01   1.373459e+01  -3.034292e-20   1.833133e+06   6.845143e-39   0.000000e+00   0.000000e+00
      912000   9.119990e-06   6.909115e+00   3.130100e+01   2.453927e+01   7.466125e+05   1.392894e+06   9.288651e+05  -4.599625e+01   2.465469e+01  -2.529205e-20   1.833133e+06   2.205901e-38   0.000000e+00   0.000000e+00
      920000   9.199990e-06   6.968844e+00   3.141243e+01   2.461358e+01   7.466125e+05   1.392894e+06   9.288651e+05  -3.511566e+01   1.882253e+01  -3.304717e-20   1.833133e+06   1.285192e-38   0.000000e+00   0.000000e+00
      928000   9.279990e-06   7.028573e+00   3.152386e+01   2.468789e+01   7.466125e+05   1.392894e+06   9.288651e+05  -2.480742e+01   1.329715e+01   6.718928e-21   1.833133e+06   6.418856e-39   0.000000e+00   0.000000e+00
      936000   9.359990e-06   7.088302e+00   3.163530e+01   2.476220e+01   7.466125e+05   1.392894e+06   9.288651e+05  -1.932119e+01   1.035645e+01  -2.996495e-20   1.833133e+06   3.889731e-39   0.000000e+00   0.000000e+00
      944000   9.439990e-06   7.148031e+00   3.174673e+01   2.483651e+01   7.466125e+05   1.392894e+06   9.288651e+05  -8.380132e+00   4.491878e+00   6.117765e-21   1.833133e+06   7.328803e-40   0.000000e+00   0.000000e+00
      952000   9.519990e-06   7.207760e+00   3.185816e+01   2.491082e+01   7.466125e+05   1.392894e+06   9.288651e+05  -1.249946e+01   6.699902e+00  -3.798140e-21   1.833133e+06   1.627946e-39   0.000000e+00   0.000000e+00
      960000   9.599990e-06   7.267489e+00   3.196959e+01   2.498513e+01   7.466125e+05   1.392894e+06   9.288651e+05   6.634518e+00  -3.556202e+00   3.360656e-21   1.833133e+06   4.580020e-40   0.000000e+00   0.000000e+00
      968000   9.679990e-06   7.327218e+00   3.208102e+01   2.505944e+01   7.466125e+05   1.392894e+06   9.288651e+05   4.925587e+01  -2.640189e+01  -4.165974e-20   1.833133e+06   2.526066e-38   0.000000e+00   0.000000e+00
      976000   9.759990e-06   7.386947e+00   3.219245e+01   2.513375e+01   7.466125e+05   1.392894e+06   9.288651e+05   1.029161e+01  -5.516460e+00  -2.202112e-20   1.833133e+06   1.102775e-39   0.000000e+00   0.000000e+00
      984000   9.839990e-06   7.446676e+00   3.230389e+01   2.520806e+01   7.466125e+05   1.392894e+06   9.288651e+05   1.295557e+01  -6.944383e+00   6.199850e-21   1.833133e+06   1.753312e-39   0.000000e+00   0.000000e+00
      992000   9.919990e-06   7.506405e+00   3.241532e+01   2.528236e+01   7.466125e+05   1.392894e+06   9.288651e+05   3.278804e+01  -1.757489e+01   3.706493e-20   1.833133e+06   1.120974e-38   0.000000e+00   0.000000e+00
     1000000   9.999990e-06   7.566134e+00   3.252675e+01   2.535667e+01   7.466125e+05   1.392894e+06   9.288651e+05   1.261863e+01  -6.763775e+00   1.138348e-20   1.833133e+06   1.657967e-39   0.000000e+00   0.000000e+00
     1008000   1.007999e-05   7.625863e+00   3.263818e+01   2.543098e+01   7.466125e+05   1.392894e+06   9.288651e+05   1.657836e+01  -8.886256e+00   7.531368e-21   1.833133e+06   2.861298e-39   0.000000e+00   0.000000e+00
     1016000   1.015999e-05   7.685592e+00   3.274961e+01   2.550529e+01   7.466125e+05   1.392894e+06   9.288651e+05   7.391058e+01  -3.961719e+01   1.238750e-19   1.833133e+06   5.690223e-38   0.000000e+00   0.000000e+00
     1024000   1.023999e-05   7.745321e+00   3.286104e+01   2.557960e+01   7.466125e+05   1.392894e+06   9.288651e+05   5.983556e+01  -3.207277e+01   3.574119e-20   1.833133e+06   3.729793e-38   0.000000e+00   0.000000e+00
     1032000   1.031999e-05   7.805050e+00   3.297247e+01   2.565391e+01   7.466125e+05   1.392894e+06   9.288651e+05   7.586140e+01  -4.066286e+01  -1.091505e-19   1.833133e+06   5.992695e-38   0.000000e+00   0.000000e+00
     1040000   1.039999e-05   7.864779e+00   3.308391e+01   2.572822e+01   7.466125e+05   1.392894e+06   9.288651e+05   8.004959e+01  -4.290779e+01  -1.215955e-20   1.833133e+06   6.675893e-38   0.000000e+00   0.000000e+00
     1048000   1.047999e-05   7.924508e+00   3.319534e+01   2.580253e+01   7.466125e+05   1.392894e+06   9.288651e+05   5.365226e+01  -2.875843e+01   4.013159e-20   1.833133e+06   3.000488e-38   0.000000e+00   0.000000e+00
     1056000   1.055999e-05   7.984237e+00   3.330677e+01   2.587684e+01   7.466125e+05   1.392894e+06   9.288651e+05   1.045834e+01  -5.605828e+00   1.717887e-20   1.833133e+06   1.142195e-39   0.000000e+00   0.000000e+00
     1064000   1.063999e-05   8.043966e+00   3.341820e+01   2.595115e+01   7.466125e+05   1.392894e+06   9.288651e+05   8.235289e+01  -4.414240e+01   4.827029e-20   1.833133e+06   7.064451e-38   0.000000e+00   0.000000e+00
     1072000   1.071999e-05   8.103695e+00   3.352963e+01   2.602546e+01   7.466125e+05   1.392894e+06   9.288651e+05   7.678235e+01  -4.115651e+01  -1.911470e-19   1.833133e+06   6.142534e-38   0.000000e+00   0.000000e+00
     1080000   1.079999e-05   8.163424e+00   3.364106e+01   2.609977e+01   7.466125e+05   1.392894e+06   9.288651e+05   5.593205e+01  -2.998043e+01   4.165974e-20   1.833133e+06   3.260526e-38   0.000000e+00   0.000000e+00
     1088000   1.087999e-05   8.223153e+00   3.375250e+01   2.617407e+01   7.466125e+05   1.392894e+06   9.288651e+05   7.919189e+01  -4.244805e+01  -9.201673e-20   1.833133e+06   6.533939e-38   0.000000e+00   0.000000e+00
     1096000   1.095999e-05   8.282882e+00   3.386393e+01   2.624838e+01   7.466125e+05   1.392894e+06   9.288651e+05   6.369415e+01  -3.414103e+01  -5.201243e-20   1.833133e+06   4.227226e-38   0.000000e+00   0.000000e+00
     1104000   1.103999e-05   8.342611e+00   3.397536e+01   2.632269e+01   7.466125e+05   1.392894e+06   9.288651e+05   1.421201e+02  -7.617852e+01  -1.376149e-19   1.833133e+06   2.104286e-37   0.000000e+00   0.000000e+00
     1112000   1.111999e-05   8.402340e+00   3.408679e+01   2.639700e+01   7.466125e+05   1.392894e+06   9.288651e+05   1.573743e+02  -8.435501e+01   3.513330e-19   1.833133e+06   2.580538e-37   0.000000e+00   0.000000e+00
     1120000   1.119999e-05   8.462069e+00   3.419822e+01   2.647131e+01   7.466125e+05   1.392894e+06   9.288651e+05   1.182188e+02  -6.336706e+01   3.464765e-20   1.833133e+06   1.456330e-37   0.000000e+00   0.000000e+00
     1128000   1.127999e-05   8.521798e+00   3.430965e+01   2.654562e+01   7.466125e+05   1.392894e+06   9.288651e+05   1.144271e+02  -6.133466e+01  -9.492665e-20   1.833133e+06   1.364291e-37   0.000000e+00   0.000000e+00
     1136000   1.135999e-05   8.581527e+00   3.442108e+01   2.661993e+01   7.466125e+05   1.392894e+06   9.288651e+05   1.276970e+02  -6.844752e+01   2.956581e-19   1.833133e+06   1.698855e-37   0.000000e+00   0.000000e+00
     1144000   1.143999e-05   8.641256e+00   3.453252e+01   2.669424e+01   7.466125e+05   1.392894e+06   9.288651e+05   1.152665e+02  -6.178458e+01  -2.089111e-19   1.833133e+06   1.384496e-37   0.000000e+00   0.000000e+00
     1152000   1.151999e-05   8.700985e+00   3.464395e+01   2.676855e+01   7.466125e+05   1.392894e+06   9.288651e+05   1.266449e+02  -6.788357e+01   1.004291e-19   1.833133e+06   1.671222e-37   0.000000e+00   0.000000e+00
     1160000   1.159999e-05   8.760714e+00   3.475538e+01   2.684286e+01   7.466125e+05   1.392894e+06   9.288651e+05   1.308861e+02  -7.015694e+01   1.592634e-20   1.833133e+06   1.785018e-37   0.000000e+00   0.000000e+00
     1168000   1.167999e-05   8.820443e+00   3.486681e+01   2.691717e+01   7.466125e+05   1.392894e+06   9.288651e+05   1.613159e+02  -8.646777e+01  -1.396382e-19   1.833133e+06   2.711596e-37   0.000000e+00   0.000000e+00
     1176000   1.175999e-05   8.880172e+00   3.497824e+01   2.699148e+01   7.466125e+05   1.392894e+06   9.288651e+05   1.162943e+02  -6.233549e+01   8.884322e-20   1.833133e+06   1.409464e-37   0.000000e+00   0.000000e+00
     1184000   1.183999e-05   8.939901e+00   3.508967e+01   2.706579e+01   7.466125e+05   1.392894e+06   9.288651e+05   1.440755e+02  -7.722665e+01   4.474149e-19   1.833133e+06   2.163101e-37   0.000000e+00   0.000000e+00
     1192000   1.191999e-05   8.999630e+00   3.520111e+01   2.714009e+01   7.466125e+05   1.392894e+06   9.288651e+05   1.245236e+02  -6.674652e+01   1.412054e-21   1.833133e+06   1.615781e-37   0.000000e+00   0.000000e+00
     1200000   1.199999e-05   9.059359e+00   3.531254e+01   2.721440e+01   7.466125e+05   1.392894e+06   9.288651e+05   1.636003e+02  -8.769223e+01   1.963494e-19   1.833133e+06   2.789277e-37   0.000000e+00   0.000000e+00
     1208000   1.207999e-05   9.119088e+00   3.542397e+01   2.728871e+01   7.466125e+05   1.392894e+06   9.288651e+05   1.797140e+02  -9.632943e+01   1.308091e-19   1.833133e+06   3.364929e-37   0.000000e+00   0.000000e+00
     1216000   1.215999e-05   9.178817e+00   3.553540e+01   2.736302e+01   7.466125e+05   1.392894e+06   9.288651e+05   1.666762e+02  -8.934100e+01   1.576630e-19   1.833133e+06   2.895028e-37   0.000000e+00   0.000000e+00
     1224000   1.223999e-05   9.238546e+00   3.564683e+01   2.743733e+01   7.466125e+05   1.392894e+06   9.288651e+05   1.869462e+02  -1.002060e+02   2.638828e-19   1.833133e+06   3.641601e-37   0.000000e+00   0.000000e+00
     1232000   1.231999e-05   9.298275e+00   3.575826e+01   2.751164e+01   7.466125e+05   1.392894e+06   9.288651e+05   2.064681e+02  -1.106701e+02   2.677982e-19   1.833133e+06   4.441975e-37   0.000000e+00   0.000000e+00
     1240000   1.239999e-05   9.358004e+00   3.586969e+01   2.758595e+01   7.466125e+05   1.392894e+06   9.288651e+05   1.512639e+02  -8.107973e+01   5.111235e-20   1.833133e+06   2.384514e-37   0.000000e+00   0.000000e+00
     1248000   1.247999e-05   9.417733e+00   3.598113e+01   2.766026e+01   7.466125e+05   1.392894e+06   9.288651e+05   2.316281e+02  -1.241562e+02  -5.817043e-19   1.833133e+06   5.589861e-37   0.000000e+00   0.000000e+00
     1256000   1.255999e-05   9.477462e+00   3.609256e+01   2.773457e+01   7.466125e+05   1.392894e+06   9.288651e+05   2.220597e+02  -1.190274e+02   3.712183e-20   1.833133e+06   5.138009e-37   0.000000e+00   0.000000e+00
     1264000   1.263999e-05   9.537191e+00   3.620399e+01   2.780888e+01   7.466125e+05   1.392894e+06   9.288651e+05   1.914438e+02  -1.026168e+02  -5.577912e-19   1.833133e+06   3.819257e-37   0.000000e+00   0.000000e+00
     1272000   1.271999e-05   9.596920e+00   3.631542e+01   2.788319e+01   7.466125e+05   1.392894e+06   9.288651e+05   1.921305e+02  -1.029848e+02  -4.052628e-19   1.833133e+06   3.846423e-37   0.000000e+00   0.000000e+00
     1280000   1.279999e-05   9.656649e+00   3.642685e+01   2.795750e+01   7.466125e+05   1.392894e+06   9.288651e+05   2.089179e+02  -1.119832e+02   6.984711e-20   1.833133e+06   4.547444e-37   0.000000e+00   0.000000e+00
     1288000   1.287999e-05   9.716378e+00   3.653828e+01   2.803180e+01   7.466125e+05   1.392894e+06   9.288651e+05   2.072011e+02  -1.110629e+02  -1.060964e-19   1.833133e+06   4.473484e-37   0.000000e+00   0.000000e+00
     1296000   1.295999e-05   9.776107e+00   3.664972e+01   2.810611e+01   7.466125e+05   1.392894e+06   9.288651e+05   2.108550e+02  -1.130215e+02   3.738598e-19   1.833133e+06   4.632787e-37   0.000000e+00   0.000000e+00
     1304000   1.303999e-05   9.835836e+00   3.676115e+01   2.818042e+01   7.466125e+05   1.392894e+06   9.288651e+05   1.783119e+02  -9.557788e+01   5.383779e-19   1.833133e+06   3.313313e-37   0.000000e+00   0.000000e+00
     1312000   1.311999e-05   9.895565e+00   3.687258e+01   2.825473e+01   7.466125e+05   1.392894e+06   9.288651e+05   2.066879e+02  -1.107879e+02  -2.283863e-20   1.833133e+06   4.451450e-37   0.000000e+00   0.000000e+00
     1320000   1.319999e-05   9.955294e+00   3.698401e+01   2.832904e+01   7.466125e+05   1.392894e+06   9.288651e+05   2.049447e+02  -1.098535e+02   4.376267e-20   1.833133e+06   4.376626e-37   0.000000e+00   0.000000e+00
     1328000   1.327999e-05   1.001502e+01   3.709544e+01   2.840335e+01   7.466125e+05   1.392894e+06   9.288651e+05   2.040329e+02  -1.093647e+02  -4.161656e-19   1.833133e+06   4.338097e-37   0.000000e+00   0.000000e+00
     1336000   1.335999e-05   1.007475e+01   3.720687e+01   2.847766e+01   7.466125e+05   1.392894e+06   9.288651e+05   1.935887e+02  -1.037665e+02  -1.496112e-19   1.833133e+06   3.905486e-37   0.000000e+00   0.000000e+00
     1344000   1.343999e-05   1.013448e+01   3.731831e+01   2.855197e+01   7.466125e+05   1.392894e+06   9.288651e+05   2.205375e+02  -1.182114e+02  -5.701635e-20   1.833133e+06   5.068168e-37   0.000000e+00   0.000000e+00
     1352000   1.351999e-05   1.019421e+01   3.742974e+01   2.862628e+01   7.466125e+05   1.392894e+06   9.288651e+05   2.276588e+02  -1.220286e+02  -4.376384e-20   1.833133e+06   5.400532e-37   0.000000e+00   0.000000e+00
     1360000   1.359999e-05   1.025394e+01   3.754117e+01   2.870059e+01   7.466125e+05   1.392894e+06   9.288651e+05   2.290257e+02  -1.227613e+02  -6.110402e-19   1.833133e+06   5.465544e-37   0.000000e+00   0.000000e+00
     1368000   1.367999e-05   1.031367e+01   3.765260e+01   2.877490e+01   7.466125e+05   1.392894e+06   9.288651e+05   2.103738e+02  -1.127635e+02   6.836103e-20   1.833133e+06   4.611634e-37   0.000000e+00   0.000000e+00
     1376000   1.375999e-05   1.037340e+01   3.776403e+01   2.884921e+01   7.466125e+05   1.392894e+06   9.288651e+05   2.176620e+02  -1.166701e+02  -3.094580e-19   1.833133e+06   4.936640e-37   0.000000e+00   0.000000e+00
     1384000   1.383999e-05   1.043313e+01   3.787546e+01   2.892352e+01   7.466125e+05   1.392894e+06   9.288651e+05   2.384019e+02  -1.277870e+02  -7.779264e-21   1.833133e+06   5.921946e-37   0.000000e+00   0.000000e+00
     1392000   1.391999e-05   1.049286e+01   3.798689e+01   2.899782e+01   7.466125e+05   1.392894e+06   9.288651e+05   1.606390e+02  -8.610496e+01   2.299686e-19   1.833133e+06   2.689301e-37   0.000000e+00   0.000000e+00
     1400000   1.399999e-05   1.055258e+01   3.809833e+01   2.907213e+01   7.466125e+05   1.392894e+06   9.288651e+05   2.577791e+02  -1.381735e+02  -2.224193e-19   1.833133e+06   6.923904e-37   0.000000e+00   0.000000e+00
     1408000   1.407999e-05   1.061231e+01   3.820976e+01   2.914644e+01   7.466125e+05   1.392894e+06   9.288651e+05   2.307462e+02  -1.236835e+02   5.161480e-20   1.833133e+06   5.548856e-37   0.000000e+00   0.000000e+00
     1416000   1.415999e-05   1.067204e+01   3.832119e+01   2.922075e+01   7.466125e+05   1.392894e+06   9.288651e+05   2.140969e+02  -1.147592e+02   5.853940e-20   1.833133e+06   4.776024e-37   0.000000e+00   0.000000e+00
     1424000   1.423999e-05   1.073177e+01   3.843262e+01   2.929506e+01   7.466125e+05   1.392894e+06   9.288651e+05   2.131207e+02  -1.142359e+02  -2.194292e-19   1.833133e+06   4.732481e-37   0.000000e+00   0.000000e+00
     1432000   1.431999e-05   1.079150e+01   3.854405e+01   2.936937e+01   7.466125e+05   1.392894e+06   9.288651e+05   1.885125e+02  -1.010455e+02   6.981347e-20   1.833133e+06   3.703373e-37   0.000000e+00   0.000000e+00
     1440000   1.439999e-05   1.085123e+01   3.865548e+01   2.944368e+01   7.466125e+05   1.392894e+06   9.288651e+05   2.196840e+02  -1.177540e+02  -1.014957e-19   1.833133e+06   5.028672e-37   0.000000e+00   0.000000e+00
     1448000   1.447999e-05   1.091096e+01   3.876692e+01   2.951799e+01   7.466125e+05   1.392894e+06   9.288651e+05   2.322968e+02  -1.245146e+02   2.604743e-19   1.833133e+06   5.622425e-37   0.000000e+00   0.000000e+00
     1456000   1.455999e-05   1.097069e+01   3.887835e+01   2.959230e+01   7.466125e+05   1.392894e+06   9.288651e+05   1.307866e+02  -7.010361e+01   1.144701e-19   1.833133e+06   1.782908e-37   0.000000e+00   0.000000e+00
     1464000   1.463999e-05   1.103042e+01   3.898978e+01   2.966661e+01   7.466125e+05   1.392894e+06   9.288651e+05   2.014208e+02  -1.079646e+02   3.745227e-19   1.833133e+06   4.227755e-37   0.000000e+00   0.000000e+00
     1472000   1.471999e-05   1.109015e+01   3.910121e+01   2.974092e+01   7.466125e+05   1.392894e+06   9.288651e+05   2.019991e+02  -1.170164e+02   1.310893e+01   1.833133e+06   4.424524e-37   0.000000e+00   0.000000e+00
     1480000   1.479999e-05   1.114987e+01   3.921264e+01   2.981523e+01   7.466125e+05   1.392894e+06   9.288651e+05   1.915034e+02  -1.050292e+02   3.569615e+00   1.833133e+06   3.862575e-37   0.000000e+00   0.000000e+00
     1488000   1.487999e-05   1.120960e+01   3.932407e+01   2.988953e+01   7.466125e+05   1.392894e+06   9.288651e+05   2.077026e+02  -9.937997e+01  -1.792251e+01   1.833133e+06   4.317256e-37   0.000000e+00   0.000000e+00
     1496000   1.495999e-05   1.126933e+01   3.943550e+01   2.996384e+01   7.466125e+05   1.392894e+06   9.288651e+05   2.022724e+02  -1.192394e+02   1.622279e+01   1.833133e+06   4.484224e-37   0.000000e+00   0.000000e+00
     1504000   1.503999e-05   1.132906e+01   3.954694e+01   3.003815e+01   7.466125e+05   1.392894e+06   9.288651e+05   2.091874e+02  -1.175906e+02   8.192117e+00   1.833133e+06   4.667124e-37   0.000000e+00   0.000000e+00
     1512000   1.511999e-05   1.138879e+01   3.965837e+01   3.011246e+01   7.466125e+05   1.392894e+06   9.288651e+05   1.760971e+02  -9.485413e+01   6.948748e-01   1.833133e+06   3.238672e-37   0.000000e+00   0.000000e+00
     1520000   1.519999e-05   1.144852e+01   3.976980e+01   3.018677e+01   7.466125e+05   1.392894e+06   9.288651e+05   1.704093e+02  -9.469624e+01   5.029907e+00   1.833133e+06   3.078789e-37   0.000000e+00   0.000000e+00
     1528000   1.527999e-05   1.150825e+01   3.988123e+01   3.026108e+01   7.466125e+05   1.392894e+06   9.288651e+05   1.762396e+02  -9.446711e+01   3.915818e-19   1.833133e+06   3.236741e-37   0.000000e+00   0.000000e+00
     1536000   1.535999e-05   1.156798e+01   3.999266e+01   3.033539e+01   7.466125e+05   1.392894e+06   9.288651e+05   1.642271e+02  -8.802823e+01   2.557884e-19   1.833133e+06   2.810655e-37   0.000000e+00   0.000000e+00
     1544000   1.543999e-05   1.162771e+01   4.010409e+01   3.040970e+01   7.466125e+05   1.392894e+06   9.288651e+05   1.672464e+02  -8.964659e+01   3.150500e-20   1.833133e+06   2.914545e-37   0.000000e+00   0.000000e+00
     1552000   1.551999e-05   1.168744e+01   4.021553e+01   3.048401e+01   7.466125e+05   1.392894e+06   9.288651e+05   1.979631e+02  -1.061112e+02  -1.372795e-19   1.833133e+06   4.083669e-37   0.000000e+00   0.000000e+00
     1560000   1.559999e-05   1.174716e+01   4.032696e+01   3.055832e+01   7.466125e+05   1.392894e+06   9.288651e+05   1.745522e+02  -9.356265e+01   2.813042e-19   1.833133e+06   3.175038e-37   0.000000e+00   0.000000e+00
     1568000   1.567999e-05   1.180689e+01   4.043839e+01   3.063263e+01   7.466125e+05   1.392894e+06   9.288651e+05   1.573913e+02  -8.436412e+01   2.103343e-19   1.833133e+06   2.581694e-37   0.000000e+00   0.000000e+00
     1576000   1.575999e-05   1.186662e+01   4.054982e+01   3.070694e+01   7.466125e+05   1.392894e+06   9.288651e+05   1.688920e+02  -9.052868e+01   2.656436e-19   1.833133e+06   2.972577e-37   0.000000e+00   0.000000e+00
     1584000   1.583999e-05   1.192635e+01   4.066125e+01   3.078125e+01   7.466125e+05   1.392894e+06   9.288651e+05   1.451134e+02  -7.778300e+01   1.317311e-19   1.833133e+06   2.194292e-37   0.000000e+00   0.000000e+00
     1592000   1.591999e-05   1.198608e+01   4.077268e+01   3.085555e+01   7.466125e+05   1.392894e+06   9.288651e+05   2.056043e+02  -1.102070e+02   3.476877e-20   1.833133e+06   4.404731e-37   0.000000e+00   0.000000e+00
     1600000   1.599999e-05   1.204581e+01   4.088411e+01   3.092986e+01   7.466125e+05   1.392894e+06   9.288651e+05   1.411685e+02  -7.566845e+01   6.411252e-20   1.833133e+06   2.076959e-37   0.000000e+00   0.000000e+00
     1608000   1.607999e-05   1.210554e+01   4.099555e+01   3.100417e+01   7.466125e+05   1.392894e+06   9.288651e+05   1.490473e+02  -7.989164e+01   2.774404e-19   1.833133e+06   2.314827e-37   0.000000e+00   0.000000e+00
     1616000   1.615999e-05   1.216527e+01   4.110698e+01   3.107848e+01   7.466125e+05   1.392894e+06   9.288651e+05   1.677252e+02  -8.990326e+01   2.641978e-20   1.833133e+06   2.931698e-37   0.000000e+00   0.000000e+00
     1624000   1.623999e-05   1.222500e+01   4.121841e+01   3.115279e+01   7.466125e+05   1.392894e+06   9.288651e+05   1.539484e+02  -8.251869e+01   2.403555e-19   1.833133e+06   2.469561e-37   0.000000e+00   0.000000e+00
     1632000   1.631999e-05   1.228473e+01   4.132984e+01   3.122710e+01   7.466125e+05   1.392894e+06   9.288651e+05   1.716567e+02  -9.201062e+01   4.192667e-19   1.833133e+06   3.070342e-37   0.000000e+00   0.000000e+00
     1640000   1.639999e-05   1.234445e+01   4.144127e+01   3.130141e+01   7.466125e+05   1.392894e+06   9.288651e+05   1.440524e+02  -7.721427e+01  -2.619549e-20   1.833133e+06   2.162468e-37   0.000000e+00   0.000000e+00
     1648000   1.647999e-05   1.240418e+01   4.155270e+01   3.137572e+01   7.466125e+05   1.392894e+06   9.288651e+05   1.383325e+02  -7.414834e+01   1.382407e-19   1.833133e+06   1.994008e-37   0.000000e+00   0.000000e+00
     1656000   1.655999e-05   1.246391e+01   4.166414e+01   3.145003e+01   7.466125e+05   1.392894e+06   9.288651e+05   1.478998e+02  -7.927654e+01  -4.665613e-19   1.833133e+06   2.279353e-37   0.000000e+00   0.000000e+00
     1664000   1.663999e-05   1.252364e+01   4.177557e+01   3.152434e+01   7.466125e+05   1.392894e+06   9.288651e+05   1.394392e+02  -7.474155e+01  -1.747345e-19   1.833133e+06   2.025990e-37   0.000000e+00   0.000000e+00
     1672000   1.671999e-05   1.258337e+01   4.188700e+01   3.159865e+01   7.466125e+05   1.392894e+06   9.288651e+05   9.394913e+01  -5.035816e+01   2.441329e-20   1.833133e+06   9.198117e-38   0.000000e+00   0.000000e+00
     1680000   1.679999e-05   1.264310e+01   4.199843e+01   3.167296e+01   7.466125e+05   1.392894e+06   9.288651e+05   1.302425e+02  -6.981198e+01   1.475217e-19   1.833133e+06   1.767632e-37   0.000000e+00   0.000000e+00
     1688000   1.687999e-05   1.270283e+01   4.210986e+01   3.174727e+01   7.466125e+05   1.392894e+06   9.288651e+05   1.314926e+02  -7.048205e+01   9.645647e-20   1.833133e+06   1.802008e-37   0.000000e+00   0.000000e+00
     1696000   1.695999e-05   1.276256e+01   4.222129e+01   3.182157e+01   7.466125e+05   1.392894e+06   9.288651e+05   1.392189e+02  -7.462344e+01   4.790802e-20   1.833133e+06   2.019399e-37   0.000000e+00   0.000000e+00
     1704000   1.703999e-05   1.282229e+01   4.233272e+01   3.189588e+01   7.466125e+05   1.392894e+06   9.288651e+05   1.294520e+02  -6.938822e+01  -1.642377e-19   1.833133e+06   1.746022e-37   0.000000e+00   0.000000e+00
     1712000   1.711999e-05   1.288202e+01   4.244416e+01   3.197019e+01   7.466125e+05   1.392894e+06   9.288651e+05   1.493888e+02  -8.007468e+01  -1.091650e-19   1.833133e+06   2.325438e-37   0.000000e+00   0.000000e+00
     1720000   1.719999e-05   1.294174e+01   4.255559e+01   3.204450e+01   7.466125e+05   1.392894e+06   9.288651e+05   9.801584e+01  -5.253798e+01   1.031753e-19   1.833133e+06   1.001127e-37   0.000000e+00   0.000000e+00
     1728000   1.727999e-05   1.300147e+01   4.266702e+01   3.211881e+01   7.466125e+05   1.392894e+06   9.288651e+05   8.810471e+01  -4.722546e+01  -3.027521e-20   1.833133e+06   8.090718e-38   0.000000e+00   0.000000e+00
     1736000   1.735999e-05   1.306120e+01   4.277845e+01   3.219312e+01   7.466125e+05   1.392894e+06   9.288651e+05   1.232004e+02  -6.603729e+01  -3.500197e-19   1.833133e+06   1.581508e-37   0.000000e+00   0.000000e+00
     1744000   1.743999e-05   1.312093e+01   4.288988e+01   3.226743e+01   7.466125e+05   1.392894e+06   9.288651e+05   1.344687e+02  -7.207727e+01   1.967263e-19   1.833133e+06   1.883734e-37   0.000000e+00   0.000000e+00
     1752000   1.751999e-05   1.318066e+01   4.300131e+01   3.234174e+01   7.466125e+05   1.392894e+06   9.288651e+05   7.324993e+01  -3.926307e+01  -2.241123e-19   1.833133e+06   5.591838e-38   0.000000e+00   0.000000e+00
     1760000   1.759999e-05   1.324039e+01   4.311275e+01   3.241605e+01   7.466125e+05   1.392894e+06   9.288651e+05   8.601327e+01  -4.610442e+01  -3.310494e-20   1.833133e+06   7.709719e-38   0.000000e+00   0.000000e+00
     1768000   1.767999e-05   1.330012e+01   4.322418e+01   3.249036e+01   7.466125e+05   1.392894e+06   9.288651e+05   7.714814e+01  -4.135257e+01  -2.909363e-20   1.833133e+06   6.201684e-38   0.000000e+00   0.000000e+00
     1776000   1.775999e-05   1.335985e+01   4.333561e+01   3.256467e+01   7.466125e+05   1.392894e+06   9.288651e+05   9.960996e+01  -5.339245e+01   4.736350e-20   1.833133e+06   1.033841e-37   0.000000e+00   0.000000e+00
     1784000   1.783999e-05   1.341958e+01   4.344704e+01   3.263898e+01   7.466125e+05   1.392894e+06   9.288651e+05   6.783734e+01  -3.636185e+01  -5.751992e-20   1.833133e+06   4.796522e-38   0.000000e+00   0.000000e+00
     1792000   1.791999e-05   1.347931e+01   4.355847e+01   3.271328e+01   7.466125e+05   1.392894e+06   9.288651e+05   4.656115e+01  -2.495748e+01  -6.777250e-20   1.833133e+06   2.259838e-38   0.000000e+00   0.000000e+00
     1800000   1.799999e-05   1.353903e+01   4.366990e+01   3.278759e+01   7.466125e+05   1.392894e+06   9.288651e+05   1.321011e+02  -7.080820e+01   4.484052e-19   1.833133e+06   1.818086e-37   0.000000e+00   0.000000e+00
     1808000   1.807999e-05   1.359876e+01   4.378133e+01   3.286190e+01   7.466125e+05   1.392894e+06   9.288651e+05   5.133008e+01  -2.751370e+01  -4.269916e-20   1.833133e+06   2.746219e-38   0.000000e+00   0.000000e+00
     1816000   1.815999e-05   1.365849e+01   4.389277e+01   3.293621e+01   7.466125e+05   1.392894e+06   9.288651e+05   7.087995e+01  -3.799273e+01   1.265578e-19   1.833133e+06   5.235052e-38   0.000000e+00   0.000000e+00
     1824000   1.823999e-05   1.371822e+01   4.400420e+01   3.301052e+01   7.466125e+05   1.392894e+06   9.288651e+05   5.839474e+01  -3.130047e+01  -2.358771e-19   1.833133e+06   3.553281e-38   0.000000e+00   0.000000e+00
     1832000   1.831999e-05   1.377795e+01   4.411563e+01   3.308483e+01   7.466125e+05   1.392894e+06   9.288651e+05   1.175234e+02  -6.299433e+01  -3.543950e-20   1.833133e+06   1.438941e-37   0.000000e+00   0.000000e+00
     1840000   1.839999e-05   1.383768e+01   4.422706e+01   3.315914e+01   7.466125e+05   1.392894e+06   9.288651e+05   5.309667e+01  -2.846062e+01   7.894029e-20   1.833133e+06   2.937568e-38   0.000000e+00   0.000000e+00
     1848000   1.847999e-05   1.389741e+01   4.433849e+01   3.323345e+01   7.466125e+05   1.392894e+06   9.288651e+05   7.927247e+01  -4.249125e+01  -8.198257e-20   1.833133e+06   6.546771e-38   0.000000e+00   0.000000e+00
     1856000   1.855999e-05   1.395714e+01   4.444992e+01   3.330776e+01   7.466125e+05   1.392894e+06   9.288651e+05   5.816040e+01  -3.117486e+01   2.634240e-20   1.833133e+06   3.525194e-38   0.000000e+00   0.000000e+00
     1864000   1.863999e-05   1.401687e+01   4.456136e+01   3.338207e+01   7.466125e+05   1.392894e+06   9.288651e+05   4.889086e+01  -2.620624e+01  -2.343360e-20   1.833133e+06   2.490185e-38   0.000000e+00   0.000000e+00
     1872000   1.871999e-05   1.407660e+01   4.467279e+01   3.345638e+01   7.466125e+05   1.392894e+06   9.288651e+05   4.587579e+01  -2.459012e+01  -6.811767e-20   1.833133e+06   2.193175e-38   0.000000e+00   0.000000e+00
     1880000   1.879999e-05   1.413632e+01   4.478422e+01   3.353069e+01   7.466125e+05   1.392894e+06   9.288651e+05   3.343465e+01  -1.792148e+01   1.050662e-20   1.833133e+06   1.164960e-38   0.000000e+00   0.000000e+00
     1888000   1.887999e-05   1.419605e+01   4.489565e+01   3.360500e+01   7.466125e+05   1.392894e+06   9.288651e+05   8.030814e+01  -4.304638e+01  -1.058990e-19   1.833133e+06   6.720159e-38   0.000000e+00   0.000000e+00
     1896000   1.895999e-05   1.425578e+01   4.500708e+01   3.367930e+01   7.466125e+05   1.392894e+06   9.288651e+05   5.942017e+01  -3.185011e+01   6.555263e-20   1.833133e+06   3.678945e-38   0.000000e+00   0.000000e+00
     1904000   1.903999e-05   1.431551e+01   4.511851e+01   3.375361e+01   7.466125e+05   1.392894e+06   9.288651e+05   2.812584e+01  -1.507588e+01   1.909087e-20   1.833133e+06   8.243024e-39   0.000000e+00   0.000000e+00
     1912000   1.911999e-05   1.437524e+01   4.522994e+01   3.382792e+01   7.466125e+05   1.392894e+06   9.288651e+05   2.905990e+01  -1.557655e+01   2.552310e-20   1.833133e+06   8.800887e-39   0.000000e+00   0.000000e+00
     1920000   1.919999e-05   1.443497e+01   4.534138e+01   3.390223e+01   7.466125e+05   1.392894e+06   9.288651e+05   4.704748e+01  -2.521817e+01  -1.368321e-21   1.833133e+06   2.306028e-38   0.000000e+00   0.000000e+00
     1928000   1.927999e-05   1.449470e+01   4.545281e+01   3.397654e+01   7.466125e+05   1.392894e+06   9.288651e+05   3.749566e+01  -2.009824e+01  -8.673439e-20   1.833133e+06   1.465105e-38   0.000000e+00   0.000000e+00
     1936000   1.935999e-05   1.455443e+01   4.556424e+01   3.405085e+01   7.466125e+05   1.392894e+06   9.288651e+05   3.619565e+01  -1.940142e+01   1.172325e-20   1.833133e+06   1.365180e-38   0.000000e+00   0.000000e+00
     1944000   1.943999e-05   1.461416e+01   4.567567e+01   3.412516e+01   7.466125e+05   1.392894e+06   9.288651e+05   2.916050e+01  -1.563047e+01  -5.693137e-20   1.833133e+06   8.861169e-39   0.000000e+00   0.000000e+00
     1952000   1.951999e-05   1.467389e+01   4.578710e+01   3.419947e+01   7.466125e+05   1.392894e+06   9.288651e+05   1.500314e+01  -8.041909e+00  -1.258406e-20   1.833133e+06   2.346531e-39   0.000000e+00   0.000000e+00
     1960000   1.959999e-05   1.473361e+01   4.589853e+01   3.427378e+01   7.466125e+05   1.392894e+06   9.288651e+05   3.563483e+01  -1.910081e+01   7.678575e-21   1.833133e+06   1.323230e-38   0.000000e+00   0.000000e+00
     1968000   1.967999e-05   1.479334e+01   4.600997e+01   3.434809e+01   7.466125e+05   1.392894e+06   9.288651e+05  -3.490708e-01   1.871073e-01   4.093000e-22   1.833133e+06   1.250642e-42   0.000000e+00   0.000000e+00
     1976000   1.975999e-05   1.485307e+01   4.612140e+01   3.442240e+01   7.466125e+05   1.392894e+06   9.288651e+05   6.752224e+00  -3.619295e+00  -7.210108e-21   1.833133e+06   4.751268e-40   0.000000e+00   0.000000e+00
     1984000   1.983999e-05   1.491280e+01   4.623283e+01   3.449671e+01   7.466125e+05   1.392894e+06   9.288651e+05   1.721170e+01  -9.225734e+00  -8.503072e-21   1.833133e+06   3.086877e-39   0.000000e+00   0.000000e+00
     1992000   1.991999e-05   1.497253e+01   4.634426e+01   3.457101e+01   7.466125e+05   1.392894e+06   9.288651e+05   2.265669e+01  -1.214433e+01   1.553478e-20   1.833133e+06   5.348473e-39   0.000000e+00   0.000000e+00
     2000000   1.999999e-05   1.503226e+01   4.645569e+01   3.464532e+01   7.466125e+05   1.392894e+06   9.288651e+05   1.747195e+01  -9.365230e+00   3.050695e-20   1.833133e+06   3.180543e-39   0.000000e+00   0.000000e+00
     2008000   2.007999e-05   1.509199e+01   4.656712e+01   3.471963e+01   7.466125e+05   1.392894e+06   9.288651e+05  -2.016942e+01   1.081111e+01   3.168909e-20   1.833133e+06   4.236107e-39   0.000000e+00   0.000000e+00
     2016000   2.015999e-05   1.515172e+01   4.667856e+01   3.479394e+01   7.466125e+05   1.392894e+06   9.288651e+05   2.035166e+01  -1.090880e+01  -1.573007e-20   1.833133e+06   4.315043e-39   0.000000e+00   0.000000e+00
     2024000   2.023999e-05   1.521145e+01   4.678999e+01   3.486825e+01   7.466125e+05   1.392894e+06   9.288651e+05   1.025177e+01  -5.495103e+00   1.030825e-20   1.833133e+06   1.094882e-39   0.000000e+00   0.000000e+00
     2032000   2.031999e-05   1.527118e+01   4.690142e+01   3.494256e+01   7.466125e+05   1.392894e+06   9.288651e+05   9.936808e+00  -5.326280e+00   1.823988e-20   1.833133e+06   1.029007e-39   0.000000e+00   0.000000e+00
     2040000   2.039999e-05   1.533090e+01   4.701285e+01   3.501687e+01   7.466125e+05   1.392894e+06   9.288651e+05   1.004221e+01  -5.382775e+00  -7.126901e-21   1.833133e+06   1.052167e-39   0.000000e+00   0.000000e+00
     2048000   2.047999e-05   1.539063e+01   4.712428e+01   3.509118e+01   7.466125e+05   1.392894e+06   9.288651e+05   2.627759e+01  -1.408519e+01  -6.802486e-21   1.833133e+06   7.193607e-39   0.000000e+00   0.000000e+00
     2056000   2.055999e-05   1.545036e+01   4.723571e+01   3.516549e+01   7.466125e+05   1.392894e+06   9.288651e+05  -1.221971e+01   6.549952e+00   1.650116e-20   1.833133e+06   1.554044e-39   0.000000e+00   0.000000e+00
     2064000   2.063999e-05   1.551009e+01   4.734714e+01   3.523980e+01   7.466125e+05   1.392894e+06   9.288651e+05   1.166246e-01  -6.251257e-02  -6.230650e-23   1.833133e+06   1.699450e-43   0.000000e+00   0.000000e+00
     2072000   2.071999e-05   1.556982e+01   4.745858e+01   3.531411e+01   7.466125e+05   1.392894e+06   9.288651e+05   1.931746e+01  -1.035445e+01  -4.507690e-20   1.833133e+06   3.886344e-39   0.000000e+00   0.000000e+00
     2080000   2.079999e-05   1.562955e+01   4.757001e+01   3.538842e+01   7.466125e+05   1.392894e+06   9.288651e+05  -2.735689e+01   1.466371e+01  -2.628970e-21   1.833133e+06   7.798418e-39   0.000000e+00   0.000000e+00
     2088000   2.087999e-05   1.568928e+01   4.768144e+01   3.546273e+01   7.466125e+05   1.392894e+06   9.288651e+05   2.525681e+01  -1.353804e+01  -4.146613e-20   1.833133e+06   6.644216e-39   0.000000e+00   0.000000e+00
     2096000   2.095999e-05   1.574901e+01   4.779287e+01   3.553703e+01   7.466125e+05   1.392894e+06   9.288651e+05  -8.248780e+00   4.421472e+00   2.671624e-20   1.833133e+06   7.091286e-40   0.000000e+00   0.000000e+00
     2104000   2.103999e-05   1.580874e+01   4.790430e+01   3.561134e+01   7.466125e+05   1.392894e+06   9.288651e+05   9.482543e+00  -5.082787e+00  -1.625315e-20   1.833133e+06   9.372364e-40   0.000000e+00   0.000000e+00
     2112000   2.111999e-05   1.586847e+01   4.801573e+01   3.568565e+01   7.466125e+05   1.392894e+06   9.288651e+05  -2.064546e+01   1.106628e+01   1.187663e-20   1.833133e+06   4.438184e-39   0.000000e+00   0.000000e+00
     2120000   2.119999e-05   1.592819e+01   4.812717e+01   3.575996e+01   7.466125e+05   1.392894e+06   9.288651e+05  -6.515476e+00   3.492394e+00   3.539477e-21   1.833133e+06   4.409994e-40   0.000000e+00   0.000000e+00
     2128000   2.127999e-05   1.598792e+01   4.823860e+01   3.583427e+01   7.466125e+05   1.392894e+06   9.288651e+05   1.787814e+00  -9.582954e-01   4.915403e-21   1.833133e+06   3.307222e-41   0.000000e+00   0.000000e+00
     2136000   2.135999e-05   1.604765e+01   4.835003e+01   3.590858e+01   7.466125e+05   1.392894e+06   9.288651e+05  -6.712335e+00   3.597913e+00  -3.756572e-21   1.833133e+06   4.692857e-40   0.000000e+00   0.000000e+00
     2144000   2.143999e-05   1.610738e+01   4.846146e+01   3.598289e+01   7.466125e+05   1.392894e+06   9.288651e+05  -7.895143e+00   4.231916e+00  -7.784003e-21   1.833133e+06   6.495822e-40   0.000000e+00   0.000000e+00
     2152000   2.151999e-05   1.616711e+01   4.857289e+01   3.605720e+01   7.466125e+05   1.392894e+06   9.288651e+05  -1.894635e+01   1.015553e+01  -2.930168e-20   1.833133e+06   3.740757e-39   0.000000e+00   0.000000e+00
     2160000   2.159999e-05   1.622684e+01   4.868432e+01   3.613151e+01   7.466125e+05   1.392894e+06   9.288651e+05  -2.991595e+01   1.603540e+01  -2.800121e-20   1.833133e+06   9.320041e-39   0.000000e+00   0.000000e+00
     2168000   2.167999e-05   1.628657e+01   4.879575e+01   3.620582e+01   7.466125e+05   1.392894e+06   9.288651e+05  -3.235621e+01   1.734342e+01  -9.209103e-20   1.833133e+06   1.090604e-38   0.000000e+00   0.000000e+00
     2176000   2.175999e-05   1.634630e+01   4.890719e+01   3.628013e+01   7.466125e+05   1.392894e+06   9.288651e+05  -6.492925e-01   3.480307e-01  -6.645238e-22   1.833133e+06   4.369352e-42   0.000000e+00   0.000000e+00
     2184000   2.183999e-05   1.640603e+01   4.901862e+01   3.635444e+01   7.466125e+05   1.392894e+06   9.288651e+05  -2.890055e+01   1.549114e+01  -2.561366e-20   1.833133e+06   8.711347e-39   0.000000e+00   0.000000e+00
     2192000   2.191999e-05   1.646576e+01   4.913005e+01   3.642874e+01   7.466125e+05   1.392894e+06   9.288651e+05  -3.809804e+01   2.042113e+01  -7.173868e-21   1.833133e+06   1.512066e-38   0.000000e+00   0.000000e+00
     2200000   2.199999e-05   1.652548e+01   4.924148e+01   3.650305e+01   7.466125e+05   1.392894e+06   9.288651e+05  -1.674912e+01   8.977783e+00   1.727728e-20   1.833133e+06   2.923961e-39   0.000000e+00   0.000000e+00
     2208000   2.207999e-05   1.658521e+01   4.935291e+01   3.657736e+01   7.466125e+05   1.392894e+06   9.288651e+05  -4.433482e+01   2.376413e+01  -2.694329e-20   1.833133e+06   2.047527e-38   0.000000e+00   0.000000e+00
     2216000   2.215999e-05   1.664494e+01   4.946434e+01   3.665167e+01   7.466125e+05   1.392894e+06   9.288651e+05  -5.686504e+01   3.048053e+01  -6.970526e-20   1.833133e+06   3.367764e-38   0.000000e+00   0.000000e+00
     2224000   2.223999e-05   1.670467e+01   4.957578e+01   3.672598e+01   7.466122e+05   1.392895e+06   9.288651e+05  -3.382653e+01   1.813152e+01   6.401944e-20   1.833133e+06   1.192646e-38   0.000000e+00   0.000000e+00
     2232000   2.231999e-05   1.676440e+01   4.968721e+01   3.680029e+01   7.466042e+05   1.392899e+06   9.288651e+05  -6.502500e+07   3.485389e+07   5.622225e-14   1.833133e+06   4.405495e-26   0.000000e+00   0.000000e+00
     2240000   2.239999e-05   1.682413e+01   4.979864e+01   3.687460e+01   7.465873e+05   1.392908e+06   9.288651e+05  -1.588653e+08   8.515049e+07  -1.957518e-13   1.833133e+06   2.630247e-25   0.000000e+00   0.000000e+00
     2248000   2.247999e-05   1.688385e+01   4.991007e+01   3.694891e+01   7.465773e+05   1.392913e+06   9.288651e+05   0.000000e+00   0.000000e+00   0.000000e+00   1.833133e+06   0.000000e+00   0.000000e+00   0.000000e+00
