     timestep     time              x             y              z              vx             vy             vz             ax             ay             az         v_magnitude      ELoss        Electronic      Nuclear
           0   0.000000e+00   1.000000e-01   9.439310e+00   2.076532e+01   1.748201e+05  -1.838319e+05   1.150246e+06   0.000000e+00   0.000000e+00   0.000000e+00   1.177889e+06   0.000000e+00   0.000000e+00   0.000000e+00
        8000   7.999000e-08   1.139857e-01   9.424604e+00   2.085734e+01   1.748215e+05  -1.838306e+05   1.150246e+06   8.975012e+06   8.535166e+06  -7.534149e-15   1.177889e+06   5.128459e-28   0.000000e+00   0.000000e+00
       16000   1.599900e-07   1.279714e-01   9.409897e+00   2.094936e+01   1.748223e+05  -1.838298e+05   1.150246e+06   1.568516e+07   1.491660e+07  -9.389784e-15   1.177889e+06   1.565579e-27   0.000000e+00   0.000000e+00
       24000   2.399900e-07   1.419573e-01   9.395191e+00   2.104138e+01   1.748238e+05  -1.838284e+05   1.150246e+06   2.480288e+07   2.358794e+07   1.148260e-14   1.177889e+06   3.914997e-27   0.000000e+00   0.000000e+00
       32000   3.199900e-07   1.559432e-01   9.380485e+00   2.113340e+01   1.748251e+05  -1.838271e+05   1.150246e+06  -4.713040e+06  -4.482244e+06  -2.855542e-15   1.177889e+06   1.412769e-28   0.000000e+00   0.000000e+00
       40000   3.999900e-07   1.699292e-01   9.365778e+00   2.122542e+01   1.748249e+05  -1.838273e+05   1.150246e+06   1.707139e+07   1.623538e+07  -3.207397e-15   1.177889e+06   1.854609e-27   0.000000e+00   0.000000e+00
       48000   4.799900e-07   1.839153e-01   9.351072e+00   2.131744e+01   1.748262e+05  -1.838261e+05   1.150246e+06  -5.201815e+06  -4.947142e+06  -7.140436e-16   1.177889e+06   1.721124e-28   0.000000e+00   0.000000e+00
       56000   5.599900e-07   1.979013e-01   9.336366e+00   2.140946e+01   1.748255e+05  -1.838268e+05   1.150246e+06   9.340040e+06   8.882696e+06  -2.435776e-15   1.177889e+06   5.550939e-28   0.000000e+00   0.000000e+00
       64000   6.399900e-07   2.118874e-01   9.321660e+00   2.150148e+01   1.748256e+05  -1.838266e+05   1.150246e+06   7.510448e+05   7.142702e+05  -2.561188e-16   1.177889e+06   3.587117e-30   0.000000e+00   0.000000e+00
       72000   7.199900e-07   2.258735e-01   9.306954e+00   2.159350e+01   1.748258e+05  -1.838265e+05   1.150246e+06   3.251663e+06   3.092452e+06   1.158665e-15   1.177889e+06   6.728274e-29   0.000000e+00   0.000000e+00
       80000   7.999900e-07   2.398595e-01   9.292248e+00   2.168552e+01   1.748261e+05  -1.838262e+05   1.150246e+06   5.743245e+06   5.462056e+06   8.191792e-17   1.177889e+06   2.099157e-28   0.000000e+00   0.000000e+00
       88000   8.799900e-07   2.538456e-01   9.277542e+00   2.177754e+01   1.748260e+05  -1.838263e+05   1.150246e+06  -3.512382e+06  -3.340413e+06  -1.948278e-15   1.177889e+06   7.850360e-29   0.000000e+00   0.000000e+00
       96000   9.599900e-07   2.678317e-01   9.262836e+00   2.186956e+01   1.748261e+05  -1.838262e+05   1.150246e+06   4.276565e+06   4.067187e+06   9.214823e-16   1.177889e+06   1.163870e-28   0.000000e+00   0.000000e+00
      104000   1.039990e-06   2.818178e-01   9.248129e+00   2.196158e+01   1.748261e+05  -1.838261e+05   1.150246e+06  -2.951215e+06  -2.806725e+06  -3.294704e-15   1.177889e+06   5.542056e-29   0.000000e+00   0.000000e+00
      112000   1.119990e-06   2.958039e-01   9.233423e+00   2.205359e+01   1.748261e+05  -1.838262e+05   1.150246e+06   2.809887e+06   2.672317e+06   6.375346e-16   1.177889e+06   5.024109e-29   0.000000e+00   0.000000e+00
      120000   1.199990e-06   3.097900e-01   9.218717e+00   2.214561e+01   1.748262e+05  -1.838261e+05   1.150246e+06  -4.939084e+00  -4.697273e+00   1.645812e-23   1.177889e+06   1.552590e-40   0.000000e+00   0.000000e+00
      128000   1.279990e-06   3.237761e-01   9.204011e+00   2.223763e+01   1.748262e+05  -1.838261e+05   1.150246e+06  -4.032683e+00  -3.835248e+00  -1.658850e-21   1.177889e+06   1.035132e-40   0.000000e+00   0.000000e+00
      136000   1.359990e-06   3.377622e-01   9.189305e+00   2.232965e+01   1.748262e+05  -1.838261e+05   1.150246e+06  -3.764227e+00  -3.579935e+00   7.150972e-23   1.177889e+06   9.017807e-41   0.000000e+00   0.000000e+00
      144000   1.439990e-06   3.517483e-01   9.174599e+00   2.242167e+01   1.748262e+05  -1.838261e+05   1.150246e+06  -2.160348e+00  -2.054580e+00  -3.402915e-22   1.177889e+06   2.970935e-41   0.000000e+00   0.000000e+00
      152000   1.519990e-06   3.657344e-01   9.159893e+00   2.251369e+01   1.748262e+05  -1.838261e+05   1.150246e+06  -3.881318e+00  -3.691293e+00  -4.827491e-22   1.177889e+06   9.587570e-41   0.000000e+00   0.000000e+00
      160000   1.599990e-06   3.797205e-01   9.145187e+00   2.260571e+01   1.748262e+05  -1.838261e+05   1.150246e+06  -1.319888e+00  -1.255268e+00  -1.840799e-23   1.177889e+06   1.109081e-41   0.000000e+00   0.000000e+00
      168000   1.679990e-06   3.937066e-01   9.130481e+00   2.269773e+01   1.748262e+05  -1.838261e+05   1.150246e+06   3.307720e-02   3.145778e-02   2.787269e-24   1.177889e+06   6.892597e-45   0.000000e+00   0.000000e+00
      176000   1.759990e-06   4.076926e-01   9.115775e+00   2.278975e+01   1.748262e+05  -1.838261e+05   1.150246e+06  -9.595877e-01  -9.126075e-01  -7.969896e-23   1.177889e+06   5.867202e-42   0.000000e+00   0.000000e+00
      184000   1.839990e-06   4.216787e-01   9.101069e+00   2.288177e+01   1.748262e+05  -1.838261e+05   1.150246e+06  -4.000325e+00  -3.804474e+00   1.201773e-21   1.177889e+06   1.018335e-40   0.000000e+00   0.000000e+00
      192000   1.919990e-06   4.356648e-01   9.086362e+00   2.297379e+01   1.748262e+05  -1.838261e+05   1.150246e+06  -1.467734e+00  -1.395876e+00   3.385569e-22   1.177889e+06   1.371749e-41   0.000000e+00   0.000000e+00
      200000   1.999990e-06   4.496509e-01   9.071656e+00   2.306581e+01   1.748262e+05  -1.838261e+05   1.150246e+06  -2.336016e+00  -2.221647e+00  -3.960679e-22   1.177889e+06   3.472109e-41   0.000000e+00   0.000000e+00
      208000   2.079990e-06   4.636370e-01   9.056950e+00   2.315783e+01   1.748262e+05  -1.838261e+05   1.150246e+06  -2.151236e+00  -2.045914e+00  -6.057544e-23   1.177889e+06   2.946399e-41   0.000000e+00   0.000000e+00
      216000   2.159990e-06   4.776231e-01   9.042244e+00   2.324985e+01   1.748262e+05  -1.838261e+05   1.150246e+06  -2.053735e+00  -1.953187e+00  -7.065345e-22   1.177889e+06   2.683565e-41   0.000000e+00   0.000000e+00
      224000   2.239990e-06   4.916092e-01   9.027538e+00   2.334187e+01   1.748262e+05  -1.838261e+05   1.150246e+06  -2.834737e+00  -2.695952e+00  -1.612978e-21   1.177889e+06   5.115735e-41   0.000000e+00   0.000000e+00
      232000   2.319990e-06   5.055953e-01   9.012832e+00   2.343389e+01   1.748262e+05  -1.838261e+05   1.150246e+06  -2.842244e+00  -2.703092e+00  -5.659357e-22   1.177889e+06   5.140054e-41   0.000000e+00   0.000000e+00
      240000   2.399990e-06   5.195814e-01   8.998126e+00   2.352591e+01   1.748262e+05  -1.838261e+05   1.150246e+06  -5.197228e+00  -4.942778e+00   1.314259e-21   1.177889e+06   1.719167e-40   0.000000e+00   0.000000e+00
      248000   2.479990e-06   5.335675e-01   8.983420e+00   2.361793e+01   1.748262e+05  -1.838261e+05   1.150246e+06  -2.597619e+00  -2.470443e+00   1.780010e-22   1.177889e+06   4.294588e-41   0.000000e+00   0.000000e+00
      256000   2.559990e-06   5.475536e-01   8.968714e+00   2.370995e+01   1.748262e+05  -1.838261e+05   1.150246e+06  -4.639399e+00  -4.412260e+00   9.986058e-23   1.177889e+06   1.369927e-40   0.000000e+00   0.000000e+00
      264000   2.639990e-06   5.615397e-01   8.954008e+00   2.380197e+01   1.748262e+05  -1.838261e+05   1.150246e+06  -3.826002e+00  -3.638686e+00  -4.909455e-22   1.177889e+06   9.316728e-41   0.000000e+00   0.000000e+00
      272000   2.719990e-06   5.755258e-01   8.939302e+00   2.389399e+01   1.748262e+05  -1.838261e+05   1.150246e+06  -4.001312e+00  -3.805413e+00   4.704932e-22   1.177889e+06   1.019009e-40   0.000000e+00   0.000000e+00
      280000   2.799990e-06   5.895119e-01   8.924596e+00   2.398601e+01   1.748262e+05  -1.838261e+05   1.150246e+06  -4.241537e+00  -4.033877e+00   4.419753e-22   1.177889e+06   1.145039e-40   0.000000e+00   0.000000e+00
      288000   2.879990e-06   6.034980e-01   8.909889e+00   2.407803e+01   1.748262e+05  -1.838261e+05   1.150246e+06  -3.592491e+00  -3.416607e+00   3.235655e-22   1.177889e+06   8.215539e-41   0.000000e+00   0.000000e+00
      296000   2.959990e-06   6.174841e-01   8.895183e+00   2.417005e+01   1.748262e+05  -1.838261e+05   1.150246e+06  -2.306684e+00  -2.193751e+00  -3.821307e-22   1.177889e+06   3.386844e-41   0.000000e+00   0.000000e+00
      304000   3.039990e-06   6.314702e-01   8.880477e+00   2.426207e+01   1.748262e+05  -1.838261e+05   1.150246e+06  -6.157296e+00  -5.855843e+00  -5.910874e-21   1.177889e+06   2.412931e-40   0.000000e+00   0.000000e+00
      312000   3.119990e-06   6.454563e-01   8.865771e+00   2.435409e+01   1.748262e+05  -1.838261e+05   1.150246e+06  -2.242108e+00  -2.132337e+00  -9.353279e-23   1.177889e+06   3.199878e-41   0.000000e+00   0.000000e+00
      320000   3.199990e-06   6.594424e-01   8.851065e+00   2.444611e+01   1.748262e+05  -1.838261e+05   1.150246e+06  -5.950122e+00  -5.658812e+00  -2.757776e-21   1.177889e+06   2.253285e-40   0.000000e+00   0.000000e+00
      328000   3.279990e-06   6.734285e-01   8.836359e+00   2.453813e+01   1.748262e+05  -1.838261e+05   1.150246e+06  -2.177533e+00  -2.070923e+00   2.025754e-22   1.177889e+06   3.018220e-41   0.000000e+00   0.000000e+00
      336000   3.359990e-06   6.874146e-01   8.821653e+00   2.463015e+01   1.748262e+05  -1.838261e+05   1.150246e+06  -5.742948e+00  -5.461780e+00   3.978257e-22   1.177889e+06   2.099102e-40   0.000000e+00   0.000000e+00
      344000   3.439990e-06   7.014007e-01   8.806947e+00   2.472217e+01   1.748262e+05  -1.838261e+05   1.150246e+06  -3.212641e+00  -3.055354e+00  -2.008192e-21   1.177889e+06   6.568142e-41   0.000000e+00   0.000000e+00
      352000   3.519990e-06   7.153868e-01   8.792241e+00   2.481419e+01   1.748262e+05  -1.838261e+05   1.150246e+06  -4.909591e+00  -4.669224e+00  -2.571891e-21   1.177889e+06   1.534052e-40   0.000000e+00   0.000000e+00
      360000   3.599990e-06   7.293729e-01   8.777535e+00   2.490621e+01   1.748262e+05  -1.838261e+05   1.150246e+06  -1.806722e+00  -1.718267e+00  -7.712284e-23   1.177889e+06   2.078151e-41   0.000000e+00   0.000000e+00
      368000   3.679990e-06   7.433590e-01   8.762829e+00   2.499823e+01   1.748262e+05  -1.838261e+05   1.150246e+06   1.335225e-01   1.269854e-01   4.229878e-23   1.177889e+06   1.130596e-43   0.000000e+00   0.000000e+00
      376000   3.759990e-06   7.573451e-01   8.748122e+00   2.509025e+01   1.748262e+05  -1.838261e+05   1.150246e+06  -4.629260e+00  -4.402617e+00  -3.270493e-22   1.177889e+06   1.363863e-40   0.000000e+00   0.000000e+00
      384000   3.839990e-06   7.713312e-01   8.733416e+00   2.518227e+01   1.748262e+05  -1.838261e+05   1.150246e+06  -1.403464e-01  -1.334753e-01   3.075564e-23   1.177889e+06   1.257999e-43   0.000000e+00   0.000000e+00
      392000   3.919990e-06   7.853172e-01   8.718710e+00   2.527428e+01   1.748262e+05  -1.838261e+05   1.150246e+06  -3.057586e+00  -2.907891e+00  -1.910436e-21   1.177889e+06   5.949623e-41   0.000000e+00   0.000000e+00
      400000   3.999990e-06   7.993033e-01   8.704004e+00   2.536630e+01   1.748262e+05  -1.838261e+05   1.150246e+06  -4.142154e-01  -3.939359e-01   2.329831e-22   1.177889e+06   1.093298e-42   0.000000e+00   0.000000e+00
      408000   4.079990e-06   8.132894e-01   8.689298e+00   2.545832e+01   1.748262e+05  -1.838261e+05   1.150246e+06  -2.394667e+00  -2.277427e+00  -3.922468e-22   1.177889e+06   3.648797e-41   0.000000e+00   0.000000e+00
      416000   4.159990e-06   8.272755e-01   8.674592e+00   2.555034e+01   1.748262e+05  -1.838261e+05   1.150246e+06  -1.105013e+00  -1.050913e+00   5.511828e-23   1.177889e+06   7.775148e-42   0.000000e+00   0.000000e+00
      424000   4.239990e-06   8.412616e-01   8.659886e+00   2.564236e+01   1.748262e+05  -1.838261e+05   1.150246e+06  -2.501150e+00  -2.378697e+00  -2.979629e-22   1.177889e+06   3.980558e-41   0.000000e+00   0.000000e+00
      432000   4.319990e-06   8.552477e-01   8.645180e+00   2.573438e+01   1.748262e+05  -1.838261e+05   1.150246e+06  -2.225907e+00  -2.116929e+00   3.465300e-22   1.177889e+06   3.154200e-41   0.000000e+00   0.000000e+00
      440000   4.399990e-06   8.692338e-01   8.630474e+00   2.582640e+01   1.748262e+05  -1.838261e+05   1.150246e+06  -2.607633e+00  -2.479967e+00  -2.065830e-22   1.177889e+06   4.326753e-41   0.000000e+00   0.000000e+00
      448000   4.479990e-06   8.832199e-01   8.615768e+00   2.591842e+01   1.748262e+05  -1.838261e+05   1.150246e+06  -3.346801e+00  -3.182946e+00  -5.203430e-22   1.177889e+06   7.130212e-41   0.000000e+00   0.000000e+00
      456000   4.559990e-06   8.972060e-01   8.601062e+00   2.601044e+01   1.748262e+05  -1.838261e+05   1.150246e+06  -2.714116e+00  -2.581236e+00  -2.415748e-21   1.177889e+06   4.687381e-41   0.000000e+00   0.000000e+00
      464000   4.639990e-06   9.111921e-01   8.586356e+00   2.610246e+01   1.748262e+05  -1.838261e+05   1.150246e+06  -4.304549e+00  -4.093804e+00  -2.312986e-21   1.177889e+06   1.179181e-40   0.000000e+00   0.000000e+00
      472000   4.719990e-06   9.251782e-01   8.571649e+00   2.619448e+01   1.748262e+05  -1.838261e+05   1.150246e+06  -6.400870e+00  -6.087491e+00  -3.017631e-21   1.177889e+06   2.607476e-40   0.000000e+00   0.000000e+00
      480000   4.799990e-06   9.391643e-01   8.556943e+00   2.628650e+01   1.748262e+05  -1.838261e+05   1.150246e+06  -1.572653e+00  -1.495658e+00  -6.477275e-22   1.177889e+06   1.574541e-41   0.000000e+00   0.000000e+00
      488000   4.879990e-06   9.531504e-01   8.542237e+00   2.637852e+01   1.748262e+05  -1.838261e+05   1.150246e+06  -6.415555e+00  -6.101457e+00  -2.899391e-21   1.177889e+06   2.619454e-40   0.000000e+00   0.000000e+00
      496000   4.959990e-06   9.671365e-01   8.527531e+00   2.647054e+01   1.748262e+05  -1.838261e+05   1.150246e+06  -2.558165e+00  -2.432921e+00  -1.858840e-21   1.177889e+06   4.165843e-41   0.000000e+00   0.000000e+00
      504000   5.039990e-06   9.811226e-01   8.512825e+00   2.656256e+01   1.748262e+05  -1.838261e+05   1.150246e+06  -6.430239e+00  -6.115423e+00  -2.782015e-21   1.177889e+06   2.631460e-40   0.000000e+00   0.000000e+00
      512000   5.119990e-06   9.951087e-01   8.498119e+00   2.665458e+01   1.748262e+05  -1.838261e+05   1.150246e+06  -1.135660e+01  -1.080059e+01  -2.350383e-21   1.177889e+06   8.208057e-40   0.000000e+00   0.000000e+00
      520000   5.199990e-06   1.009095e+00   8.483413e+00   2.674660e+01   1.748262e+05  -1.838261e+05   1.150246e+06  -5.289455e+00  -5.030490e+00   1.507115e-21   1.177889e+06   1.780733e-40   0.000000e+00   0.000000e+00
      528000   5.279990e-06   1.023081e+00   8.468707e+00   2.683862e+01   1.748262e+05  -1.838261e+05   1.150246e+06  -5.365482e+00  -5.102794e+00  -1.006902e-21   1.177889e+06   1.832272e-40   0.000000e+00   0.000000e+00
      536000   5.359990e-06   1.037067e+00   8.454001e+00   2.693064e+01   1.748262e+05  -1.838261e+05   1.150246e+06  -4.716460e+00  -4.485548e+00  -2.913836e-21   1.177889e+06   1.415824e-40   0.000000e+00   0.000000e+00
      544000   5.439990e-06   1.051053e+00   8.439295e+00   2.702266e+01   1.748262e+05  -1.838261e+05   1.150246e+06  -6.552397e+00  -6.231600e+00   5.266960e-21   1.177889e+06   2.732586e-40   0.000000e+00   0.000000e+00
      552000   5.519990e-06   1.065039e+00   8.424589e+00   2.711468e+01   1.748262e+05  -1.838261e+05   1.150246e+06  -4.143466e+00  -3.940607e+00   1.864540e-21   1.177889e+06   1.092708e-40   0.000000e+00   0.000000e+00
      560000   5.599990e-06   1.079025e+00   8.409882e+00   2.720670e+01   1.748262e+05  -1.838261e+05   1.150246e+06  -7.739312e+00  -7.360405e+00   5.186244e-23   1.177889e+06   3.812228e-40   0.000000e+00   0.000000e+00
      568000   5.679990e-06   1.093011e+00   8.395176e+00   2.729872e+01   1.748262e+05  -1.838261e+05   1.150246e+06  -8.886289e+00  -8.451227e+00   9.363997e-21   1.177889e+06   5.025662e-40   0.000000e+00   0.000000e+00
      576000   5.759990e-06   1.106997e+00   8.380470e+00   2.739074e+01   1.748262e+05  -1.838261e+05   1.150246e+06   2.301285e-01   2.188617e-01  -6.958928e-23   1.177889e+06   3.354409e-43   0.000000e+00   0.000000e+00
      584000   5.839990e-06   1.120984e+00   8.365764e+00   2.748276e+01   1.748262e+05  -1.838261e+05   1.150246e+06  -1.045841e+01  -9.946378e+00  -5.194358e-21   1.177889e+06   6.961034e-40   0.000000e+00   0.000000e+00
      592000   5.919990e-06   1.134970e+00   8.351058e+00   2.757478e+01   1.748262e+05  -1.838261e+05   1.150246e+06  -1.416540e-01  -1.347188e-01   2.458062e-23   1.177889e+06   1.287185e-43   0.000000e+00   0.000000e+00
      600000   5.999990e-06   1.148956e+00   8.336352e+00   2.766680e+01   1.748262e+05  -1.838261e+05   1.150246e+06  -7.987915e+00  -7.596837e+00   5.798296e-22   1.177889e+06   4.060678e-40   0.000000e+00   0.000000e+00
      608000   6.079990e-06   1.162942e+00   8.321646e+00   2.775882e+01   1.748262e+05  -1.838261e+05   1.150246e+06  -5.134366e-01  -4.882994e-01   4.166029e-23   1.177889e+06   1.681482e-42   0.000000e+00   0.000000e+00
      616000   6.159990e-06   1.176928e+00   8.306940e+00   2.785084e+01   1.748262e+05  -1.838261e+05   1.150246e+06  -5.517422e+00  -5.247296e+00  -4.995490e-22   1.177889e+06   1.937240e-40   0.000000e+00   0.000000e+00
      624000   6.239990e-06   1.190914e+00   8.292234e+00   2.794286e+01   1.748262e+05  -1.838261e+05   1.150246e+06  -1.053013e+01  -1.001459e+01  -4.699982e-22   1.177889e+06   7.056897e-40   0.000000e+00   0.000000e+00
      632000   6.319990e-06   1.204900e+00   8.277528e+00   2.803488e+01   1.748262e+05  -1.838261e+05   1.150246e+06  -3.309299e+00  -3.147280e+00   2.196421e-21   1.177889e+06   6.969249e-41   0.000000e+00   0.000000e+00
      640000   6.399990e-06   1.218886e+00   8.262822e+00   2.812690e+01   1.748262e+05  -1.838261e+05   1.150246e+06  -2.302141e+00  -2.189431e+00   1.237671e-21   1.177889e+06   3.373749e-41   0.000000e+00   0.000000e+00
      648000   6.479990e-06   1.232872e+00   8.248116e+00   2.821892e+01   1.748262e+05  -1.838261e+05   1.150246e+06  -3.189705e+00  -3.033541e+00  -7.557019e-22   1.177889e+06   6.474594e-41   0.000000e+00   0.000000e+00
      656000   6.559990e-06   1.246858e+00   8.233409e+00   2.831094e+01   1.748262e+05  -1.838261e+05   1.150246e+06  -3.305256e+00  -3.143435e+00   1.503671e-21   1.177889e+06   6.954045e-41   0.000000e+00   0.000000e+00
      664000   6.639990e-06   1.260845e+00   8.218703e+00   2.840295e+01   1.748262e+05  -1.838261e+05   1.150246e+06  -3.070110e+00  -2.919801e+00   8.853989e-22   1.177889e+06   5.998145e-41   0.000000e+00   0.000000e+00
      672000   6.719990e-06   1.274831e+00   8.203997e+00   2.849497e+01   1.748262e+05  -1.838261e+05   1.150246e+06  -5.017622e+00  -4.771966e+00   3.852616e-21   1.177889e+06   1.602255e-40   0.000000e+00   0.000000e+00
      680000   6.799990e-06   1.288817e+00   8.189291e+00   2.858699e+01   1.748262e+05  -1.838261e+05   1.150246e+06  -7.799502e+00  -7.417648e+00   1.387602e-21   1.177889e+06   3.871590e-40   0.000000e+00   0.000000e+00
      688000   6.879990e-06   1.302803e+00   8.174585e+00   2.867901e+01   1.748262e+05  -1.838261e+05   1.150246e+06  -4.087789e+00  -3.887656e+00   1.046076e-21   1.177889e+06   1.063521e-40   0.000000e+00   0.000000e+00
      696000   6.959990e-06   1.316789e+00   8.159879e+00   2.877103e+01   1.748262e+05  -1.838261e+05   1.150246e+06  -4.373866e+00  -4.159727e+00  -6.175633e-22   1.177889e+06   1.217634e-40   0.000000e+00   0.000000e+00
      704000   7.039990e-06   1.330775e+00   8.145173e+00   2.886305e+01   1.748262e+05  -1.838261e+05   1.150246e+06  -3.863822e+00  -3.674654e+00  -2.842184e-21   1.177889e+06   9.501728e-41   0.000000e+00   0.000000e+00
      712000   7.119990e-06   1.344761e+00   8.130467e+00   2.895507e+01   1.748262e+05  -1.838261e+05   1.150246e+06  -4.652619e+00  -4.424832e+00   2.632988e-21   1.177889e+06   1.377781e-40   0.000000e+00   0.000000e+00
      720000   7.199990e-06   1.358747e+00   8.115761e+00   2.904709e+01   1.748262e+05  -1.838261e+05   1.150246e+06  -3.639855e+00  -3.461652e+00   1.631361e-22   1.177889e+06   8.432103e-41   0.000000e+00   0.000000e+00
      728000   7.279990e-06   1.372733e+00   8.101055e+00   2.913911e+01   1.748262e+05  -1.838261e+05   1.150246e+06  -4.931371e+00  -4.689937e+00  -1.015041e-21   1.177889e+06   1.547819e-40   0.000000e+00   0.000000e+00
      736000   7.359990e-06   1.386719e+00   8.086349e+00   2.923113e+01   1.748262e+05  -1.838261e+05   1.150246e+06  -8.282605e+00  -7.877100e+00  -3.653409e-21   1.177889e+06   4.366125e-40   0.000000e+00   0.000000e+00
      744000   7.439990e-06   1.400705e+00   8.071642e+00   2.932315e+01   1.748262e+05  -1.838261e+05   1.150246e+06  -5.549227e+00  -5.277544e+00   2.864557e-22   1.177889e+06   1.959772e-40   0.000000e+00   0.000000e+00
      752000   7.519990e-06   1.414692e+00   8.056936e+00   2.941517e+01   1.748262e+05  -1.838261e+05   1.150246e+06  -3.149482e+00  -2.995287e+00   1.712815e-21   1.177889e+06   6.314571e-41   0.000000e+00   0.000000e+00
      760000   7.599990e-06   1.428678e+00   8.042230e+00   2.950719e+01   1.748262e+05  -1.838261e+05   1.150246e+06  -4.984428e+00  -4.740396e+00  -1.022157e-21   1.177889e+06   1.581127e-40   0.000000e+00   0.000000e+00
      768000   7.679990e-06   1.442664e+00   8.027524e+00   2.959921e+01   1.748262e+05  -1.838261e+05   1.150246e+06  -6.897580e+00  -6.559883e+00   1.971490e-21   1.177889e+06   3.027898e-40   0.000000e+00   0.000000e+00
      776000   7.759990e-06   1.456650e+00   8.012818e+00   2.969123e+01   1.748262e+05  -1.838261e+05   1.150246e+06  -4.810705e+00   6.916390e+00   1.836520e+00   1.177889e+06   2.484158e-40   0.000000e+00   0.000000e+00
      784000   7.839990e-06   1.470636e+00   7.998112e+00   2.978325e+01   1.748262e+05  -1.838261e+05   1.150246e+06  -2.032188e+01   3.195525e+01   8.195640e+00   1.177889e+06   5.016417e-39   0.000000e+00   0.000000e+00
      792000   7.919990e-06   1.484622e+00   7.983406e+00   2.987527e+01   1.748262e+05  -1.838261e+05   1.150246e+06  -7.801856e+00   2.725486e+00   1.621378e+00   1.177889e+06   2.371934e-40   0.000000e+00   0.000000e+00
      800000   7.999990e-06   1.498608e+00   7.968700e+00   2.996729e+01   1.748262e+05  -1.838261e+05   1.150246e+06  -6.221988e+00  -3.049882e+01  -3.928474e+00   1.177889e+06   3.289020e-39   0.000000e+00   0.000000e+00
      808000   8.079990e-06   1.512594e+00   7.953994e+00   3.005931e+01   1.748262e+05  -1.838261e+05   1.150246e+06  -1.175970e+01   1.950080e+01   4.903871e+00   1.177889e+06   1.812994e-39   0.000000e+00   0.000000e+00
      816000   8.159990e-06   1.526580e+00   7.939288e+00   3.015133e+01   1.748262e+05  -1.838261e+05   1.150246e+06  -6.311061e+00  -3.931727e+00   3.308724e-01   1.177889e+06   1.850823e-40   0.000000e+00   0.000000e+00
      824000   8.239990e-06   1.540566e+00   7.924582e+00   3.024335e+01   1.748262e+05  -1.838261e+05   1.150246e+06   3.752219e-01   3.568515e-01  -7.099893e-23   1.177889e+06   8.929169e-43   0.000000e+00   0.000000e+00
      832000   8.319990e-06   1.554553e+00   7.909875e+00   3.033537e+01   1.748262e+05  -1.838261e+05   1.150246e+06  -4.340744e+00  -4.128226e+00  -1.263831e-21   1.177889e+06   1.198830e-40   0.000000e+00   0.000000e+00
      840000   8.399990e-06   1.568539e+00   7.895169e+00   3.042739e+01   1.748262e+05  -1.838261e+05   1.150246e+06  -2.874969e+00  -2.734215e+00   6.617901e-22   1.177889e+06   5.260366e-41   0.000000e+00   0.000000e+00
      848000   8.479990e-06   1.582525e+00   7.880463e+00   3.051941e+01   1.748262e+05  -1.838261e+05   1.150246e+06   2.860766e+00   2.720707e+00  -2.205342e-22   1.177889e+06   5.208880e-41   0.000000e+00   0.000000e+00
      856000   8.559990e-06   1.596511e+00   7.865757e+00   3.061143e+01   1.748262e+05  -1.838261e+05   1.150246e+06  -2.442126e+00  -2.322562e+00   3.578975e-22   1.177889e+06   3.795601e-41   0.000000e+00   0.000000e+00
      864000   8.639990e-06   1.610497e+00   7.851051e+00   3.070345e+01   1.748262e+05  -1.838261e+05   1.150246e+06  -4.284054e+00  -4.074312e+00   5.390860e-22   1.177889e+06   1.168168e-40   0.000000e+00   0.000000e+00
      872000   8.719990e-06   1.624483e+00   7.836345e+00   3.079547e+01   1.748262e+05  -1.838261e+05   1.150246e+06  -3.586795e+00  -3.411190e+00   9.577495e-23   1.177889e+06   8.188645e-41   0.000000e+00   0.000000e+00
      880000   8.799990e-06   1.638469e+00   7.821639e+00   3.088749e+01   1.748262e+05  -1.838261e+05   1.150246e+06  -4.436767e+00  -4.219549e+00   4.002508e-22   1.177889e+06   1.252816e-40   0.000000e+00   0.000000e+00
      888000   8.879990e-06   1.652455e+00   7.806933e+00   3.097951e+01   1.748262e+05  -1.838261e+05   1.150246e+06  -3.827065e+00  -3.639697e+00  -2.044412e-23   1.177889e+06   9.322435e-41   0.000000e+00   0.000000e+00
      896000   8.959990e-06   1.666441e+00   7.792227e+00   3.107153e+01   1.748262e+05  -1.838261e+05   1.150246e+06  -1.553506e+00  -1.477449e+00  -1.009302e-21   1.177889e+06   1.536359e-41   0.000000e+00   0.000000e+00
      904000   9.039990e-06   1.680427e+00   7.777521e+00   3.116355e+01   1.748262e+05  -1.838261e+05   1.150246e+06  -6.775331e+00  -6.443619e+00  -4.328333e-21   1.177889e+06   2.921545e-40   0.000000e+00   0.000000e+00
      912000   9.119990e-06   1.694414e+00   7.762815e+00   3.125557e+01   1.748262e+05  -1.838261e+05   1.150246e+06  -2.019638e+00  -1.920759e+00  -9.042392e-22   1.177889e+06   2.596530e-41   0.000000e+00   0.000000e+00
      920000   9.199990e-06   1.708400e+00   7.748109e+00   3.134759e+01   1.748262e+05  -1.838261e+05   1.150246e+06  -4.371711e+00  -4.157678e+00  -9.159358e-22   1.177889e+06   1.216535e-40   0.000000e+00   0.000000e+00
      928000   9.279990e-06   1.722386e+00   7.733402e+00   3.143961e+01   1.748262e+05  -1.838261e+05   1.150246e+06  -5.213729e+00  -4.958472e+00  -3.344535e-23   1.177889e+06   1.729960e-40   0.000000e+00   0.000000e+00
      936000   9.359990e-06   1.736372e+00   7.718696e+00   3.153163e+01   1.748262e+05  -1.838261e+05   1.150246e+06  -4.743861e+00  -4.511607e+00  -1.134982e-22   1.177889e+06   1.432459e-40   0.000000e+00   0.000000e+00
      944000   9.439990e-06   1.750358e+00   7.703990e+00   3.162364e+01   1.748262e+05  -1.838261e+05   1.150246e+06  -5.038282e+00  -4.791614e+00  -1.578043e-21   1.177889e+06   1.615484e-40   0.000000e+00   0.000000e+00
      952000   9.519990e-06   1.764344e+00   7.689284e+00   3.171566e+01   1.748262e+05  -1.838261e+05   1.150246e+06  -2.651259e+00  -2.521457e+00  -2.436613e-22   1.177889e+06   4.474170e-41   0.000000e+00   0.000000e+00
      960000   9.599990e-06   1.778330e+00   7.674578e+00   3.180768e+01   1.748262e+05  -1.838261e+05   1.150246e+06  -4.522853e+00  -4.301420e+00  -3.126404e-21   1.177889e+06   1.302011e-40   0.000000e+00   0.000000e+00
      968000   9.679990e-06   1.792316e+00   7.659872e+00   3.189970e+01   1.748262e+05  -1.838261e+05   1.150246e+06  -4.027965e+00  -3.830761e+00  -9.432220e-22   1.177889e+06   1.032672e-40   0.000000e+00   0.000000e+00
      976000   9.759990e-06   1.806302e+00   7.645166e+00   3.199172e+01   1.748262e+05  -1.838261e+05   1.150246e+06  -7.000567e+00  -6.657828e+00  -4.544300e-22   1.177889e+06   3.118597e-40   0.000000e+00   0.000000e+00
      984000   9.839990e-06   1.820288e+00   7.630460e+00   3.208374e+01   1.748262e+05  -1.838261e+05   1.150246e+06   7.534070e-01   7.165212e-01  -6.396967e-22   1.177889e+06   3.605840e-42   0.000000e+00   0.000000e+00
      992000   9.919990e-06   1.834274e+00   7.615754e+00   3.217576e+01   1.748262e+05  -1.838261e+05   1.150246e+06  -5.438366e+00  -5.172111e+00   1.049999e-21   1.177889e+06   1.881938e-40   0.000000e+00   0.000000e+00
     1000000   9.999990e-06   1.848261e+00   7.601048e+00   3.226778e+01   1.748262e+05  -1.838261e+05   1.150246e+06  -2.597252e-01  -2.470094e-01  -6.443451e-23   1.177889e+06   4.317295e-43   0.000000e+00   0.000000e+00
     1008000   1.007999e-05   1.862247e+00   7.586342e+00   3.235980e+01   1.748262e+05  -1.838261e+05   1.150246e+06   2.329228e+00   2.215192e+00  -2.225970e-22   1.177889e+06   3.452807e-41   0.000000e+00   0.000000e+00
     1016000   1.015999e-05   1.876233e+00   7.571635e+00   3.245182e+01   1.748262e+05  -1.838261e+05   1.150246e+06  -7.410063e+00  -7.047276e+00  -2.353540e-21   1.177889e+06   3.494534e-40   0.000000e+00   0.000000e+00
     1024000   1.023999e-05   1.890219e+00   7.556929e+00   3.254384e+01   1.748262e+05  -1.838261e+05   1.150246e+06  -3.280225e-01  -3.119629e-01   1.816780e-22   1.177889e+06   6.851647e-43   0.000000e+00   0.000000e+00
     1032000   1.031999e-05   1.904205e+00   7.542223e+00   3.263586e+01   1.748262e+05  -1.838261e+05   1.150246e+06  -5.743877e+00  -5.462664e+00   9.736754e-22   1.177889e+06   2.099912e-40   0.000000e+00   0.000000e+00
     1040000   1.039999e-05   1.918191e+00   7.527517e+00   3.272788e+01   1.748262e+05  -1.838261e+05   1.150246e+06  -5.312647e+00  -5.052547e+00  -4.555543e-22   1.177889e+06   1.796260e-40   0.000000e+00   0.000000e+00
     1048000   1.047999e-05   1.932177e+00   7.512811e+00   3.281990e+01   1.748262e+05  -1.838261e+05   1.150246e+06  -6.848810e+00  -6.513501e+00  -5.098392e-22   1.177889e+06   2.985513e-40   0.000000e+00   0.000000e+00
     1056000   1.055999e-05   1.946163e+00   7.498105e+00   3.291192e+01   1.748262e+05  -1.838261e+05   1.150246e+06  -5.815111e+00  -5.530411e+00  -2.634397e-21   1.177889e+06   2.152676e-40   0.000000e+00   0.000000e+00
     1064000   1.063999e-05   1.960149e+00   7.483399e+00   3.300394e+01   1.748262e+05  -1.838261e+05   1.150246e+06  -9.091597e+00  -8.646484e+00  -2.201102e-21   1.177889e+06   5.260213e-40   0.000000e+00   0.000000e+00
     1072000   1.071999e-05   1.974135e+00   7.468693e+00   3.309596e+01   1.748262e+05  -1.838261e+05   1.150246e+06  -1.369169e+01  -1.302136e+01  -1.079946e-20   1.177889e+06   1.193041e-39   0.000000e+00   0.000000e+00
     1080000   1.079999e-05   1.988122e+00   7.453987e+00   3.318798e+01   1.748262e+05  -1.838261e+05   1.150246e+06  -2.662257e+00  -2.531916e+00  -2.596466e-21   1.177889e+06   4.512974e-41   0.000000e+00   0.000000e+00
     1088000   1.087999e-05   2.002108e+00   7.439281e+00   3.328000e+01   1.748262e+05  -1.838261e+05   1.150246e+06  -8.307957e+00  -7.901210e+00  -6.821452e-21   1.177889e+06   4.392791e-40   0.000000e+00   0.000000e+00
     1096000   1.095999e-05   2.016094e+00   7.424575e+00   3.337202e+01   1.748262e+05  -1.838261e+05   1.150246e+06  -5.789286e+00  -5.505850e+00  -1.651834e-21   1.177889e+06   2.133312e-40   0.000000e+00   0.000000e+00
     1104000   1.103999e-05   2.030080e+00   7.409869e+00   3.346404e+01   1.748262e+05  -1.838261e+05   1.150246e+06  -8.479088e+00  -8.063963e+00   2.464232e-21   1.177889e+06   4.575630e-40   0.000000e+00   0.000000e+00
     1112000   1.111999e-05   2.044066e+00   7.395162e+00   3.355606e+01   1.748262e+05  -1.838261e+05   1.150246e+06  -3.028604e+00  -2.880328e+00  -2.775892e-24   1.177889e+06   5.840527e-41   0.000000e+00   0.000000e+00
     1120000   1.119999e-05   2.058052e+00   7.380456e+00   3.364808e+01   1.748262e+05  -1.838261e+05   1.150246e+06  -7.626760e+00  -7.253364e+00   2.435953e-22   1.177889e+06   3.701679e-40   0.000000e+00   0.000000e+00
     1128000   1.127999e-05   2.072038e+00   7.365750e+00   3.374010e+01   1.748262e+05  -1.838261e+05   1.150246e+06  -2.599027e+00  -2.471782e+00  -4.776541e-24   1.177889e+06   4.301498e-41   0.000000e+00   0.000000e+00
     1136000   1.135999e-05   2.086024e+00   7.351044e+00   3.383212e+01   1.748262e+05  -1.838261e+05   1.150246e+06  -5.835654e+00  -5.549948e+00  -6.050889e-22   1.177889e+06   2.167103e-40   0.000000e+00   0.000000e+00
     1144000   1.143999e-05   2.100010e+00   7.336338e+00   3.392414e+01   1.748262e+05  -1.838261e+05   1.150246e+06  -4.689059e+00  -4.459489e+00  -8.525716e-22   1.177889e+06   1.399538e-40   0.000000e+00   0.000000e+00
     1152000   1.151999e-05   2.113996e+00   7.321632e+00   3.401616e+01   1.748262e+05  -1.838261e+05   1.150246e+06  -4.129299e+00  -3.927134e+00  -1.526355e-21   1.177889e+06   1.085279e-40   0.000000e+00   0.000000e+00
     1160000   1.159999e-05   2.127982e+00   7.306926e+00   3.410818e+01   1.748262e+05  -1.838261e+05   1.150246e+06  -3.289749e+00  -3.128687e+00   3.023448e-22   1.177889e+06   6.888961e-41   0.000000e+00   0.000000e+00
     1168000   1.167999e-05   2.141969e+00   7.292220e+00   3.420020e+01   1.748262e+05  -1.838261e+05   1.150246e+06  -2.168249e-01  -2.062094e-01   1.199002e-22   1.177889e+06   2.999212e-43   0.000000e+00   0.000000e+00
     1176000   1.175999e-05   2.155955e+00   7.277514e+00   3.429222e+01   1.748262e+05  -1.838261e+05   1.150246e+06   1.803557e+00   1.715257e+00   5.814921e-24   1.177889e+06   2.069740e-41   0.000000e+00   0.000000e+00
     1184000   1.183999e-05   2.169941e+00   7.262808e+00   3.438424e+01   1.748262e+05  -1.838261e+05   1.150246e+06  -5.912592e+00  -5.623119e+00  -1.435081e-21   1.177889e+06   2.224767e-40   0.000000e+00   0.000000e+00
     1192000   1.191999e-05   2.183927e+00   7.248102e+00   3.447626e+01   1.748262e+05  -1.838261e+05   1.150246e+06   1.003852e+00   9.547048e-01   1.378304e-22   1.177889e+06   6.410602e-42   0.000000e+00   0.000000e+00
     1200000   1.199999e-05   2.197913e+00   7.233395e+00   3.456828e+01   1.748262e+05  -1.838261e+05   1.150246e+06  -6.435173e+00  -6.120115e+00  -3.995987e-21   1.177889e+06   2.635439e-40   0.000000e+00   0.000000e+00
     1208000   1.207999e-05   2.211899e+00   7.218689e+00   3.466030e+01   1.748262e+05  -1.838261e+05   1.150246e+06  -4.684117e+00  -4.454788e+00  -3.002906e-21   1.177889e+06   1.396286e-40   0.000000e+00   0.000000e+00
     1216000   1.215999e-05   2.225885e+00   7.203983e+00   3.475231e+01   1.748262e+05  -1.838261e+05   1.150246e+06  -3.375716e+00  -3.210445e+00   6.357570e-22   1.177889e+06   7.254310e-41   0.000000e+00   0.000000e+00
     1224000   1.223999e-05   2.239871e+00   7.189277e+00   3.484433e+01   1.748262e+05  -1.838261e+05   1.150246e+06  -9.079688e-01  -8.635158e-01  -3.179649e-22   1.177889e+06   5.251793e-42   0.000000e+00   0.000000e+00
     1232000   1.231999e-05   2.253857e+00   7.174571e+00   3.493635e+01   1.748262e+05  -1.838261e+05   1.150246e+06  -8.696114e+00  -8.270363e+00   1.394701e-21   1.177889e+06   4.812633e-40   0.000000e+00   0.000000e+00
     1240000   1.239999e-05   2.267843e+00   7.159865e+00   3.502837e+01   1.748262e+05  -1.838261e+05   1.150246e+06  -2.008085e+00  -1.909772e+00  -4.891073e-22   1.177889e+06   2.567542e-41   0.000000e+00   0.000000e+00
     1248000   1.247999e-05   2.281830e+00   7.145159e+00   3.512039e+01   1.748262e+05  -1.838261e+05   1.150246e+06  -8.415809e+00  -8.003782e+00  -2.403647e-21   1.177889e+06   4.507363e-40   0.000000e+00   0.000000e+00
     1256000   1.255999e-05   2.295816e+00   7.130453e+00   3.521241e+01   1.748262e+05  -1.838261e+05   1.150246e+06  -3.108201e+00  -2.956028e+00  -1.539996e-21   1.177889e+06   6.150486e-41   0.000000e+00   0.000000e+00
     1264000   1.263999e-05   2.309802e+00   7.115747e+00   3.530443e+01   1.748262e+05  -1.838261e+05   1.150246e+06  -6.054074e+00  -5.757674e+00   4.804920e-22   1.177889e+06   2.332958e-40   0.000000e+00   0.000000e+00
     1272000   1.271999e-05   2.323788e+00   7.101041e+00   3.539645e+01   1.748262e+05  -1.838261e+05   1.150246e+06  -4.176685e+00  -3.972200e+00   2.124972e-21   1.177889e+06   1.110427e-40   0.000000e+00   0.000000e+00
     1280000   1.279999e-05   2.337774e+00   7.086335e+00   3.548847e+01   1.748262e+05  -1.838261e+05   1.150246e+06  -3.265481e+00  -3.105608e+00  -1.486292e-21   1.177889e+06   6.787633e-41   0.000000e+00   0.000000e+00
     1288000   1.287999e-05   2.351760e+00   7.071628e+00   3.558049e+01   1.748262e+05  -1.838261e+05   1.150246e+06  -8.053544e+00  -7.659253e+00   5.376576e-22   1.177889e+06   4.127966e-40   0.000000e+00   0.000000e+00
     1296000   1.295999e-05   2.365746e+00   7.056922e+00   3.567251e+01   1.748262e+05  -1.838261e+05   1.150246e+06  -3.758181e+00  -3.574186e+00   4.379635e-23   1.177889e+06   8.990283e-41   0.000000e+00   0.000000e+00
     1304000   1.303999e-05   2.379732e+00   7.042216e+00   3.576453e+01   1.748262e+05  -1.838261e+05   1.150246e+06  -7.133803e+00  -6.784541e+00   4.823776e-21   1.177889e+06   3.238935e-40   0.000000e+00   0.000000e+00
     1312000   1.311999e-05   2.393718e+00   7.027510e+00   3.585655e+01   1.748262e+05  -1.838261e+05   1.150246e+06  -4.250881e+00  -4.042764e+00   3.865736e-21   1.177889e+06   1.150194e-40   0.000000e+00   0.000000e+00
     1320000   1.319999e-05   2.407704e+00   7.012804e+00   3.594857e+01   1.748262e+05  -1.838261e+05   1.150246e+06  -5.275058e+00  -5.016798e+00  -8.969759e-22   1.177889e+06   1.771007e-40   0.000000e+00   0.000000e+00
     1328000   1.327999e-05   2.421691e+00   6.998098e+00   3.604059e+01   1.748262e+05  -1.838261e+05   1.150246e+06  -7.380407e+00  -7.019072e+00  -8.438478e-22   1.177889e+06   3.466602e-40   0.000000e+00   0.000000e+00
     1336000   1.335999e-05   2.435677e+00   6.983392e+00   3.613261e+01   1.748262e+05  -1.838261e+05   1.150246e+06  -4.408224e+00  -4.192403e+00   9.300389e-22   1.177889e+06   1.236969e-40   0.000000e+00   0.000000e+00
     1344000   1.343999e-05   2.449663e+00   6.968686e+00   3.622463e+01   1.748262e+05  -1.838261e+05   1.150246e+06  -7.267816e+00  -6.911993e+00   2.809219e-21   1.177889e+06   3.361636e-40   0.000000e+00   0.000000e+00
     1352000   1.351999e-05   2.463649e+00   6.953980e+00   3.631665e+01   1.748262e+05  -1.838261e+05   1.150246e+06  -4.854156e+00  -4.616503e+00  -1.270628e-21   1.177889e+06   1.499872e-40   0.000000e+00   0.000000e+00
     1360000   1.359999e-05   2.477635e+00   6.939274e+00   3.640867e+01   1.748262e+05  -1.838261e+05   1.150246e+06  -7.155225e+00  -6.804915e+00   1.866780e-21   1.177889e+06   3.258284e-40   0.000000e+00   0.000000e+00
     1368000   1.367999e-05   2.491621e+00   6.924568e+00   3.650069e+01   1.748262e+05  -1.838261e+05   1.150246e+06  -5.300088e+00  -5.040603e+00   1.112891e-21   1.177889e+06   1.788087e-40   0.000000e+00   0.000000e+00
     1376000   1.375999e-05   2.505607e+00   6.909862e+00   3.659271e+01   1.748262e+05  -1.838261e+05   1.150246e+06  -6.631977e+00  -6.307284e+00   3.207614e-22   1.177889e+06   2.799258e-40   0.000000e+00   0.000000e+00
     1384000   1.383999e-05   2.519593e+00   6.895155e+00   3.668473e+01   1.748262e+05  -1.838261e+05   1.150246e+06  -1.070140e+01  -1.017747e+01  -1.398477e-21   1.177889e+06   7.288273e-40   0.000000e+00   0.000000e+00
     1392000   1.391999e-05   2.533579e+00   6.880449e+00   3.677675e+01   1.748262e+05  -1.838261e+05   1.150246e+06  -2.522234e+00  -2.398749e+00   1.892161e-21   1.177889e+06   4.050448e-41   0.000000e+00   0.000000e+00
     1400000   1.399999e-05   2.547565e+00   6.865743e+00   3.686877e+01   1.748262e+05  -1.838261e+05   1.150246e+06  -9.636495e+00  -9.164704e+00   7.225489e-22   1.177889e+06   5.909869e-40   0.000000e+00   0.000000e+00
     1408000   1.407999e-05   2.561551e+00   6.851037e+00   3.696079e+01   1.748262e+05  -1.838261e+05   1.150246e+06  -3.192955e+00  -3.036632e+00  -1.285102e-22   1.177889e+06   6.490607e-41   0.000000e+00   0.000000e+00
     1416000   1.415999e-05   2.575538e+00   6.836331e+00   3.705281e+01   1.748262e+05  -1.838261e+05   1.150246e+06  -8.571590e+00  -8.151936e+00  -1.730413e-21   1.177889e+06   4.675820e-40   0.000000e+00   0.000000e+00
     1424000   1.423999e-05   2.589524e+00   6.821625e+00   3.714483e+01   1.748262e+05  -1.838261e+05   1.150246e+06  -3.863675e+00  -3.674514e+00   1.374020e-22   1.177889e+06   9.503417e-41   0.000000e+00   0.000000e+00
     1432000   1.431999e-05   2.603510e+00   6.806919e+00   3.723685e+01   1.748262e+05  -1.838261e+05   1.150246e+06  -5.664969e+00  -5.387619e+00   3.805125e-21   1.177889e+06   2.042633e-40   0.000000e+00   0.000000e+00
     1440000   1.439999e-05   2.617496e+00   6.792213e+00   3.732887e+01   1.748262e+05  -1.838261e+05   1.150246e+06  -7.438620e+00  -7.074435e+00   1.278948e-21   1.177889e+06   3.521183e-40   0.000000e+00   0.000000e+00
     1448000   1.447999e-05   2.631482e+00   6.777507e+00   3.742089e+01   1.748262e+05  -1.838261e+05   1.150246e+06  -3.515224e+00  -3.343123e+00  -1.124144e-22   1.177889e+06   7.867523e-41   0.000000e+00   0.000000e+00
     1456000   1.455999e-05   2.645468e+00   6.762801e+00   3.751291e+01   1.748262e+05  -1.838261e+05   1.150246e+06  -7.090546e+00  -6.743402e+00   6.563177e-22   1.177889e+06   3.199334e-40   0.000000e+00   0.000000e+00
     1464000   1.463999e-05   2.659454e+00   6.748095e+00   3.760493e+01   1.748262e+05  -1.838261e+05   1.150246e+06  -4.033192e+00  -3.835732e+00   1.250993e-21   1.177889e+06   1.035643e-40   0.000000e+00   0.000000e+00
     1472000   1.471999e-05   2.673440e+00   6.733388e+00   3.769695e+01   1.748262e+05  -1.838261e+05   1.150246e+06   9.551627e-01   9.083991e-01  -5.879796e-23   1.177889e+06   5.799164e-42   0.000000e+00   0.000000e+00
     1480000   1.479999e-05   2.687426e+00   6.718682e+00   3.778897e+01   1.748262e+05  -1.838261e+05   1.150246e+06  -1.181577e+01  -1.123729e+01  -3.205230e-21   1.177889e+06   8.884963e-40   0.000000e+00   0.000000e+00
     1488000   1.487999e-05   2.701412e+00   6.703976e+00   3.788099e+01   1.748262e+05  -1.838261e+05   1.150246e+06  -6.631837e+00  -6.307150e+00   1.416146e-21   1.177889e+06   2.798958e-40   0.000000e+00   0.000000e+00
     1496000   1.495999e-05   2.715399e+00   6.689270e+00   3.797300e+01   1.748262e+05  -1.838261e+05   1.150246e+06  -1.340403e+01  -1.274779e+01  -3.138963e-21   1.177889e+06   1.143375e-39   0.000000e+00   0.000000e+00
     1504000   1.503999e-05   2.729385e+00   6.674564e+00   3.806502e+01   1.748262e+05  -1.838261e+05   1.150246e+06   1.272522e+00   1.210221e+00  -2.312475e-22   1.177889e+06   1.029146e-41   0.000000e+00   0.000000e+00
     1512000   1.511999e-05   2.743371e+00   6.659858e+00   3.815704e+01   1.748262e+05  -1.838261e+05   1.150246e+06  -1.174568e+01  -1.117063e+01   8.911159e-21   1.177889e+06   8.779424e-40   0.000000e+00   0.000000e+00
     1520000   1.519999e-05   2.757357e+00   6.645152e+00   3.824906e+01   1.748262e+05  -1.838261e+05   1.150246e+06  -3.763899e-01  -3.579623e-01  -3.069005e-22   1.177889e+06   9.061180e-43   0.000000e+00   0.000000e+00
     1528000   1.527999e-05   2.771343e+00   6.630446e+00   3.834108e+01   1.748262e+05  -1.838261e+05   1.150246e+06  -1.008733e+01  -9.593470e+00  -6.579091e-21   1.177889e+06   6.475168e-40   0.000000e+00   0.000000e+00
     1536000   1.535999e-05   2.785329e+00   6.615740e+00   3.843310e+01   1.748262e+05  -1.838261e+05   1.150246e+06  -2.025302e+00  -1.926146e+00  -1.247877e-22   1.177889e+06   2.613087e-41   0.000000e+00   0.000000e+00
     1544000   1.543999e-05   2.799315e+00   6.601034e+00   3.852512e+01   1.748262e+05  -1.838261e+05   1.150246e+06  -8.428985e+00  -8.016312e+00  -3.671754e-21   1.177889e+06   4.520986e-40   0.000000e+00   0.000000e+00
     1552000   1.551999e-05   2.813301e+00   6.586328e+00   3.861714e+01   1.748262e+05  -1.838261e+05   1.150246e+06  -4.690796e+00  -4.461141e+00   1.039175e-21   1.177889e+06   1.400593e-40   0.000000e+00   0.000000e+00
     1560000   1.559999e-05   2.827287e+00   6.571622e+00   3.870916e+01   1.748262e+05  -1.838261e+05   1.150246e+06  -6.003999e+00  -5.710051e+00  -1.889521e-21   1.177889e+06   2.294194e-40   0.000000e+00   0.000000e+00
     1568000   1.567999e-05   2.841273e+00   6.556915e+00   3.880118e+01   1.748262e+05  -1.838261e+05   1.150246e+06  -5.220434e+00  -4.964848e+00   1.020753e-21   1.177889e+06   1.734715e-40   0.000000e+00   0.000000e+00
     1576000   1.575999e-05   2.855260e+00   6.542209e+00   3.889320e+01   1.748262e+05  -1.838261e+05   1.150246e+06  -3.444655e+00  -3.276009e+00   2.034306e-22   1.177889e+06   7.553103e-41   0.000000e+00   0.000000e+00
     1584000   1.583999e-05   2.869246e+00   6.527503e+00   3.898522e+01   1.748262e+05  -1.838261e+05   1.150246e+06  -6.733931e+00  -6.404246e+00   1.375204e-21   1.177889e+06   2.885953e-40   0.000000e+00   0.000000e+00
     1592000   1.591999e-05   2.883232e+00   6.512797e+00   3.907724e+01   1.748262e+05  -1.838261e+05   1.150246e+06  -3.974293e+00  -3.779717e+00   1.874522e-22   1.177889e+06   1.005417e-40   0.000000e+00   0.000000e+00
     1600000   1.599999e-05   2.897218e+00   6.498091e+00   3.916926e+01   1.748262e+05  -1.838261e+05   1.150246e+06  -1.709600e+00  -1.625901e+00  -9.194806e-22   1.177889e+06   1.860571e-41   0.000000e+00   0.000000e+00
     1608000   1.607999e-05   2.911204e+00   6.483385e+00   3.926128e+01   1.748262e+05  -1.838261e+05   1.150246e+06  -5.197718e+00  -4.943244e+00  -1.900707e-21   1.177889e+06   1.719562e-40   0.000000e+00   0.000000e+00
     1616000   1.615999e-05   2.925190e+00   6.468679e+00   3.935330e+01   1.748262e+05  -1.838261e+05   1.150246e+06  -4.794445e+00  -4.559715e+00   1.001967e-21   1.177889e+06   1.463002e-40   0.000000e+00   0.000000e+00
     1624000   1.623999e-05   2.939176e+00   6.453973e+00   3.944532e+01   1.748262e+05  -1.838261e+05   1.150246e+06  -4.843244e+00  -4.606125e+00   1.057945e-21   1.177889e+06   1.493022e-40   0.000000e+00   0.000000e+00
     1632000   1.631999e-05   2.953162e+00   6.439267e+00   3.953734e+01   1.748262e+05  -1.838261e+05   1.150246e+06  -4.617119e+00  -4.391071e+00  -1.429391e-21   1.177889e+06   1.356782e-40   0.000000e+00   0.000000e+00
     1640000   1.639999e-05   2.967148e+00   6.424561e+00   3.962936e+01   1.748262e+05  -1.838261e+05   1.150246e+06  -4.488770e+00  -4.269005e+00   5.741968e-22   1.177889e+06   1.282476e-40   0.000000e+00   0.000000e+00
     1648000   1.647999e-05   2.981134e+00   6.409855e+00   3.972138e+01   1.748262e+05  -1.838261e+05   1.150246e+06  -4.439794e+00  -4.222427e+00  -4.056591e-22   1.177889e+06   1.254565e-40   0.000000e+00   0.000000e+00
     1656000   1.655999e-05   2.995120e+00   6.395148e+00   3.981340e+01   1.748262e+05  -1.838261e+05   1.150246e+06  -4.887133e+00  -4.647865e+00   6.581836e-22   1.177889e+06   1.520082e-40   0.000000e+00   0.000000e+00
     1664000   1.663999e-05   3.009107e+00   6.380442e+00   3.990542e+01   1.748262e+05  -1.838261e+05   1.150246e+06  -4.074194e+00  -3.874726e+00   2.283085e-23   1.177889e+06   1.056485e-40   0.000000e+00   0.000000e+00
     1672000   1.671999e-05   3.023093e+00   6.365736e+00   3.999744e+01   1.748262e+05  -1.838261e+05   1.150246e+06  -3.987511e+00  -3.792288e+00  -1.931421e-21   1.177889e+06   1.012008e-40   0.000000e+00   0.000000e+00
     1680000   1.679999e-05   3.037079e+00   6.351030e+00   4.008946e+01   1.748262e+05  -1.838261e+05   1.150246e+06  -3.610424e+00  -3.433662e+00  -2.749798e-22   1.177889e+06   8.296605e-41   0.000000e+00   0.000000e+00
     1688000   1.687999e-05   3.051065e+00   6.336324e+00   4.018148e+01   1.748262e+05  -1.838261e+05   1.150246e+06  -3.723662e+00  -3.541356e+00  -2.318698e-21   1.177889e+06   8.825127e-41   0.000000e+00   0.000000e+00
     1696000   1.695999e-05   3.065051e+00   6.321618e+00   4.027350e+01   1.748262e+05  -1.838261e+05   1.150246e+06  -3.287067e+00  -3.126137e+00  -4.356032e-23   1.177889e+06   6.877046e-41   0.000000e+00   0.000000e+00
     1704000   1.703999e-05   3.079037e+00   6.306912e+00   4.036552e+01   1.748262e+05  -1.838261e+05   1.150246e+06  -3.459813e+00  -3.290425e+00   7.418791e-22   1.177889e+06   7.618787e-41   0.000000e+00   0.000000e+00
     1712000   1.711999e-05   3.093023e+00   6.292206e+00   4.045754e+01   1.748262e+05  -1.838261e+05   1.150246e+06  -4.570314e+00  -4.346557e+00  -3.966065e-21   1.177889e+06   1.329223e-40   0.000000e+00   0.000000e+00
     1720000   1.719999e-05   3.107009e+00   6.277500e+00   4.054956e+01   1.748262e+05  -1.838261e+05   1.150246e+06  -4.139788e+00  -3.937109e+00   4.760911e-24   1.177889e+06   1.090642e-40   0.000000e+00   0.000000e+00
     1728000   1.727999e-05   3.120995e+00   6.262794e+00   4.064158e+01   1.748262e+05  -1.838261e+05   1.150246e+06  -2.737618e+00  -2.603588e+00  -1.154897e-21   1.177889e+06   4.770687e-41   0.000000e+00   0.000000e+00
     1736000   1.735999e-05   3.134981e+00   6.248088e+00   4.073360e+01   1.748262e+05  -1.838261e+05   1.150246e+06  -4.300555e+00  -4.090005e+00  -1.700462e-21   1.177889e+06   1.177002e-40   0.000000e+00   0.000000e+00
     1744000   1.743999e-05   3.148968e+00   6.233381e+00   4.082562e+01   1.748262e+05  -1.838261e+05   1.150246e+06  -3.632647e+00  -3.454797e+00   6.622310e-22   1.177889e+06   8.399767e-41   0.000000e+00   0.000000e+00
     1752000   1.751999e-05   3.162954e+00   6.218675e+00   4.091764e+01   1.748262e+05  -1.838261e+05   1.150246e+06  -4.461323e+00  -4.242902e+00  -1.113257e-21   1.177889e+06   1.266652e-40   0.000000e+00   0.000000e+00
     1760000   1.759999e-05   3.176940e+00   6.203969e+00   4.100966e+01   1.748262e+05  -1.838261e+05   1.150246e+06  -4.527675e+00  -4.306005e+00  -9.801697e-22   1.177889e+06   1.304857e-40   0.000000e+00   0.000000e+00
     1768000   1.767999e-05   3.190926e+00   6.189263e+00   4.110167e+01   1.748262e+05  -1.838261e+05   1.150246e+06   1.963501e+00   1.867370e+00   1.971514e-21   1.177889e+06   2.452640e-41   0.000000e+00   0.000000e+00
     1776000   1.775999e-05   3.204912e+00   6.174557e+00   4.119369e+01   1.748262e+05  -1.838261e+05   1.150246e+06  -7.575516e+00  -7.204629e+00   2.761992e-21   1.177889e+06   3.652254e-40   0.000000e+00   0.000000e+00
     1784000   1.783999e-05   3.218898e+00   6.159851e+00   4.128571e+01   1.748262e+05  -1.838261e+05   1.150246e+06  -2.903777e+00  -2.761612e+00  -2.108957e-22   1.177889e+06   5.367891e-41   0.000000e+00   0.000000e+00
     1792000   1.791999e-05   3.232884e+00   6.145145e+00   4.137773e+01   1.748262e+05  -1.838261e+05   1.150246e+06  -7.176638e+00  -6.825279e+00  -6.944413e-22   1.177889e+06   3.277754e-40   0.000000e+00   0.000000e+00
     1800000   1.799999e-05   3.246870e+00   6.130439e+00   4.146975e+01   1.748262e+05  -1.838261e+05   1.150246e+06  -3.765239e+00  -3.580898e+00  -1.004707e-22   1.177889e+06   9.024840e-41   0.000000e+00   0.000000e+00
     1808000   1.807999e-05   3.260856e+00   6.115733e+00   4.156177e+01   1.748262e+05  -1.838261e+05   1.150246e+06  -6.777760e+00  -6.445929e+00  -4.149810e-21   1.177889e+06   2.923506e-40   0.000000e+00   0.000000e+00
     1816000   1.815999e-05   3.274842e+00   6.101027e+00   4.165379e+01   1.748262e+05  -1.838261e+05   1.150246e+06  -4.626701e+00  -4.400184e+00  -4.598944e-21   1.177889e+06   1.362646e-40   0.000000e+00   0.000000e+00
     1824000   1.823999e-05   3.288828e+00   6.086321e+00   4.174581e+01   1.748262e+05  -1.838261e+05   1.150246e+06  -2.609559e+00  -2.481798e+00  -2.171797e-22   1.177889e+06   4.334811e-41   0.000000e+00   0.000000e+00
     1832000   1.831999e-05   3.302815e+00   6.071615e+00   4.183783e+01   1.748262e+05  -1.838261e+05   1.150246e+06  -5.822650e+00  -5.537581e+00  -2.671380e-21   1.177889e+06   2.157974e-40   0.000000e+00   0.000000e+00
     1840000   1.839999e-05   3.316801e+00   6.056908e+00   4.192985e+01   1.748262e+05  -1.838261e+05   1.150246e+06  -6.330437e+00  -6.020507e+00   4.238667e-21   1.177889e+06   2.550426e-40   0.000000e+00   0.000000e+00
     1848000   1.847999e-05   3.330787e+00   6.042202e+00   4.202187e+01   1.748262e+05  -1.838261e+05   1.150246e+06  -6.269348e+00  -5.962408e+00   1.217835e-21   1.177889e+06   2.501771e-40   0.000000e+00   0.000000e+00
     1856000   1.855999e-05   3.344773e+00   6.027496e+00   4.211389e+01   1.748262e+05  -1.838261e+05   1.150246e+06  -6.803923e+00  -6.470812e+00   1.073106e-21   1.177889e+06   2.946228e-40   0.000000e+00   0.000000e+00
     1864000   1.863999e-05   3.358759e+00   6.012790e+00   4.220591e+01   1.748262e+05  -1.838261e+05   1.150246e+06  -6.716045e+00  -6.387236e+00  -1.798163e-21   1.177889e+06   2.870968e-40   0.000000e+00   0.000000e+00
     1872000   1.871999e-05   3.372745e+00   5.998084e+00   4.229793e+01   1.748262e+05  -1.838261e+05   1.150246e+06  -8.912862e+00  -8.476499e+00   6.874213e-21   1.177889e+06   5.056045e-40   0.000000e+00   0.000000e+00
     1880000   1.879999e-05   3.386731e+00   5.983378e+00   4.238995e+01   1.748262e+05  -1.838261e+05   1.150246e+06  -6.403783e+00  -6.090262e+00   2.100836e-21   1.177889e+06   2.610063e-40   0.000000e+00   0.000000e+00
     1888000   1.887999e-05   3.400717e+00   5.968672e+00   4.248197e+01   1.748262e+05  -1.838261e+05   1.150246e+06  -6.166317e+00  -5.864422e+00   6.611356e-22   1.177889e+06   2.420147e-40   0.000000e+00   0.000000e+00
     1896000   1.895999e-05   3.414703e+00   5.953966e+00   4.257399e+01   1.748262e+05  -1.838261e+05   1.150246e+06  -8.834181e+00  -8.401670e+00   5.122568e-21   1.177889e+06   4.966976e-40   0.000000e+00   0.000000e+00
     1904000   1.903999e-05   3.428689e+00   5.939260e+00   4.266601e+01   1.748262e+05  -1.838261e+05   1.150246e+06  -6.662432e+00  -6.336248e+00   3.893664e-21   1.177889e+06   2.825237e-40   0.000000e+00   0.000000e+00
     1912000   1.911999e-05   3.442676e+00   5.924554e+00   4.275803e+01   1.748262e+05  -1.838261e+05   1.150246e+06  -9.924771e+00  -9.438866e+00  -8.859431e-22   1.177889e+06   6.269061e-40   0.000000e+00   0.000000e+00
     1920000   1.919999e-05   3.456662e+00   5.909848e+00   4.285005e+01   1.748262e+05  -1.838261e+05   1.150246e+06  -7.158548e+00  -6.808074e+00   2.507317e-21   1.177889e+06   3.261658e-40   0.000000e+00   0.000000e+00
     1928000   1.927999e-05   3.470648e+00   5.895141e+00   4.294207e+01   1.748262e+05  -1.838261e+05   1.150246e+06  -1.342084e+01  -1.276377e+01  -4.364141e-21   1.177889e+06   1.146281e-39   0.000000e+00   0.000000e+00
     1936000   1.935999e-05   3.484634e+00   5.880435e+00   4.303409e+01   1.748262e+05  -1.838261e+05   1.150246e+06  -5.497792e+00  -5.228627e+00   1.993936e-21   1.177889e+06   1.924320e-40   0.000000e+00   0.000000e+00
     1944000   1.943999e-05   3.498620e+00   5.865729e+00   4.312611e+01   1.748262e+05  -1.838261e+05   1.150246e+06  -1.184268e+01  -1.126288e+01  -1.266379e-21   1.177889e+06   8.925351e-40   0.000000e+00   0.000000e+00
     1952000   1.951999e-05   3.512606e+00   5.851023e+00   4.321813e+01   1.748262e+05  -1.838261e+05   1.150246e+06  -6.785005e+00  -6.452820e+00   1.778322e-21   1.177889e+06   2.930190e-40   0.000000e+00   0.000000e+00
     1960000   1.959999e-05   3.526592e+00   5.836317e+00   4.331015e+01   1.748262e+05  -1.838261e+05   1.150246e+06  -9.986286e+00  -9.497370e+00   4.422794e-21   1.177889e+06   6.347111e-40   0.000000e+00   0.000000e+00
     1968000   1.967999e-05   3.540578e+00   5.821611e+00   4.340217e+01   1.748262e+05  -1.838261e+05   1.150246e+06  -6.410063e+00  -6.096235e+00  -1.546453e-21   1.177889e+06   2.615298e-40   0.000000e+00   0.000000e+00
     1976000   1.975999e-05   3.554564e+00   5.806905e+00   4.349419e+01   1.748262e+05  -1.838261e+05   1.150246e+06  -5.312480e+00  -5.052388e+00  -2.351017e-21   1.177889e+06   1.796367e-40   0.000000e+00   0.000000e+00
     1984000   1.983999e-05   3.568550e+00   5.792199e+00   4.358621e+01   1.748262e+05  -1.838261e+05   1.150246e+06  -1.196928e+01  -1.138328e+01   1.370300e-22   1.177889e+06   9.117501e-40   0.000000e+00   0.000000e+00
     1992000   1.991999e-05   3.582537e+00   5.777493e+00   4.367823e+01   1.748262e+05  -1.838261e+05   1.150246e+06  -6.146091e+00  -5.845187e+00  -5.175475e-21   1.177889e+06   2.404613e-40   0.000000e+00   0.000000e+00
     2000000   1.999999e-05   3.596523e+00   5.762787e+00   4.377025e+01   1.748262e+05  -1.838261e+05   1.150246e+06  -1.084787e+01  -1.031677e+01  -2.500776e-21   1.177889e+06   7.489013e-40   0.000000e+00   0.000000e+00
     2008000   2.007999e-05   3.610509e+00   5.748081e+00   4.386227e+01   1.748262e+05  -1.838261e+05   1.150246e+06  -3.762586e+00  -3.578375e+00  -6.039065e-22   1.177889e+06   9.013724e-41   0.000000e+00   0.000000e+00
     2016000   2.015999e-05   3.624495e+00   5.733375e+00   4.395429e+01   1.748262e+05  -1.838261e+05   1.150246e+06  -9.919965e+00  -9.434296e+00  -1.534593e-21   1.177889e+06   6.262685e-40   0.000000e+00   0.000000e+00
     2024000   2.023999e-05   3.638481e+00   5.718668e+00   4.404631e+01   1.748262e+05  -1.838261e+05   1.150246e+06  -3.575505e+00  -3.400453e+00  -8.017081e-22   1.177889e+06   8.139809e-41   0.000000e+00   0.000000e+00
     2032000   2.031999e-05   3.652467e+00   5.703962e+00   4.413833e+01   1.748262e+05  -1.838261e+05   1.150246e+06  -6.342179e+00  -6.031674e+00   8.718136e-22   1.177889e+06   2.559742e-40   0.000000e+00   0.000000e+00
     2040000   2.039999e-05   3.666453e+00   5.689256e+00   4.423034e+01   1.748262e+05  -1.838261e+05   1.150246e+06  -1.624523e+01  -1.544988e+01  -2.937550e-21   1.177889e+06   1.679554e-39   0.000000e+00   0.000000e+00
     2048000   2.047999e-05   3.680439e+00   5.674550e+00   4.432236e+01   1.748262e+05  -1.838261e+05   1.150246e+06  -2.205088e+00  -2.097129e+00  -9.429851e-22   1.177889e+06   3.096319e-41   0.000000e+00   0.000000e+00
     2056000   2.055999e-05   3.694425e+00   5.659844e+00   4.441438e+01   1.748262e+05  -1.838261e+05   1.150246e+06  -1.640288e+01  -1.559982e+01   5.241253e-21   1.177889e+06   1.712312e-39   0.000000e+00   0.000000e+00
     2064000   2.063999e-05   3.708411e+00   5.645138e+00   4.450640e+01   1.748262e+05  -1.838261e+05   1.150246e+06  -5.437576e+00  -5.171359e+00   1.006218e-21   1.177889e+06   1.881405e-40   0.000000e+00   0.000000e+00
     2072000   2.071999e-05   3.722397e+00   5.630432e+00   4.459842e+01   1.748262e+05  -1.838261e+05   1.150246e+06  -1.076508e+01  -1.023804e+01  -2.245313e-21   1.177889e+06   7.374945e-40   0.000000e+00   0.000000e+00
     2080000   2.079999e-05   3.736384e+00   5.615726e+00   4.469044e+01   1.748262e+05  -1.838261e+05   1.150246e+06  -2.567354e+00  -2.441660e+00  -1.530935e-21   1.177889e+06   4.197361e-41   0.000000e+00   0.000000e+00
     2088000   2.087999e-05   3.750370e+00   5.601020e+00   4.478246e+01   1.748262e+05  -1.838261e+05   1.150246e+06  -8.992251e+00  -8.552002e+00   2.363894e-21   1.177889e+06   5.145770e-40   0.000000e+00   0.000000e+00
     2096000   2.095999e-05   3.764356e+00   5.586314e+00   4.487448e+01   1.748262e+05  -1.838261e+05   1.150246e+06  -1.790748e+01  -1.703075e+01   1.055551e-20   1.177889e+06   2.040957e-39   0.000000e+00   0.000000e+00
     2104000   2.103999e-05   3.778342e+00   5.571608e+00   4.496650e+01   1.748262e+05  -1.838261e+05   1.150246e+06  -5.616145e+00  -5.341186e+00  -3.144390e-21   1.177889e+06   2.007706e-40   0.000000e+00   0.000000e+00
     2112000   2.111999e-05   3.792328e+00   5.556901e+00   4.505852e+01   1.748262e+05  -1.838261e+05   1.150246e+06  -1.674460e+01  -1.592480e+01  -7.766239e-21   1.177889e+06   1.784486e-39   0.000000e+00   0.000000e+00
     2120000   2.119999e-05   3.806314e+00   5.542195e+00   4.515054e+01   1.748262e+05  -1.838261e+05   1.150246e+06  -6.434760e+00  -6.119723e+00  -4.700828e-21   1.177889e+06   2.635020e-40   0.000000e+00   0.000000e+00
     2128000   2.127999e-05   3.820300e+00   5.527489e+00   4.524256e+01   1.748262e+05  -1.838261e+05   1.150246e+06  -7.522463e+00  -7.154173e+00   7.247320e-22   1.177889e+06   3.601847e-40   0.000000e+00   0.000000e+00
     2136000   2.135999e-05   3.834286e+00   5.512783e+00   4.533458e+01   1.748262e+05  -1.838261e+05   1.150246e+06  -7.713859e+00  -7.336198e+00  -1.891693e-21   1.177889e+06   3.786799e-40   0.000000e+00   0.000000e+00
     2144000   2.143999e-05   3.848272e+00   5.498077e+00   4.542660e+01   1.748262e+05  -1.838261e+05   1.150246e+06  -9.970903e+00  -9.482740e+00   1.507884e-21   1.177889e+06   6.327927e-40   0.000000e+00   0.000000e+00
     2152000   2.151999e-05   3.862258e+00   5.483371e+00   4.551862e+01   1.748262e+05  -1.838261e+05   1.150246e+06  -6.772940e+00  -6.441345e+00   2.268406e-21   1.177889e+06   2.919656e-40   0.000000e+00   0.000000e+00
     2160000   2.159999e-05   3.876245e+00   5.468665e+00   4.561064e+01   1.748262e+05  -1.838261e+05   1.150246e+06  -8.476288e+00  -8.061300e+00  -1.992453e-21   1.177889e+06   4.573056e-40   0.000000e+00   0.000000e+00
     2168000   2.167999e-05   3.890231e+00   5.453959e+00   4.570266e+01   1.748262e+05  -1.838261e+05   1.150246e+06  -5.654725e+00  -5.377877e+00  -1.188001e-21   1.177889e+06   2.035167e-40   0.000000e+00   0.000000e+00
     2176000   2.175999e-05   3.904217e+00   5.439253e+00   4.579468e+01   1.748262e+05  -1.838261e+05   1.150246e+06  -6.378441e+00  -6.066161e+00  -7.279296e-21   1.177889e+06   2.589364e-40   0.000000e+00   0.000000e+00
     2184000   2.183999e-05   3.918203e+00   5.424547e+00   4.588670e+01   1.748262e+05  -1.838261e+05   1.150246e+06  -6.182067e+00  -5.879401e+00   4.170202e-23   1.177889e+06   2.432546e-40   0.000000e+00   0.000000e+00
     2192000   2.191999e-05   3.932189e+00   5.409841e+00   4.597872e+01   1.748262e+05  -1.838261e+05   1.150246e+06  -6.148415e+00  -5.847396e+00  -2.072950e-22   1.177889e+06   2.405968e-40   0.000000e+00   0.000000e+00
     2200000   2.199999e-05   3.946175e+00   5.395134e+00   4.607074e+01   1.748262e+05  -1.838261e+05   1.150246e+06  -5.841707e+00  -5.555705e+00  -1.042083e-21   1.177889e+06   2.171719e-40   0.000000e+00   0.000000e+00
     2208000   2.207999e-05   3.960161e+00   5.380428e+00   4.616276e+01   1.748262e+05  -1.838261e+05   1.150246e+06   1.893175e+00   1.800488e+00   2.521464e-22   1.177889e+06   2.280122e-41   0.000000e+00   0.000000e+00
     2216000   2.215999e-05   3.974147e+00   5.365722e+00   4.625478e+01   1.748262e+05  -1.838261e+05   1.150246e+06  -4.644126e+00  -4.416756e+00  -5.805214e-22   1.177889e+06   1.372518e-40   0.000000e+00   0.000000e+00
     2224000   2.223999e-05   3.988133e+00   5.351016e+00   4.634680e+01   1.748262e+05  -1.838261e+05   1.150246e+06   1.922657e+00   1.828527e+00   8.644364e-22   1.177889e+06   2.351708e-41   0.000000e+00   0.000000e+00
     2232000   2.231999e-05   4.002119e+00   5.336310e+00   4.643882e+01   1.748262e+05  -1.838261e+05   1.150246e+06  -4.875889e+00  -4.637172e+00   1.272402e-21   1.177889e+06   1.513268e-40   0.000000e+00   0.000000e+00
     2240000   2.239999e-05   4.016106e+00   5.321604e+00   4.653084e+01   1.748262e+05  -1.838261e+05   1.150246e+06  -4.232329e+00  -4.025119e+00  -1.366421e-21   1.177889e+06   1.140017e-40   0.000000e+00   0.000000e+00
     2248000   2.247999e-05   4.030092e+00   5.306898e+00   4.662286e+01   1.748262e+05  -1.838261e+05   1.150246e+06  -4.089652e+00  -3.889428e+00  -6.324315e-22   1.177889e+06   1.064601e-40   0.000000e+00   0.000000e+00
     2256000   2.255999e-05   4.044078e+00   5.292192e+00   4.671488e+01   1.748262e+05  -1.838261e+05   1.150246e+06  -2.107274e-01  -2.004105e-01  -1.159874e-22   1.177889e+06   2.835925e-43   0.000000e+00   0.000000e+00
     2264000   2.263999e-05   4.058064e+00   5.277486e+00   4.680690e+01   1.748262e+05  -1.838261e+05   1.150246e+06  -5.361318e+00  -5.098834e+00  -4.490766e-21   1.177889e+06   1.829138e-40   0.000000e+00   0.000000e+00
     2272000   2.271999e-05   4.072050e+00   5.262780e+00   4.689892e+01   1.748262e+05  -1.838261e+05   1.150246e+06  -9.042536e+00  -8.599824e+00  -4.458533e-21   1.177889e+06   5.203723e-40   0.000000e+00   0.000000e+00
     2280000   2.279999e-05   4.086036e+00   5.248074e+00   4.699094e+01   1.748262e+05  -1.838261e+05   1.150246e+06   1.679888e+00   1.597643e+00  -4.771042e-22   1.177889e+06   1.795368e-41   0.000000e+00   0.000000e+00
     2288000   2.287999e-05   4.100022e+00   5.233368e+00   4.708296e+01   1.748262e+05  -1.838261e+05   1.150246e+06  -3.577691e+00  -3.402532e+00  -2.648456e-22   1.177889e+06   8.149045e-41   0.000000e+00   0.000000e+00
     2296000   2.295999e-05   4.114008e+00   5.218661e+00   4.717498e+01   1.748262e+05  -1.838261e+05   1.150246e+06  -7.243009e+00  -6.888401e+00   3.135518e-22   1.177889e+06   3.338634e-40   0.000000e+00   0.000000e+00
     2304000   2.303999e-05   4.127994e+00   5.203955e+00   4.726700e+01   1.748262e+05  -1.838261e+05   1.150246e+06  -3.248333e+00  -3.089299e+00   1.929441e-21   1.177889e+06   6.717915e-41   0.000000e+00   0.000000e+00
     2312000   2.311999e-05   4.141980e+00   5.189249e+00   4.735902e+01   1.748262e+05  -1.838261e+05   1.150246e+06   6.621233e-01   6.297065e-01  -2.568212e-23   1.177889e+06   2.785597e-42   0.000000e+00   0.000000e+00
     2320000   2.319999e-05   4.155966e+00   5.174543e+00   4.745103e+01   1.748262e+05  -1.838261e+05   1.150246e+06  -1.031144e+01  -9.806609e+00  -6.346511e-21   1.177889e+06   6.766578e-40   0.000000e+00   0.000000e+00
     2328000   2.327999e-05   4.169953e+00   5.159837e+00   4.754305e+01   1.748262e+05  -1.838261e+05   1.150246e+06  -6.720105e-01  -6.391097e-01  -5.460680e-22   1.177889e+06   2.879094e-42   0.000000e+00   0.000000e+00
     2336000   2.335999e-05   4.183939e+00   5.145131e+00   4.763507e+01   1.748262e+05  -1.838261e+05   1.150246e+06  -9.061207e+00  -8.617582e+00   1.711093e-21   1.177889e+06   5.225112e-40   0.000000e+00   0.000000e+00
     2344000   2.343999e-05   4.197925e+00   5.130425e+00   4.772709e+01   1.748262e+05  -1.838261e+05   1.150246e+06  -2.006144e+00  -1.907926e+00   8.828232e-22   1.177889e+06   2.562981e-41   0.000000e+00   0.000000e+00
     2352000   2.351999e-05   4.211911e+00   5.115719e+00   4.781911e+01   1.748262e+05  -1.838261e+05   1.150246e+06  -4.792241e+00  -4.557619e+00   2.493505e-21   1.177889e+06   1.461757e-40   0.000000e+00   0.000000e+00
     2360000   2.359999e-05   4.225897e+00   5.101013e+00   4.791113e+01   1.748262e+05  -1.838261e+05   1.150246e+06  -4.379996e+00  -4.165557e+00   3.544050e-22   1.177889e+06   1.220984e-40   0.000000e+00   0.000000e+00
     2368000   2.367999e-05   4.239883e+00   5.086307e+00   4.800315e+01   1.748262e+05  -1.838261e+05   1.150246e+06  -5.821484e+00  -5.536472e+00  -9.869039e-22   1.177889e+06   2.156709e-40   0.000000e+00   0.000000e+00
     2376000   2.375999e-05   4.253869e+00   5.071601e+00   4.809517e+01   1.748262e+05  -1.838261e+05   1.150246e+06  -8.710425e+00  -8.283974e+00  -1.759128e-22   1.177889e+06   4.828592e-40   0.000000e+00   0.000000e+00
     2384000   2.383999e-05   4.267855e+00   5.056894e+00   4.818719e+01   1.748262e+05  -1.838261e+05   1.150246e+06  -2.409660e+00  -2.291686e+00   2.262146e-22   1.177889e+06   3.696712e-41   0.000000e+00   0.000000e+00
     2392000   2.391999e-05   4.281841e+00   5.042188e+00   4.827921e+01   1.748262e+05  -1.838261e+05   1.150246e+06  -7.815144e+00  -7.432524e+00   8.640130e-22   1.177889e+06   3.886974e-40   0.000000e+00   0.000000e+00
     2400000   2.399999e-05   4.295827e+00   5.027482e+00   4.837123e+01   1.748262e+05  -1.838261e+05   1.150246e+06  -3.486284e+00  -3.315600e+00  -3.752747e-22   1.177889e+06   7.737318e-41   0.000000e+00   0.000000e+00
     2408000   2.407999e-05   4.309814e+00   5.012776e+00   4.846325e+01   1.748262e+05  -1.838261e+05   1.150246e+06  -5.796852e+00  -5.513045e+00  -2.938537e-22   1.177889e+06   2.138549e-40   0.000000e+00   0.000000e+00
     2416000   2.415999e-05   4.323800e+00   4.998070e+00   4.855527e+01   1.748262e+05  -1.838261e+05   1.150246e+06  -5.248287e+00  -4.991337e+00   2.474241e-22   1.177889e+06   1.753234e-40   0.000000e+00   0.000000e+00
     2424000   2.423999e-05   4.337786e+00   4.983364e+00   4.864729e+01   1.748262e+05  -1.838261e+05   1.150246e+06  -4.123824e+00  -3.921926e+00  -1.247356e-21   1.177889e+06   1.082313e-40   0.000000e+00   0.000000e+00
     2432000   2.431999e-05   4.351772e+00   4.968658e+00   4.873931e+01   1.748262e+05  -1.838261e+05   1.150246e+06  -5.102862e+00  -4.853032e+00   1.536330e-21   1.177889e+06   1.657423e-40   0.000000e+00   0.000000e+00
     2440000   2.439999e-05   4.365758e+00   4.953952e+00   4.883133e+01   1.748262e+05  -1.838261e+05   1.150246e+06  -3.564603e+00  -3.390084e+00   1.311797e-21   1.177889e+06   8.086695e-41   0.000000e+00   0.000000e+00
     2448000   2.447999e-05   4.379744e+00   4.939246e+00   4.892335e+01   1.748262e+05  -1.838261e+05   1.150246e+06  -4.957437e+00  -4.714727e+00  -1.762399e-21   1.177889e+06   1.564303e-40   0.000000e+00   0.000000e+00
     2456000   2.455999e-05   4.393730e+00   4.924540e+00   4.901537e+01   1.748262e+05  -1.838261e+05   1.150246e+06  -3.005381e+00  -2.858242e+00   4.379351e-22   1.177889e+06   5.748343e-41   0.000000e+00   0.000000e+00
     2464000   2.463999e-05   4.407716e+00   4.909834e+00   4.910739e+01   1.748262e+05  -1.838261e+05   1.150246e+06  -4.911072e+00  -4.670632e+00   2.294241e-21   1.177889e+06   1.535223e-40   0.000000e+00   0.000000e+00
     2472000   2.471999e-05   4.421702e+00   4.895128e+00   4.919941e+01   1.748262e+05  -1.838261e+05   1.150246e+06  -3.583791e+00  -3.408334e+00   1.006291e-21   1.177889e+06   8.174833e-41   0.000000e+00   0.000000e+00
     2480000   2.479999e-05   4.435688e+00   4.880421e+00   4.929143e+01   1.748262e+05  -1.838261e+05   1.150246e+06  -3.399779e-01  -3.233330e-01  -1.490162e-22   1.177889e+06   7.359976e-43   0.000000e+00   0.000000e+00
     2488000   2.487999e-05   4.449674e+00   4.865715e+00   4.938345e+01   1.748262e+05  -1.838261e+05   1.150246e+06  -2.511268e+00  -2.388320e+00   4.637836e-23   1.177889e+06   4.014082e-41   0.000000e+00   0.000000e+00
     2496000   2.495999e-05   4.463661e+00   4.851009e+00   4.947547e+01   1.748262e+05  -1.838261e+05   1.150246e+06   8.470293e-01   8.055598e-01  -1.107369e-23   1.177889e+06   4.565576e-42   0.000000e+00   0.000000e+00
     2504000   2.503999e-05   4.477647e+00   4.836303e+00   4.956749e+01   1.748262e+05  -1.838261e+05   1.150246e+06  -1.438745e+00  -1.368306e+00   2.389828e-22   1.177889e+06   1.317602e-41   0.000000e+00   0.000000e+00
     2512000   2.511999e-05   4.491633e+00   4.821597e+00   4.965951e+01   1.748291e+05  -1.838290e+05   1.150245e+06   9.113706e+07  -9.289102e+07  -2.869776e+07   1.177889e+06   5.932944e-26   0.000000e+00   0.000000e+00
     2520000   2.519999e-05   4.505619e+00   4.806890e+00   4.975153e+01   1.748366e+05  -1.838367e+05   1.150243e+06   1.059582e+08  -1.075480e+08  -3.329438e+07   1.177889e+06   7.986519e-26   0.000000e+00   0.000000e+00
     2528000   2.527999e-05   4.519607e+00   4.792183e+00   4.984355e+01   1.748456e+05  -1.838458e+05   1.150240e+06   6.958192e+07  -7.078230e+07  -2.189031e+07   1.177889e+06   3.454355e-26   0.000000e+00   0.000000e+00
     2536000   2.535999e-05   4.533595e+00   4.777475e+00   4.993557e+01   1.748468e+05  -1.838471e+05   1.150240e+06   0.000000e+00   0.000000e+00   0.000000e+00   1.177889e+06   0.000000e+00   0.000000e+00   0.000000e+00
